timestamp,attitude_roll,attitude_pitch,attitude_yaw,rotation_rate_x,rotation_rate_y,rotation_rate_z,gravity_x,gravity_y,gravity_z,user_acc_x,user_acc_y,user_acc_z,magnetic_field_x,magnetic_field_y,magnetic_field_z,latitude(degree),longitude(degree),altitude(meter),speed(m/s),course(degree),timestamp
1466451342.66,0.046230,-0.017905,0.442315,0.004461,-0.038830,-0.000889,0.046206,0.017904,-0.998771,0.021650,0.003748,-0.014702,-4.884199,-6.920330,38.429726,,,,,,
1466451342.65,0.046102,-0.017885,0.442314,0.003419,-0.020781,-0.001003,0.046078,0.017884,-0.998778,0.007175,0.002486,-0.010866,-4.884199,-6.920330,38.429726,,,,,,
1466451342.67,0.045653,-0.017883,0.442324,0.011807,-0.120596,0.001760,0.045630,0.017882,-0.998798,0.022744,0.004304,-0.025143,-4.886675,-6.922216,38.429073,,,,,,
1466451342.68,0.044708,-0.017792,0.442350,0.011748,-0.169432,0.001002,0.044686,0.017791,-0.998843,0.034614,0.002107,-0.022535,-4.886675,-6.922216,38.429073,,,,,,
1466451342.69,0.042869,-0.017695,0.442366,0.016951,-0.264994,0.001607,0.042849,0.017694,-0.998925,0.028699,0.003897,-0.031776,-4.886675,-6.922216,38.429073,,,,,,
,,,,,,,,,,,,,,,,29.719995,-95.399073,9.868956,-1.000000,-1.000000,1466451333.49
1466451342.70,0.039400,-0.017571,0.442419,0.021064,-0.374373,0.006554,0.039384,0.017570,-0.999070,0.007720,0.004189,-0.028976,-4.828428,-6.917724,38.437241,,,,,,
1466451342.71,0.036087,-0.017351,0.442462,0.022173,-0.342513,0.004227,0.036074,0.017350,-0.999198,0.012587,0.000945,-0.006585,-4.828428,-6.917724,38.437241,,,,,,
1466451342.72,0.032389,-0.017098,0.442502,0.022093,-0.408341,0.003575,0.032378,0.017097,-0.999329,0.010758,-0.001945,-0.024520,-4.828428,-6.917724,38.437241,,,,,,
1466451342.73,0.026639,-0.016718,0.442525,0.024053,-0.541076,0.006538,0.026632,0.016718,-0.999506,-0.038335,-0.007272,-0.040717,-4.355673,-6.890450,38.498573,,,,,,
1466451342.74,0.021488,-0.016493,0.442557,0.026259,-0.484793,0.002994,0.021483,0.016492,-0.999633,-0.074050,0.011020,0.019912,-4.355673,-6.890450,38.498573,,,,,,
1466451342.75,0.017701,-0.016265,0.442581,0.015782,-0.348877,0.002131,0.017698,0.016265,-0.999711,-0.104993,-0.016509,0.015504,-4.355673,-6.890450,38.498573,,,,,,
1466451342.76,0.015173,-0.016116,0.442631,0.017021,-0.206602,0.003369,0.015171,0.016115,-0.999755,-0.100605,-0.010393,0.029220,-3.936181,-6.866902,38.547924,,,,,,
1466451342.77,0.015013,-0.016039,0.442631,0.001376,0.046127,-0.002489,0.015011,0.016039,-0.999759,-0.054760,-0.022295,0.036288,-3.936181,-6.866902,38.547924,,,,,,
1466451342.78,0.015793,-0.016057,0.442615,0.002455,0.060985,-0.000452,0.015790,0.016057,-0.999746,-0.033964,-0.008610,-0.005655,-3.936181,-6.866902,38.547924,,,,,,
1466451342.79,0.016361,-0.016054,0.442616,-0.003918,0.073730,-0.000539,0.016358,0.016053,-0.999737,-0.021759,-0.006196,-0.010059,-3.717014,-6.849915,38.572693,,,,,,
1466451342.80,0.017634,-0.016050,0.442596,0.001483,0.133191,-0.001971,0.017631,0.016050,-0.999716,-0.011878,-0.004972,-0.001185,-3.717014,-6.849915,38.572693,,,,,,
1466451342.81,0.018706,-0.016084,0.442579,-0.002816,0.099219,-0.002826,0.018702,0.016083,-0.999696,-0.007960,-0.006547,-0.017272,-3.717014,-6.849915,38.572693,,,,,,
1466451342.82,0.019841,-0.016129,0.442556,-0.005981,0.122580,-0.002976,0.019837,0.016128,-0.999673,-0.010423,-0.006362,-0.006659,-3.787905,-6.849703,38.565834,,,,,,
1466451342.83,0.021231,-0.016141,0.442530,-0.000636,0.141687,-0.002026,0.021227,0.016140,-0.999644,-0.015352,-0.000973,-0.006276,-3.787905,-6.849703,38.565834,,,,,,
1466451342.84,0.022728,-0.016185,0.442505,-0.004881,0.152307,-0.002097,0.022723,0.016184,-0.999611,-0.007663,-0.000864,-0.009819,-3.787905,-6.849703,38.565834,,,,,,
1466451342.85,0.024118,-0.016187,0.442469,0.000421,0.132136,-0.004094,0.024112,0.016186,-0.999578,0.002835,0.002918,-0.010050,-3.983713,-6.855180,38.545124,,,,,,
1466451342.86,0.025110,-0.016221,0.442452,-0.003898,0.087537,-0.001690,0.025104,0.016220,-0.999553,0.009961,-0.005112,-0.025242,-3.983713,-6.855180,38.545124,,,,,,
1466451342.87,0.025635,-0.016223,0.442427,0.000309,0.044004,-0.002477,0.025629,0.016223,-0.999540,0.009436,-0.002261,-0.020449,-3.983713,-6.855180,38.545124,,,,,,
,,,,,,,,,,,,,,,,29.719999,-95.399082,9.868956,-1.000000,-1.000000,1466451342.80
1466451342.88,0.025878,-0.016242,0.442425,-0.000795,0.016391,-0.000176,0.025872,0.016241,-0.999533,0.005637,-0.009451,-0.020166,-4.075186,-6.856727,38.535286,,,,,,
,,,,,,,,,,,,,,,,29.720003,-95.399091,9.868956,-1.000000,-1.000000,1466451342.86
1466451342.89,0.025862,-0.016240,0.442414,-0.000824,-0.006968,-0.000030,0.025855,0.016239,-0.999534,0.004128,-0.005802,-0.016457,-4.075186,-6.856727,38.535286,,,,,,
,,,,,,,,,,,,,,,,29.720007,-95.399100,9.868956,-1.000000,-1.000000,1466451342.88
1466451342.90,0.025634,-0.016069,0.442426,0.001276,-0.029270,0.001177,0.025628,0.016068,-0.999542,0.001334,-0.006989,-0.018020,-4.075186,-6.856727,38.535286,,,,,,
1466451342.91,0.025325,-0.016088,0.442428,-0.002986,-0.033512,0.000135,0.025319,0.016087,-0.999550,-0.000631,-0.005132,-0.013283,-4.095238,-6.850948,38.534187,,,,,,
1466451342.92,0.024900,-0.016076,0.442424,0.002324,-0.046253,-0.000844,0.024894,0.016075,-0.999561,-0.002509,-0.001228,-0.011487,-4.095238,-6.850948,38.534187,,,,,,
1466451342.93,0.024427,-0.016105,0.442432,-0.001943,-0.049443,0.001300,0.024421,0.016105,-0.999572,-0.001884,-0.004752,-0.013154,-4.095238,-6.850948,38.534187,,,,,,
1466451342.94,0.023795,-0.016080,0.442439,0.000180,-0.054753,0.001336,0.023790,0.016079,-0.999588,-0.002931,-0.000821,-0.008072,-4.095238,-6.850948,38.534187,,,,,,
1466451342.95,0.023258,-0.016105,0.442458,-0.001950,-0.053693,0.002391,0.023253,0.016104,-0.999600,-0.004439,-0.004110,-0.014270,-4.024444,-6.851342,38.541576,,,,,,
1466451342.96,0.022534,-0.016032,0.442459,0.000177,-0.058998,0.000298,0.022529,0.016031,-0.999618,-0.004722,-0.002542,-0.008531,-4.024444,-6.851342,38.541576,,,,,,
1466451342.97,0.021758,-0.016007,0.442467,0.000191,-0.046261,0.001282,0.021754,0.016007,-0.999635,-0.010340,-0.001038,-0.007231,-3.975970,-6.849417,38.546951,,,,,,
1466451342.98,0.021195,-0.015988,0.442465,-0.002978,-0.028207,0.000102,0.021191,0.015987,-0.999648,-0.009792,-0.001308,-0.006944,-3.975970,-6.849417,38.546951,,,,,,
1466451342.99,0.020814,-0.016014,0.442467,0.002364,-0.013346,0.000014,0.020810,0.016013,-0.999655,-0.008664,0.001260,-0.003625,-3.975970,-6.849417,38.546951,,,,,,
1466451343.00,0.020613,-0.015654,0.442439,0.000252,-0.011204,-0.006388,0.020609,0.015653,-0.999665,-0.003580,-0.015028,-0.004699,-3.924394,-6.847694,38.552540,,,,,,
1466451343.01,0.017340,-0.015865,0.442367,-0.005640,-0.484730,-0.016198,0.017337,0.015864,-0.999724,-0.158924,-0.029795,-0.095583,-3.924394,-6.847694,38.552540,,,,,,
1466451343.02,0.014138,-0.015961,0.442808,-0.048541,0.145949,-0.001036,0.014136,0.015961,-0.999773,-0.404944,-0.187332,-0.078734,-3.924394,-6.847694,38.552540,,,,,,
1466451343.03,0.027952,-0.016331,0.442663,-0.002413,1.347753,0.040437,0.027945,0.016330,-0.999476,0.071695,0.104290,0.267207,-3.654387,-6.845602,38.579441,,,,,,
1466451343.04,0.032495,-0.016605,0.442477,-0.017538,0.256344,0.004689,0.032484,0.016604,-0.999334,0.285448,0.090451,-0.169916,-3.654387,-6.845602,38.579441,,,,,,
1466451343.05,0.032830,-0.016488,0.442193,0.009611,-0.169453,0.007387,0.032819,0.016488,-0.999325,0.354983,0.048194,-0.086414,-4.359704,-6.871499,38.501503,,,,,,
1466451343.06,0.024038,-0.016210,0.442379,0.040531,-0.967973,0.023070,0.024033,0.016209,-0.999580,-0.015640,-0.021443,-0.196190,-4.359704,-6.871499,38.501503,,,,,,
,,,,,,,,,,,,,,,,29.720009,-95.398981,10.428038,-1.000000,-1.000000,1466451343.11
1466451343.07,0.020438,-0.015976,0.442422,0.013932,-0.118462,-0.001448,0.020434,0.015976,-0.999664,-0.050768,0.014984,0.138763,-4.033415,-6.856529,38.539715,,,,,,
1466451343.08,0.020527,-0.016064,0.442439,-0.009395,-0.036700,0.001209,0.020523,0.016063,-0.999660,-0.085694,-0.056881,-0.001057,-4.033415,-6.856529,38.539715,,,,,,
1466451343.09,0.019200,-0.015898,0.442475,0.018170,-0.120614,0.008150,0.019196,0.015897,-0.999689,-0.052948,0.032763,-0.002554,-4.033415,-6.856529,38.539715,,,,,,
1466451343.10,0.020043,-0.015884,0.442447,0.002546,0.142745,-0.002033,0.020039,0.015883,-0.999673,-0.011540,-0.007171,0.037133,-3.898487,-6.850724,38.554630,,,,,,
1466451343.11,0.020848,-0.015855,0.442377,0.002404,0.020652,-0.006590,0.020844,0.015855,-0.999657,0.039626,-0.004441,-0.022117,-3.898487,-6.850724,38.554630,,,,,,
1466451343.12,0.018936,-0.015834,0.442393,0.004199,-0.237382,0.000352,0.018933,0.015833,-0.999695,0.017658,-0.017329,-0.084670,-3.898487,-6.850724,38.554630,,,,,,
1466451343.13,0.016594,-0.015733,0.442395,0.010611,-0.218272,0.000239,0.016591,0.015733,-0.999739,-0.051656,0.012160,-0.003313,-3.898487,-6.850724,38.554630,,,,,,
1466451343.14,0.015707,-0.015609,0.442425,0.011918,-0.018666,0.003246,0.015704,0.015608,-0.999755,-0.146014,0.019380,0.035750,-3.836881,-6.841971,38.562363,,,,,,
1466451343.15,0.018376,-0.015535,0.442358,0.007057,0.338123,-0.006448,0.018373,0.015535,-0.999711,-0.089280,0.030669,0.087037,-3.836881,-6.841971,38.562363,,,,,,
1466451343.16,0.021709,-0.015456,0.442281,0.007038,0.320078,-0.008463,0.021705,0.015455,-0.999645,-0.047080,0.012377,0.003750,-3.836881,-6.841971,38.562363,,,,,,
1466451343.17,0.024797,-0.015430,0.442176,-0.001502,0.302032,-0.008359,0.024792,0.015430,-0.999574,0.017139,-0.019031,-0.014968,-3.943147,-6.827702,38.554176,,,,,,
1466451343.18,0.027212,-0.015469,0.442118,-0.000542,0.225570,-0.003620,0.027205,0.015468,-0.999510,-0.003447,-0.028499,-0.031770,-3.943147,-6.827702,38.554176,,,,,,
1466451343.19,0.029866,-0.015523,0.442070,-0.011106,0.290348,-0.005102,0.029858,0.015522,-0.999434,-0.020000,-0.036427,-0.014727,-3.943147,-6.827702,38.554176,,,,,,
1466451343.20,0.033215,-0.015640,0.442025,-0.008909,0.342378,-0.006490,0.033205,0.015640,-0.999326,-0.020372,-0.016113,-0.001574,-4.154229,-6.828725,38.531818,,,,,,
1466451343.21,0.036591,-0.015689,0.441973,-0.009978,0.340252,-0.005414,0.036578,0.015688,-0.999208,-0.015613,0.002897,-0.002669,-4.154229,-6.828725,38.531818,,,,,,
1466451343.22,0.039961,-0.015775,0.441928,-0.002534,0.332816,-0.005359,0.039946,0.015774,-0.999077,0.002382,-0.002224,-0.014717,-4.154229,-6.828725,38.531818,,,,,,
1466451343.23,0.045533,-0.015961,0.441713,-0.045607,0.726886,-0.051516,0.045512,0.015960,-0.998836,0.077855,-0.060745,0.015148,-4.643871,-6.841124,38.473675,,,,,,
1466451343.24,0.048447,-0.016275,0.441592,0.012813,-0.140797,0.012528,0.048421,0.016274,-0.998694,0.190135,0.047126,-0.040460,-4.643871,-6.841124,38.473675,,,,,,
1466451343.25,0.041643,-0.016271,0.441932,-0.022678,-0.447599,-0.000485,0.041625,0.016270,-0.999001,-0.159790,-0.097432,-0.320015,-4.967897,-6.861487,38.429546,,,,,,
1466451343.26,0.047900,-0.016431,0.441691,-0.018001,0.721467,-0.016328,0.047875,0.016430,-0.998718,0.126808,0.077091,0.341156,-4.967897,-6.861487,38.429546,,,,,,
1466451343.27,0.045750,-0.016708,0.441812,-0.008930,-0.498614,0.014751,0.045728,0.016708,-0.998814,-0.066358,-0.045791,-0.247951,-4.967897,-6.861487,38.429546,,,,,,
1466451343.29,0.046210,-0.016721,0.441761,-0.009128,0.153401,-0.013821,0.046187,0.016721,-0.998793,0.096864,-0.009442,0.067991,-4.947443,-6.867217,38.431164,,,,,,
1466451343.28,0.043881,-0.016513,0.441884,0.002398,0.034423,0.005032,0.043861,0.016513,-0.998901,0.018608,0.058622,0.037536,-4.947443,-6.867217,38.431164,,,,,,
1466451343.30,0.041787,-0.016562,0.441818,0.017563,-0.603737,0.012243,0.041769,0.016561,-0.998990,0.055811,0.018702,-0.140033,-4.947443,-6.867217,38.431164,,,,,,
1466451343.31,0.037014,-0.016493,0.441919,0.006153,-0.365881,0.008611,0.037000,0.016492,-0.999179,0.002001,-0.020490,-0.040738,-4.713188,-6.871887,38.459759,,,,,,
1466451343.32,0.035038,-0.016444,0.441950,-0.002138,-0.191730,0.003253,0.035026,0.016443,-0.999251,-0.010429,-0.002619,0.059417,-4.713188,-6.871887,38.459759,,,,,,
1466451343.33,0.031852,-0.016454,0.442002,0.004037,-0.358442,0.006433,0.031843,0.016454,-0.999357,-0.006498,-0.015675,-0.038622,-4.713188,-6.871887,38.459759,,,,,,
1466451343.34,0.028587,-0.016423,0.442058,0.004122,-0.294728,0.003905,0.028579,0.016422,-0.999457,-0.005920,-0.004077,-0.017175,-4.454385,-6.866904,38.491486,,,,,,
1466451343.35,0.026351,-0.016470,0.442083,-0.010685,-0.217206,0.002340,0.026344,0.016470,-0.999517,0.003914,-0.013235,0.005407,-4.454385,-6.866904,38.491486,,,,,,
1466451343.36,0.023388,-0.016497,0.442118,0.003016,-0.327643,0.004110,0.023382,0.016497,-0.999590,0.013941,-0.003954,-0.020612,-4.454385,-6.866904,38.491486,,,,,,
1466451343.38,0.017022,-0.016339,0.442219,0.002046,-0.254377,0.002585,0.017019,0.016338,-0.999722,-0.004690,0.006229,0.014126,-4.006680,-6.868456,38.540382,,,,,,
1466451343.37,0.019704,-0.016339,0.442182,-0.006566,-0.324460,0.006210,0.019700,0.016338,-0.999672,-0.005357,-0.005123,-0.023674,-4.006680,-6.868456,38.540382,,,,,,
1466451343.39,0.014367,-0.016361,0.442267,-0.004367,-0.269248,0.005866,0.014364,0.016360,-0.999763,-0.007986,-0.004321,-0.011895,-4.006680,-6.868456,38.540382,,,,,,
1466451343.40,0.011712,-0.016345,0.442299,0.004162,-0.264996,0.002654,0.011710,0.016344,-0.999798,0.000833,0.001020,-0.005817,-3.761911,-6.862023,38.566189,,,,,,
1466451343.41,0.008951,-0.015987,0.442332,-0.007535,-0.253314,0.003634,0.008950,0.015987,-0.999832,-0.004083,-0.012950,-0.018982,-3.557557,-6.862013,38.585575,,,,,,
1466451343.42,0.006498,-0.015988,0.442347,-0.001132,-0.243758,0.002516,0.006497,0.015987,-0.999851,0.006275,0.000752,-0.003704,-3.557557,-6.862013,38.585575,,,,,,
1466451343.43,0.004028,-0.016063,0.442378,-0.005398,-0.249065,0.002545,0.004028,0.016062,-0.999863,0.003663,-0.007136,-0.014984,-3.557557,-6.862013,38.585575,,,,,,
1466451343.44,0.001713,-0.016080,0.442408,-0.004311,-0.229956,0.003490,0.001713,0.016079,-0.999869,-0.006168,0.006367,-0.000512,-3.356645,-6.848069,38.606049,,,,,,
1466451343.45,-0.000830,-0.016265,0.442415,0.002146,-0.177929,0.001042,-0.000830,0.016265,-0.999867,-0.015451,0.004838,0.002843,-3.356645,-6.848069,38.606049,,,,,,
1466451343.46,-0.002159,-0.016286,0.442428,-0.004178,-0.124838,0.001767,-0.002158,0.016285,-0.999865,-0.017953,0.002025,0.005435,-3.356645,-6.848069,38.606049,,,,,,
1466451343.47,-0.003136,-0.016301,0.442433,0.000130,-0.087674,0.000474,-0.003136,0.016300,-0.999862,-0.018913,0.004116,0.002533,-3.022848,-6.859323,38.631622,,,,,,
1466451343.48,-0.003700,-0.016368,0.442436,-0.008339,-0.050504,-0.000832,-0.003699,0.016368,-0.999859,-0.010034,-0.004008,-0.004795,-3.022848,-6.859323,38.631622,,,,,,
1466451343.49,-0.004121,-0.016395,0.442430,-0.000893,-0.055816,-0.000792,-0.004120,0.016394,-0.999857,0.003998,0.000619,-0.005651,-3.022848,-6.859323,38.631622,,,,,,
1466451343.50,-0.004754,-0.016452,0.442427,-0.004103,-0.068556,-0.000715,-0.004753,0.016451,-0.999853,0.000191,-0.008105,-0.016901,-2.963354,-6.862479,38.635674,,,,,,
1466451343.51,-0.005310,-0.016387,0.442417,-0.006193,-0.037763,-0.000910,-0.005309,0.016386,-0.999852,-0.002411,-0.003202,-0.004085,-2.963354,-6.862479,38.635674,,,,,,
1466451343.52,-0.005596,-0.016388,0.442404,-0.001937,-0.042009,-0.001944,-0.005595,0.016387,-0.999850,0.003215,-0.001296,-0.009076,-2.963354,-6.862479,38.635674,,,,,,
1466451343.54,-0.006792,-0.016480,0.442421,0.005467,-0.077057,0.000412,-0.006791,0.016479,-0.999841,0.006944,0.003845,-0.010169,-2.889885,-6.863337,38.641083,,,,,,
1466451343.53,-0.006201,-0.016397,0.442408,-0.003047,-0.072809,0.001442,-0.006200,0.016396,-0.999846,0.002339,-0.000313,-0.013841,-2.889885,-6.863337,38.641083,,,,,,
1466451343.55,-0.007372,-0.016374,0.442434,0.005414,-0.121647,-0.000373,-0.007371,0.016373,-0.999839,0.016129,-0.001831,-0.015252,-2.889885,-6.863337,38.641083,,,,,,
1466451343.57,-0.009786,-0.016196,0.442484,0.004271,-0.181108,0.002128,-0.009785,0.016195,-0.999821,0.015324,-0.007452,-0.019542,-2.843777,-6.866852,38.643879,,,,,,
1466451343.56,-0.008429,-0.016443,0.442457,0.005358,-0.161999,0.002009,-0.008427,0.016443,-0.999829,0.018285,0.004447,-0.019610,-2.843777,-6.866852,38.643879,,,,,,
1466451343.58,-0.011587,-0.016061,0.442499,0.004257,-0.195967,0.000092,-0.011585,0.016060,-0.999804,0.007526,-0.001747,-0.008039,-2.843777,-6.866852,38.643879,,,,,,
1466451343.59,-0.013688,-0.015759,0.442524,0.003199,-0.188541,0.002174,-0.013686,0.015758,-0.999782,-0.004579,-0.010173,-0.015797,-2.843777,-6.866852,38.643879,,,,,,
1466451343.60,-0.015520,-0.015740,0.442537,0.000039,-0.160933,0.001997,-0.015518,0.015740,-0.999756,-0.004074,0.000496,0.002258,-2.843777,-6.866852,38.643879,,,,,,
1466451343.61,-0.017126,-0.015627,0.442549,0.003210,-0.183226,0.000012,-0.017124,0.015626,-0.999731,0.006244,-0.003847,-0.013346,-2.507020,-6.837914,38.672314,,,,,,
1466451343.62,-0.018910,-0.015586,0.442573,-0.001101,-0.223573,0.001325,-0.018907,0.015586,-0.999700,0.015092,-0.001044,-0.021800,-2.507020,-6.837914,38.672314,,,,,,
1466451343.63,-0.020954,-0.015582,0.442588,0.005266,-0.240563,0.001438,-0.020950,0.015582,-0.999659,0.015807,0.001127,-0.015798,-2.507020,-6.837914,38.672314,,,,,,
1466451343.64,-0.023363,-0.015399,0.442599,-0.001097,-0.221448,0.001312,-0.023358,0.015398,-0.999609,-0.002735,-0.007296,-0.013590,-2.376113,-6.831849,38.681652,,,,,,
1466451343.65,-0.025610,-0.015442,0.442603,-0.003158,-0.166236,0.000963,-0.025604,0.015441,-0.999553,-0.015320,0.001618,0.005733,-2.203998,-6.824514,38.693134,,,,,,
1466451343.66,-0.027521,-0.015303,0.442618,-0.001025,-0.164115,0.000952,-0.027514,0.015302,-0.999504,-0.009946,-0.006605,-0.004631,-2.203998,-6.824514,38.693134,,,,,,
1466451343.67,-0.029240,-0.015276,0.442626,0.003204,-0.188538,0.001109,-0.029233,0.015276,-0.999456,0.005139,0.000578,-0.006480,-2.043198,-6.820752,38.702621,,,,,,
1466451343.68,-0.031092,-0.015142,0.442647,0.003177,-0.210835,0.001249,-0.031084,0.015142,-0.999402,0.010210,-0.004873,-0.020465,-2.043198,-6.820752,38.702621,,,,,,
1466451343.69,-0.033039,-0.015102,0.442663,-0.000030,-0.219329,0.002364,-0.033030,0.015102,-0.999340,0.010828,-0.000865,-0.010990,-2.043198,-6.820752,38.702621,,,,,,
1466451343.70,-0.035266,-0.015004,0.442680,0.004199,-0.243752,0.002521,-0.035254,0.015003,-0.999266,0.008460,-0.002873,-0.013979,-1.905096,-6.814472,38.710770,,,,,,
1466451343.71,-0.037764,-0.014869,0.442705,0.001012,-0.238442,0.002485,-0.037751,0.014869,-0.999177,-0.001571,-0.004981,-0.012405,-1.905096,-6.814472,38.710770,,,,,,
1466451343.72,-0.040176,-0.014853,0.442716,0.004240,-0.212959,0.001264,-0.040161,0.014852,-0.999083,-0.007111,0.001185,-0.003084,-1.743710,-6.809017,38.719334,,,,,,
1466451343.73,-0.042357,-0.014720,0.442717,0.000033,-0.173669,-0.000051,-0.042340,0.014720,-0.998995,-0.013400,-0.005946,-0.005919,-1.743710,-6.809017,38.719334,,,,,,
1466451343.75,-0.045558,-0.014594,0.442739,0.000096,-0.120588,0.001745,-0.045537,0.014593,-0.998856,-0.008586,-0.005911,-0.007888,-1.743710,-6.809017,38.719334,,,,,,
1466451343.74,-0.044118,-0.014713,0.442725,-0.003116,-0.134388,0.001828,-0.044099,0.014712,-0.998919,-0.012770,-0.000567,0.002108,-1.743710,-6.809017,38.719334,,,,,,
1466451343.76,-0.046880,-0.014524,0.442745,-0.006282,-0.115273,0.000641,-0.046858,0.014523,-0.998796,-0.007432,-0.005689,-0.009184,-1.401057,-6.797634,38.735249,,,,,,
1466451343.77,-0.048050,-0.014439,0.442750,0.001171,-0.117398,-0.000403,-0.048026,0.014439,-0.998742,-0.001489,-0.004917,-0.008933,-1.401057,-6.797634,38.735249,,,,,,
1466451343.78,-0.049226,-0.014474,0.442754,-0.009492,-0.128013,0.000717,-0.049201,0.014473,-0.998684,0.003531,-0.001976,-0.011478,-1.294131,-6.790272,38.740257,,,,,,
1466451343.79,-0.050567,-0.014462,0.442759,-0.003100,-0.125893,0.000710,-0.050540,0.014461,-0.998617,-0.000577,-0.001644,-0.011270,-1.294131,-6.790272,38.740257,,,,,,
1466451343.80,-0.051899,-0.014452,0.442767,-0.006289,-0.121645,0.000680,-0.051870,0.014452,-0.998549,-0.003962,-0.002809,-0.010286,-1.294131,-6.790272,38.740257,,,,,,
1466451343.81,-0.053204,-0.014537,0.442774,-0.002053,-0.139697,0.000798,-0.053174,0.014537,-0.998479,0.002881,0.003072,-0.005320,-1.099808,-6.787433,38.746758,,,,,,
1466451343.82,-0.054716,-0.014474,0.442796,-0.002105,-0.180048,0.002115,-0.054683,0.014473,-0.998399,0.009487,-0.004128,-0.018340,-1.099808,-6.787433,38.746758,,,,,,
1466451343.83,-0.056301,-0.014561,0.442816,-0.001086,-0.218267,0.001292,-0.056265,0.014560,-0.998310,0.011664,-0.000217,-0.018383,-1.099808,-6.787433,38.746758,,,,,,
1466451343.84,-0.058617,-0.014572,0.442822,0.007411,-0.236319,0.000349,-0.058578,0.014571,-0.998177,0.002715,0.002701,-0.004417,-1.099808,-6.787433,38.746758,,,,,,
1466451343.85,-0.061058,-0.014543,0.442835,-0.001108,-0.235257,0.001398,-0.061013,0.014542,-0.998031,-0.004539,-0.000565,-0.009827,-0.839857,-6.791888,38.752487,,,,,,
1466451343.87,-0.066036,-0.014436,0.442867,0.002103,-0.222518,0.001321,-0.065981,0.014436,-0.997716,-0.008406,-0.002519,-0.005991,-0.839857,-6.791888,38.752487,,,,,,
1466451343.86,-0.063601,-0.014508,0.442850,0.004211,-0.240566,0.000372,-0.063552,0.014508,-0.997873,-0.004731,-0.000348,-0.006506,-0.839857,-6.791888,38.752487,,,,,,
1466451343.88,-0.068447,-0.014358,0.442880,0.002097,-0.227828,0.001355,-0.068386,0.014358,-0.997556,-0.007267,-0.002487,-0.009631,-0.646851,-6.789347,38.756634,,,,,,
1466451343.89,-0.070881,-0.014352,0.442902,-0.000034,-0.228890,0.001359,-0.070814,0.014351,-0.997386,-0.005831,-0.000389,-0.002965,-0.646851,-6.789347,38.756634,,,,,,
1466451343.90,-0.073199,-0.014333,0.442906,-0.001077,-0.211901,0.001252,-0.073126,0.014332,-0.997220,-0.008676,-0.001713,-0.006122,-0.646851,-6.789347,38.756634,,,,,,
1466451343.91,-0.075527,-0.014365,0.442919,0.001066,-0.199165,0.002238,-0.075448,0.014365,-0.997046,-0.013816,0.001611,-0.001504,-5.698312,-4.911217,34.106384,,,,,,
1466451343.92,-0.077545,-0.014382,0.442934,-0.005290,-0.171560,0.003123,-0.077459,0.014382,-0.996892,-0.011942,-0.000771,-0.003978,-5.698312,-4.911217,34.106384,,,,,,
1466451343.93,-0.079390,-0.014368,0.442941,-0.001032,-0.175804,0.001025,-0.079299,0.014367,-0.996747,-0.005861,-0.001748,-0.007662,-5.550162,-4.912651,34.130596,,,,,,
1466451343.94,-0.081126,-0.014403,0.442954,-0.002097,-0.174744,0.002082,-0.081029,0.014403,-0.996608,0.000523,0.000246,-0.008687,-5.550162,-4.912651,34.130596,,,,,,
1466451343.95,-0.082870,-0.014368,0.442964,0.007466,-0.193855,0.000083,-0.082766,0.014368,-0.996465,0.006075,0.000632,-0.015375,-5.550162,-4.912651,34.130596,,,,,,
1466451343.96,-0.084912,-0.014414,0.442981,0.001051,-0.212967,0.001260,-0.084802,0.014413,-0.996294,0.000649,0.001898,-0.009520,-5.428010,-4.913194,34.150162,,,,,,
1466451343.97,-0.087159,-0.014369,0.442994,0.001054,-0.210844,0.001247,-0.087040,0.014369,-0.996101,-0.005734,-0.001185,-0.007469,-5.428010,-4.913194,34.150162,,,,,,
1466451343.98,-0.089571,-0.014322,0.443002,0.001065,-0.203411,0.000136,-0.089442,0.014322,-0.995889,-0.017385,-0.001642,-0.002005,-5.428010,-4.913194,34.150162,,,,,,
1466451343.99,-0.091997,-0.014324,0.443004,0.000053,-0.159883,0.000927,-0.091858,0.014324,-0.995669,-0.034287,0.000569,0.008502,-5.428010,-4.913194,34.150162,,,,,,
1466451344.00,-0.093214,-0.014319,0.443011,-0.002014,-0.109977,0.000611,-0.093069,0.014318,-0.995557,-0.040354,-0.005544,0.000028,-5.139595,-4.910067,34.195202,,,,,,
1466451344.02,-0.094527,-0.014395,0.443005,-0.001914,-0.032463,-0.000939,-0.094376,0.014394,-0.995432,-0.046355,-0.001608,0.004801,-5.139595,-4.910067,34.195202,,,,,,
1466451344.01,-0.094064,-0.014376,0.443010,-0.005168,-0.078122,0.000409,-0.093916,0.014376,-0.995476,-0.043398,0.000944,0.002816,-5.139595,-4.910067,34.195202,,,,,,
1466451344.03,-0.095281,-0.014405,0.442968,-0.003975,0.020626,-0.002339,-0.095127,0.014404,-0.995361,-0.042233,-0.001129,0.001831,-4.970116,-4.912493,34.219898,,,,,,
1466451344.05,-0.094078,-0.014438,0.442886,-0.002825,0.085402,-0.004873,-0.093930,0.014438,-0.995474,-0.042194,-0.001636,0.003470,-4.970116,-4.912493,34.219898,,,,,,
1466451344.04,-0.094836,-0.014419,0.442930,-0.001802,0.051423,-0.004658,-0.094684,0.014419,-0.995403,-0.043118,-0.000015,-0.000706,-4.970116,-4.912493,34.219898,,,,,,
1466451344.06,-0.093039,-0.014478,0.442837,-0.004921,0.111948,-0.005041,-0.092895,0.014478,-0.995571,-0.047882,-0.004590,-0.000432,-4.959208,-4.913928,34.221275,,,,,,
1466451344.07,-0.092570,-0.014510,0.442778,-0.002763,0.151229,-0.004225,-0.092428,0.014510,-0.995614,-0.045924,-0.000395,0.005776,-4.959208,-4.913928,34.221275,,,,,,
1466451344.08,-0.090739,-0.014544,0.442731,-0.004841,0.192641,-0.004486,-0.090605,0.014544,-0.995781,-0.034822,-0.002245,-0.001564,-5.020322,-4.916658,34.211971,,,,,,
1466451344.09,-0.088797,-0.014582,0.442677,-0.005911,0.188394,-0.004461,-0.088671,0.014582,-0.995954,-0.020094,-0.003870,-0.013430,-5.020322,-4.916658,34.211971,,,,,,
1466451344.10,-0.087285,-0.014649,0.442634,-0.007039,0.139549,-0.003091,-0.087165,0.014649,-0.996086,-0.012490,-0.000626,-0.019218,-5.020322,-4.916658,34.211971,,,,,,
1466451344.11,-0.086515,-0.014599,0.442622,-0.004960,0.103436,0.000331,-0.086398,0.014598,-0.996154,-0.017468,-0.004573,-0.011262,-5.216263,-4.924070,34.181580,,,,,,
1466451344.12,-0.085300,-0.014664,0.442613,-0.005992,0.129981,0.000163,-0.085188,0.014663,-0.996257,0.000593,-0.002212,-0.003300,-5.216263,-4.924070,34.181580,,,,,,
1466451344.13,-0.084070,-0.014733,0.442599,-0.007078,0.110872,-0.000783,-0.083961,0.014733,-0.996360,0.014412,-0.002679,-0.018914,-5.216263,-4.924070,34.181580,,,,,,
1466451344.14,-0.083412,-0.014783,0.442590,-0.003955,0.052474,-0.001478,-0.083306,0.014782,-0.996414,0.018136,0.002750,-0.018219,-5.216263,-4.924070,34.181580,,,,,,
1466451344.15,-0.082691,-0.014754,0.442589,-0.003982,0.032299,-0.000287,-0.082588,0.014753,-0.996475,0.014839,-0.002729,-0.015046,-5.348473,-4.928926,34.160442,,,,,,
1466451344.16,-0.082676,-0.014778,0.442586,-0.001905,-0.009112,-0.000025,-0.082573,0.014777,-0.996476,0.015007,-0.002753,-0.017166,-5.348473,-4.928926,34.160442,,,,,,
1466451344.17,-0.082990,-0.014787,0.442586,-0.000873,-0.035658,0.000143,-0.082886,0.014786,-0.996449,0.017364,-0.002030,-0.016841,-5.348473,-4.928926,34.160442,,,,,,
1466451344.18,-0.083272,-0.014757,0.442579,0.002336,-0.027159,-0.002036,-0.083167,0.014757,-0.996426,0.009788,-0.002855,-0.012820,-5.373609,-4.928789,34.156517,,,,,,
1466451344.20,-0.084799,-0.014761,0.442577,0.000078,-0.128030,-0.000342,-0.084688,0.014760,-0.996298,0.013323,-0.000677,-0.018961,-5.373609,-4.928789,34.156517,,,,,,
1466451344.19,-0.083593,-0.014789,0.442578,0.002254,-0.090868,-0.000573,-0.083486,0.014788,-0.996399,0.017705,0.001798,-0.020385,-5.373609,-4.928789,34.156517,,,,,,
1466451344.21,-0.086371,-0.014723,0.442579,0.005355,-0.165195,-0.000103,-0.086255,0.014723,-0.996164,0.009137,0.000979,-0.015142,-5.301034,-4.928289,34.167927,,,,,,
1466451344.22,-0.088162,-0.014703,0.442596,0.001068,-0.184312,0.002141,-0.088038,0.014703,-0.996009,0.005671,-0.001229,-0.015664,-5.301034,-4.928289,34.167927,,,,,,
1466451344.23,-0.090198,-0.014621,0.442622,0.006370,-0.200245,0.003311,-0.090066,0.014620,-0.995828,-0.001456,-0.001452,-0.008230,-5.186167,-4.926196,34.185852,,,,,,
1466451344.24,-0.092078,-0.014593,0.442663,0.002134,-0.182192,0.003193,-0.091938,0.014592,-0.995658,-0.008861,-0.001500,-0.005197,-5.186167,-4.926196,34.185852,,,,,,
1466451344.25,-0.093858,-0.014590,0.442695,0.001074,-0.180065,0.002115,-0.093710,0.014590,-0.995493,-0.005961,-0.002062,-0.007422,-5.186167,-4.926196,34.185852,,,,,,
1466451344.26,-0.095694,-0.014586,0.442716,0.001076,-0.177941,0.002101,-0.095538,0.014585,-0.995319,-0.001355,0.000292,-0.007306,-5.186167,-4.926196,34.185852,,,,,,
1466451344.27,-0.097472,-0.014520,0.442736,0.000028,-0.165200,0.002020,-0.097308,0.014520,-0.995148,-0.004270,-0.002557,-0.008102,-4.928977,-4.921259,34.224590,,,,,,
1466451344.28,-0.099177,-0.014470,0.442743,0.000038,-0.158827,0.000916,-0.099004,0.014469,-0.994982,-0.004877,-0.002110,-0.007811,-4.928977,-4.921259,34.224590,,,,,,
1466451344.29,-0.100898,-0.014430,0.442766,-0.002099,-0.162017,0.003063,-0.100717,0.014429,-0.994810,-0.004401,-0.002222,-0.009416,-4.928977,-4.921259,34.224590,,,,,,
1466451344.30,-0.102521,-0.014418,0.442787,0.001095,-0.164139,0.002015,-0.102331,0.014417,-0.994646,0.001501,-0.000242,-0.008650,-4.809812,-4.917151,34.242134,,,,,,
1466451344.31,-0.104077,-0.014403,0.442799,0.004287,-0.167323,0.000973,-0.103879,0.014402,-0.994486,0.002881,-0.000090,-0.008413,-4.809812,-4.917151,34.242134,,,,,,
1466451344.32,-0.105694,-0.014404,0.442821,0.000029,-0.165200,0.002020,-0.105487,0.014403,-0.994316,0.001620,0.000825,-0.010002,-4.809812,-4.917151,34.242134,,,,,,
1466451344.34,-0.108694,-0.014336,0.442859,0.000071,-0.130164,0.002865,-0.108469,0.014336,-0.993997,-0.001746,-0.002235,-0.005805,-4.586855,-4.914297,34.273117,,,,,,
1466451344.33,-0.107301,-0.014395,0.442835,0.000047,-0.152456,0.000876,-0.107084,0.014395,-0.994146,-0.001314,-0.000356,-0.007029,-4.586855,-4.914297,34.273117,,,,,,
1466451344.35,-0.109910,-0.014285,0.442881,0.001167,-0.106802,0.001655,-0.109678,0.014285,-0.993865,-0.004092,-0.002093,-0.005876,-4.586855,-4.914297,34.273117,,,,,,
1466451344.36,-0.110970,-0.014233,0.442911,0.000121,-0.088758,0.003670,-0.110731,0.014233,-0.993748,-0.006548,-0.002194,-0.007671,-4.484171,-4.911711,34.287075,,,,,,
1466451344.37,-0.111774,-0.014197,0.442949,0.004447,-0.035671,0.003341,-0.111530,0.014197,-0.993660,-0.012402,-0.001105,0.004814,-4.484171,-4.911711,34.287075,,,,,,
1466451344.38,-0.111934,-0.014179,0.442975,-0.000804,0.021667,0.002976,-0.111690,0.014178,-0.993642,-0.013234,-0.000964,0.002889,-4.484171,-4.911711,34.287075,,,,,,
1466451344.39,-0.111813,-0.014138,0.443001,0.001317,0.015295,0.003018,-0.111569,0.014137,-0.993656,-0.004001,-0.001076,-0.009533,-4.373455,-4.905469,34.302261,,,,,,
1466451344.40,-0.111634,-0.014111,0.443009,-0.001869,0.018488,0.000866,-0.111391,0.014110,-0.993676,-0.000349,-0.001644,-0.006797,-4.373455,-4.905469,34.302261,,,,,,
1466451344.41,-0.111482,-0.014074,0.443018,0.001323,0.014242,-0.000169,-0.111240,0.014073,-0.993694,-0.000500,-0.001592,-0.010106,-4.373455,-4.905469,34.302261,,,,,,
1466451344.43,-0.111368,-0.014002,0.443034,-0.000834,-0.005934,0.001020,-0.111127,0.014001,-0.993708,0.000928,-0.003427,-0.016348,-4.383880,-4.902919,34.301300,,,,,,
1466451344.42,-0.111384,-0.014082,0.443022,-0.000816,0.008931,0.000927,-0.111143,0.014081,-0.993705,-0.001207,0.000613,-0.009439,-4.383880,-4.902919,34.301300,,,,,,
1466451344.44,-0.111415,-0.014053,0.443048,-0.001916,-0.019736,0.001106,-0.111174,0.014052,-0.993702,0.004851,0.001100,-0.010403,-4.383880,-4.902919,34.301300,,,,,,
1466451344.45,-0.111634,-0.014077,0.443048,-0.004062,-0.034597,0.000132,-0.111391,0.014077,-0.993677,0.004351,-0.000161,-0.010550,-4.391510,-4.900642,34.300652,,,,,,
1466451344.47,-0.112146,-0.014087,0.443060,0.000215,-0.020795,0.000050,-0.111900,0.014087,-0.993620,0.000328,-0.000919,-0.005694,-4.391510,-4.900642,34.300652,,,,,,
1466451344.46,-0.111897,-0.014108,0.443053,-0.002999,-0.034599,0.001198,-0.111653,0.014108,-0.993647,0.003727,0.000403,-0.008321,-4.391510,-4.900642,34.300652,,,,,,
1466451344.48,-0.112207,-0.014029,0.443070,0.002369,0.000437,0.000983,-0.111960,0.014028,-0.993614,-0.003823,-0.002035,-0.004418,-4.375044,-4.902474,34.302490,,,,,,
1466451344.49,-0.112290,-0.014089,0.443094,-0.001904,-0.007000,0.003155,-0.112043,0.014089,-0.993603,-0.003405,0.002360,-0.007282,-4.375044,-4.902474,34.302490,,,,,,
1466451344.50,-0.113012,-0.014075,0.443121,-0.004162,-0.109993,0.003798,-0.112760,0.014074,-0.993523,0.003934,-0.003317,-0.025063,-4.375044,-4.902474,34.302490,,,,,,
1466451344.51,-0.113794,-0.014099,0.443151,0.000152,-0.067519,0.002472,-0.113537,0.014099,-0.993434,0.003049,0.000611,-0.002141,-4.337081,-4.900791,34.307552,,,,,,
1466451344.52,-0.114249,-0.014015,0.443176,-0.007255,-0.028236,0.004347,-0.113989,0.014015,-0.993383,-0.006387,-0.007423,-0.004908,-4.337081,-4.900791,34.307552,,,,,,
1466451344.53,-0.114563,-0.014062,0.443201,-0.001940,-0.036729,0.003341,-0.114301,0.014062,-0.993347,0.000867,0.000877,-0.011078,-4.337081,-4.900791,34.307552,,,,,,
1466451344.55,-0.115465,-0.014238,0.443208,-0.000867,-0.034598,0.000135,-0.115197,0.014238,-0.993241,-0.005851,0.004286,-0.002975,-4.294841,-4.898331,34.313217,,,,,,
1466451344.54,-0.114984,-0.014149,0.443209,-0.004069,-0.039908,0.001230,-0.114720,0.014148,-0.993297,-0.001796,0.002453,-0.009465,-4.294841,-4.898331,34.313217,,,,,,
1466451344.56,-0.115622,-0.014107,0.443205,-0.006183,-0.029286,0.000097,-0.115353,0.014107,-0.993224,0.004727,-0.009224,-0.015946,-4.294841,-4.898331,34.313217,,,,,,
1466451344.57,-0.115929,-0.014155,0.443201,-0.000897,-0.060080,0.000295,-0.115658,0.014155,-0.993188,0.009823,0.000890,-0.014655,-4.247907,-4.901192,34.318649,,,,,,
1466451344.58,-0.116364,-0.014198,0.443208,-0.005173,-0.071759,0.001428,-0.116089,0.014197,-0.993137,0.012269,0.000177,-0.014004,-4.247907,-4.901192,34.318649,,,,,,
1466451344.59,-0.117043,-0.014240,0.443226,0.001212,-0.072826,0.002506,-0.116764,0.014239,-0.993058,0.004261,0.002927,-0.008865,-4.247907,-4.901192,34.318649,,,,,,
1466451344.60,-0.117674,-0.014150,0.443250,0.003372,-0.046285,0.003406,-0.117390,0.014150,-0.992985,-0.001674,-0.001928,-0.002361,-4.222518,-4.904199,34.321354,,,,,,
1466451344.61,-0.118028,-0.014097,0.443277,0.000202,-0.029292,0.002232,-0.117743,0.014097,-0.992944,-0.004129,-0.002836,-0.005210,-4.222518,-4.904199,34.321354,,,,,,
1466451344.62,-0.118339,-0.014088,0.443285,-0.004092,-0.059017,0.001349,-0.118051,0.014088,-0.992908,0.006815,-0.003467,-0.015332,-4.222518,-4.904199,34.321354,,,,,,
1466451344.64,-0.119934,-0.014050,0.443322,-0.002010,-0.097241,0.001591,-0.119635,0.014050,-0.992719,0.001776,-0.002560,-0.011295,-4.154984,-4.899890,34.330208,,,,,,
1466451344.63,-0.119036,-0.014083,0.443303,0.001188,-0.094058,0.001574,-0.118744,0.014082,-0.992825,0.008697,-0.000395,-0.016223,-4.154984,-4.899890,34.330208,,,,,,
1466451344.65,-0.121025,-0.014087,0.443346,0.002224,-0.117418,0.001722,-0.120718,0.014087,-0.992587,0.001257,0.002377,-0.010694,-4.154984,-4.899890,34.330208,,,,,,
1466451344.66,-0.122163,-0.014081,0.443358,-0.000971,-0.119536,0.000668,-0.121848,0.014080,-0.992449,0.002432,-0.000271,-0.008299,-4.100356,-4.898316,34.337002,,,,,,
1466451344.67,-0.123423,-0.014145,0.443375,0.005410,-0.123790,0.001765,-0.123097,0.014144,-0.992294,-0.000407,0.005555,-0.003480,-4.100356,-4.898316,34.337002,,,,,,
1466451344.68,-0.124578,-0.013925,0.443388,-0.004143,-0.102546,0.000558,-0.124244,0.013924,-0.992154,-0.005181,-0.013253,-0.013827,-4.023974,-4.899049,34.345936,,,,,,
1466451344.69,-0.125641,-0.013971,0.443395,0.002282,-0.071762,0.001436,-0.125298,0.013971,-0.992021,-0.013801,0.002875,0.001588,-4.023974,-4.899049,34.345936,,,,,,
1466451344.70,-0.126208,-0.014032,0.443394,-0.006144,0.001505,0.000968,-0.125860,0.014032,-0.991949,-0.020075,0.000388,0.006765,-4.023974,-4.899049,34.345936,,,,,,
1466451344.71,-0.126084,-0.014053,0.443371,-0.002870,0.062029,-0.001538,-0.125738,0.014053,-0.991964,-0.020212,-0.000091,0.006216,-3.885168,-4.897124,34.362186,,,,,,
1466451344.72,-0.125457,-0.014081,0.443326,-0.006008,0.103446,-0.003929,-0.125116,0.014081,-0.992042,-0.016516,-0.001828,0.001075,-3.885168,-4.897124,34.362186,,,,,,
1466451344.73,-0.124184,-0.014054,0.443276,-0.008048,0.175645,-0.003320,-0.123853,0.014054,-0.992201,-0.015933,-0.005143,0.004667,-3.885168,-4.897124,34.362186,,,,,,
1466451344.74,-0.122213,-0.014091,0.443211,-0.010074,0.256343,-0.004892,-0.121897,0.014091,-0.992443,-0.021566,-0.003303,0.008953,-3.910694,-4.899329,34.358978,,,,,,
1466451344.75,-0.119473,-0.014212,0.443115,-0.013147,0.349786,-0.007610,-0.119177,0.014211,-0.992771,-0.030923,-0.000051,0.014988,-3.910694,-4.899329,34.358978,,,,,,
1466451344.76,-0.116066,-0.014378,0.443008,-0.015160,0.442160,-0.008192,-0.115794,0.014378,-0.993169,-0.045675,0.002025,0.015890,-3.910694,-4.899329,34.358978,,,,,,
1466451344.77,-0.111732,-0.014488,0.442871,-0.018186,0.572763,-0.011143,-0.111487,0.014488,-0.993660,-0.062325,-0.002937,0.022835,-4.231956,-4.911913,34.319092,,,,,,
1466451344.78,-0.104614,-0.014696,0.442717,-0.023269,0.761772,-0.014462,-0.104412,0.014695,-0.994426,-0.081456,-0.006654,0.035441,-4.231956,-4.911913,34.319092,,,,,,
1466451344.79,-0.094927,-0.014981,0.442509,-0.032485,1.048473,-0.019463,-0.094773,0.014980,-0.995386,-0.121993,-0.005779,0.058435,-4.231956,-4.911913,34.319092,,,,,,
1466451344.80,-0.081513,-0.015365,0.442234,-0.042632,1.442415,-0.025137,-0.081413,0.015364,-0.996562,-0.163353,-0.005629,0.086497,-4.623588,-4.924952,34.266651,,,,,,
1466451344.81,-0.063956,-0.015838,0.441895,-0.051685,1.859717,-0.030956,-0.063905,0.015838,-0.997830,-0.172195,-0.001189,0.100507,-4.623588,-4.924952,34.266651,,,,,,
1466451344.82,-0.042600,-0.016422,0.441504,-0.062934,2.221809,-0.037496,-0.042582,0.016421,-0.998958,-0.157446,-0.002383,0.096126,-4.623588,-4.924952,34.266651,,,,,,
1466451344.83,-0.018149,-0.017105,0.441073,-0.072138,2.519128,-0.042564,-0.018146,0.017104,-0.999689,-0.135510,-0.003219,0.086679,-6.733325,-4.992862,33.905308,,,,,,
1466451344.84,0.009094,-0.017854,0.440609,-0.077111,2.795205,-0.046429,0.009092,0.017853,-0.999799,-0.121092,0.003525,0.087461,-6.733325,-4.992862,33.905308,,,,,,
1466451344.85,0.039268,-0.018703,0.440135,-0.085249,3.094643,-0.050444,0.039251,0.018702,-0.999054,-0.127294,0.000799,0.097199,-6.733325,-4.992862,33.905308,,,,,,
1466451344.86,0.072293,-0.019625,0.439642,-0.089161,3.364355,-0.056397,0.072216,0.019624,-0.997196,-0.105572,0.004470,0.097950,-8.472216,-5.048254,33.504818,,,,,,
1466451344.87,0.107303,-0.020599,0.439165,-0.094262,3.543799,-0.056463,0.107075,0.020598,-0.994038,-0.081837,-0.000349,0.082783,-8.472216,-5.048254,33.504818,,,,,,
1466451344.88,0.143587,-0.021603,0.438690,-0.095180,3.655298,-0.060357,0.143061,0.021601,-0.989478,-0.049326,-0.001185,0.066093,-8.472216,-5.048254,33.504818,,,,,,
1466451344.89,0.180361,-0.022636,0.438235,-0.096221,3.674411,-0.060478,0.179338,0.022634,-0.983527,-0.001558,-0.001806,0.047507,-8.472216,-5.048254,33.504818,,,,,,
1466451344.91,0.252650,-0.024769,0.437429,-0.092061,3.591594,-0.062083,0.249894,0.024767,-0.967956,-0.007249,-0.007539,0.025436,-12.877042,-5.189778,32.048153,,,,,,
1466451344.90,0.216741,-0.023707,0.437820,-0.095216,3.623449,-0.062286,0.214988,0.023705,-0.976329,0.006707,-0.001626,0.024989,-12.877042,-5.189778,32.048153,,,,,,
1466451344.92,0.289053,-0.025860,0.437101,-0.097327,3.639374,-0.061323,0.284949,0.025857,-0.958194,0.007851,-0.000558,0.038165,-15.178778,-5.267488,31.011200,,,,,,
1466451344.93,0.323753,-0.026966,0.436836,-0.097621,3.412137,-0.055641,0.318011,0.026963,-0.947703,0.051022,-0.005082,-0.008809,-15.178778,-5.267488,31.011200,,,,,,
1466451344.94,0.357084,-0.027971,0.436624,-0.089217,3.322938,-0.054009,0.349407,0.027968,-0.936553,0.037586,-0.001051,-0.004700,-15.178778,-5.267488,31.011200,,,,,,
1466451344.95,0.389902,-0.029011,0.436476,-0.089306,3.254977,-0.051454,0.379938,0.029007,-0.924557,0.044028,0.006470,0.010617,-19.354401,-5.420235,28.563339,,,,,,
1466451344.96,0.420410,-0.029972,0.436360,-0.081146,2.971469,-0.048603,0.407952,0.029967,-0.912512,0.086891,-0.002395,-0.038920,-19.354401,-5.420235,28.563339,,,,,,
1466451344.97,0.448301,-0.030833,0.436260,-0.070796,2.737861,-0.044999,0.433229,0.030828,-0.900756,0.101210,0.005625,-0.038498,-19.354401,-5.420235,28.563339,,,,,,
1466451344.98,0.473617,-0.031624,0.436182,-0.065837,2.452225,-0.040009,0.455880,0.031618,-0.889479,0.117454,-0.000292,-0.056276,-21.117641,-5.489446,27.271732,,,,,,
1466451345.00,0.511528,-0.032829,0.436097,-0.042465,1.575141,-0.025969,0.489246,0.032823,-0.871528,0.159176,0.003004,-0.102731,-21.117641,-5.489446,27.271732,,,,,,
1466451344.99,0.494855,-0.032295,0.436124,-0.053633,1.998823,-0.035024,0.474657,0.032289,-0.879579,0.165526,0.000105,-0.101073,-21.117641,-5.489446,27.271732,,,,,,
1466451345.01,0.525115,-0.033269,0.436071,-0.036434,1.291633,-0.023121,0.501035,0.033263,-0.864788,0.128131,-0.005080,-0.084157,-21.117641,-5.489446,27.271732,,,,,,
1466451345.03,0.548010,-0.034014,0.436053,-0.031265,1.171641,-0.020234,0.520688,0.034008,-0.853069,-0.012174,-0.003994,-0.010532,-23.502728,-5.587337,25.223793,,,,,,
1466451345.02,0.536578,-0.033653,0.436057,-0.031337,1.114304,-0.019875,0.510909,0.033646,-0.858976,0.064668,-0.001679,-0.058230,-23.502728,-5.587337,25.223793,,,,,,
1466451345.04,0.561763,-0.034444,0.436060,-0.038354,1.460458,-0.023117,0.532363,0.034437,-0.845815,-0.102843,-0.001692,0.046957,-24.124640,-5.615240,24.623302,,,,,,
1466451345.05,0.579546,-0.034986,0.436065,-0.049514,1.891570,-0.031154,0.547309,0.034979,-0.836199,-0.168479,-0.005636,0.081698,-24.124640,-5.615240,24.623302,,,,,,
1466451345.06,0.602443,-0.035684,0.436077,-0.061604,2.430987,-0.039872,0.566297,0.035677,-0.823429,-0.217069,-0.003343,0.112110,-24.124640,-5.615240,24.623302,,,,,,
1466451345.07,0.630716,-0.036542,0.436107,-0.073748,2.942802,-0.048420,0.589329,0.036534,-0.807067,-0.206074,-0.003682,0.124373,-25.686550,-5.683114,22.972584,,,,,,
1466451345.08,0.662860,-0.037534,0.436154,-0.085003,3.295347,-0.058093,0.614940,0.037525,-0.787681,-0.164943,-0.006443,0.096595,-25.686550,-5.683114,22.972584,,,,,,
1466451345.09,0.698865,-0.038623,0.436230,-0.090856,3.716894,-0.063936,0.642870,0.038613,-0.765002,-0.172823,-0.003472,0.110751,-25.686550,-5.683114,22.972584,,,,,,
1466451345.10,0.739680,-0.039876,0.436390,-0.108348,4.193667,-0.072266,0.673516,0.039865,-0.738097,-0.177132,-0.006158,0.131682,-27.020536,-5.744405,21.371210,,,,,,
1466451345.12,0.834359,-0.042760,0.436991,-0.130697,5.033594,-0.088200,0.740189,0.042747,-0.671039,-0.140488,-0.002189,0.138125,-27.020536,-5.744405,21.371210,,,,,,
1466451345.11,0.784875,-0.041257,0.436638,-0.119507,4.627962,-0.079258,0.706135,0.041245,-0.706875,-0.174885,-0.004563,0.135723,-27.020536,-5.744405,21.371210,,,,,,
1466451345.13,0.887130,-0.044319,0.437428,-0.136665,5.369126,-0.090311,0.774501,0.044304,-0.631020,-0.130610,-0.001244,0.143150,-30.251511,-5.912466,16.423307,,,,,,
1466451345.14,0.943745,-0.045989,0.437977,-0.148950,5.749279,-0.100158,0.808905,0.045973,-0.586139,-0.108588,-0.003951,0.148547,-30.251511,-5.912466,16.423307,,,,,,
1466451345.15,1.003901,-0.047736,0.438679,-0.157021,6.095448,-0.108724,0.842611,0.047718,-0.536404,-0.096151,-0.003681,0.163739,-30.251511,-5.912466,16.423307,,,,,,
1466451345.16,1.067275,-0.049511,0.439492,-0.163004,6.415060,-0.112863,0.874816,0.049491,-0.481921,-0.079314,0.001077,0.168521,-30.251511,-5.912466,16.423307,,,,,,
1466451345.18,1.200220,-0.053030,0.441742,-0.172431,6.542475,-0.111543,0.930809,0.053006,-0.361643,0.106087,-0.000134,0.099146,-33.196049,-6.117722,8.968388,,,,,,
1466451345.17,1.134005,-0.051305,0.440580,-0.179655,6.725109,-0.112696,0.904921,0.051283,-0.422478,-0.038070,-0.000441,0.170387,-33.196049,-6.117722,8.968388,,,,,,
1466451345.19,1.262434,-0.054564,0.442911,-0.157049,6.079509,-0.104366,0.951414,0.054537,-0.303047,0.235979,0.012647,0.012459,-34.076187,-6.216891,4.472132,,,,,,
1466451345.20,1.318154,-0.055877,0.444065,-0.138780,5.378687,-0.091437,0.966744,0.055848,-0.249573,0.326499,0.010192,-0.065109,-34.076187,-6.216891,4.472132,,,,,,
1466451345.22,1.402587,-0.057765,0.445952,-0.090138,3.438705,-0.063255,0.984242,0.057733,-0.167138,0.425548,-0.006509,-0.219443,-34.352013,-6.292932,0.417496,,,,,,
1466451345.23,1.433415,-0.058450,0.446641,-0.077894,3.020336,-0.056361,0.988886,0.058417,-0.136716,0.259771,0.006403,-0.138065,-34.352013,-6.292932,0.417496,,,,,,
1466451345.21,1.365621,-0.056926,0.445092,-0.120735,4.502661,-0.075281,0.977439,0.056895,-0.203409,0.397896,0.006490,-0.136847,-34.352013,-6.292932,0.417496,,,,,,
1466451345.24,1.464026,-0.059072,0.447415,-0.085290,3.075536,-0.050328,0.992571,0.059038,-0.106382,0.089292,-0.000658,-0.011446,-34.352013,-6.292932,0.417496,,,,,,
1466451345.25,1.493997,-0.059646,0.448157,-0.076942,2.938562,-0.050525,0.995279,0.059610,-0.076587,0.067816,0.004080,-0.009305,-34.030891,-6.372111,-4.596829,,,,,,
1466451345.26,1.522759,-0.060152,0.448904,-0.077032,2.873781,-0.045861,0.997040,0.060116,-0.047932,0.044006,0.004414,-0.027660,-34.030891,-6.372111,-4.596829,,,,,,
1466451345.27,1.551323,-0.060618,0.449629,-0.072837,2.820692,-0.046589,0.997974,0.060581,-0.019436,0.063702,0.011639,0.005154,-33.696533,-6.395926,-6.593329,,,,,,
1466451345.28,1.578118,-0.061063,0.450406,-0.078384,2.647612,-0.042315,0.998109,0.061025,0.007307,0.065215,-0.008688,-0.053465,-33.696533,-6.395926,-6.593329,,,,,,
1466451345.29,1.605572,-0.061536,0.451120,-0.070745,2.787781,-0.048509,0.997504,0.061497,0.034703,0.011896,0.000957,-0.010365,-33.696533,-6.395926,-6.593329,,,,,,
1466451345.30,1.636347,-0.062014,0.451946,-0.083015,3.187033,-0.054219,0.995934,0.061975,0.065378,-0.100533,0.000876,0.068212,-33.696533,-6.395926,-6.593329,,,,,,
1466451345.31,1.671274,-0.062534,0.452917,-0.094230,3.574612,-0.061983,0.993012,0.062493,0.100113,-0.116821,-0.000329,0.098816,-33.696533,-6.395926,-6.593329,,,,,,
1466451345.32,1.710853,-0.063062,0.454046,-0.108492,4.083231,-0.068380,0.988240,0.063021,0.139321,-0.149449,-0.004396,0.108619,-32.720798,-6.433079,-10.382727,,,,,,
1466451345.33,1.753984,-0.063631,0.455259,-0.112401,4.351887,-0.076456,0.981278,0.063588,0.181797,-0.077302,-0.000737,0.102444,-31.850281,-6.450784,-12.797783,,,,,,
1466451345.34,1.797852,-0.064143,0.456587,-0.121945,4.382684,-0.076658,0.972330,0.064099,0.224647,0.004324,-0.003339,0.045999,-31.850281,-6.450784,-12.797783,,,,,,
1466451345.35,1.842604,-0.064614,0.457956,-0.121797,4.497365,-0.079506,0.961277,0.064569,0.267913,0.028164,0.002799,0.036332,-31.850281,-6.450784,-12.797783,,,,,,
1466451345.36,1.887920,-0.065034,0.459336,-0.119635,4.521788,-0.080722,0.948128,0.064988,0.311176,0.045479,0.006804,0.044293,-31.850281,-6.450784,-12.797783,,,,,,
1466451345.37,1.934362,-0.065360,0.460779,-0.126878,4.690615,-0.080723,0.932639,0.065313,0.354849,0.010888,0.002054,0.053400,-29.081461,-6.472986,-18.226501,,,,,,
1466451345.38,1.982422,-0.065624,0.462289,-0.127799,4.803170,-0.082495,0.914499,0.065577,0.399238,0.036291,0.004430,0.070473,-29.081461,-6.472986,-18.226501,,,,,,
1466451345.39,2.030466,-0.065842,0.463791,-0.125692,4.781939,-0.084488,0.894257,0.065794,0.442691,0.064590,0.006151,0.048886,-29.081461,-6.472986,-18.226501,,,,,,
1466451345.40,2.078389,-0.065981,0.465300,-0.127815,4.795728,-0.079255,0.872015,0.065934,0.485017,0.081216,-0.006546,0.040541,-27.224724,-6.468331,-20.900028,,,,,,
1466451345.41,2.126058,-0.066074,0.466810,-0.124694,4.728848,-0.084154,0.847908,0.066026,0.526015,0.109962,0.003554,0.040940,-27.224724,-6.468331,-20.900028,,,,,,
1466451345.42,2.173439,-0.066053,0.468315,-0.126803,4.752197,-0.080045,0.822044,0.066005,0.565586,0.083168,0.000889,0.023129,-27.224724,-6.468331,-20.900028,,,,,,
1466451345.43,2.220097,-0.066016,0.469798,-0.123797,4.595060,-0.083314,0.794772,0.065968,0.603312,0.140241,0.000622,0.046880,-22.747448,-6.432864,-25.710079,,,,,,
1466451345.44,2.264734,-0.065878,0.471248,-0.118699,4.421972,-0.077966,0.767066,0.065830,0.638182,0.143228,0.006023,-0.017317,-22.747448,-6.432864,-25.710079,,,,,,
1466451345.46,2.350324,-0.065489,0.473917,-0.111613,4.137391,-0.070852,0.709721,0.065443,0.701437,0.142864,0.008975,-0.003622,-20.302973,-6.402744,-27.688091,,,,,,
1466451345.45,2.308366,-0.065743,0.472596,-0.108175,4.323219,-0.077336,0.738506,0.065696,0.671039,0.142796,0.005257,0.017392,-20.302973,-6.402744,-27.688091,,,,,,
1466451345.47,2.391056,-0.065209,0.475188,-0.111717,4.054570,-0.070333,0.680582,0.065163,0.729769,0.136099,0.000603,-0.000017,-20.302973,-6.402744,-27.688091,,,,,,
1466451345.48,2.430569,-0.064903,0.476414,-0.100231,3.870878,-0.071298,0.651235,0.064857,0.756099,0.151102,0.009178,0.009678,-20.302973,-6.402744,-27.688091,,,,,,
1466451345.49,2.467242,-0.064616,0.477495,-0.085669,3.608585,-0.062187,0.623087,0.064572,0.779483,0.156408,0.002445,-0.038836,-15.443333,-6.327425,-30.680668,,,,,,
1466451345.50,2.502193,-0.064240,0.478563,-0.095477,3.430204,-0.060014,0.595483,0.064196,0.800799,0.159339,0.005048,-0.009692,-15.443333,-6.327425,-30.680668,,,,,,
1466451345.52,2.563490,-0.063481,0.480424,-0.082291,2.912029,-0.053558,0.545335,0.063438,0.835814,0.150878,0.007927,-0.060561,-13.204182,-6.287482,-31.716768,,,,,,
1466451345.51,2.534122,-0.063841,0.479533,-0.086319,3.099964,-0.052611,0.569630,0.063798,0.819421,0.179699,0.009902,-0.048776,-13.204182,-6.287482,-31.716768,,,,,,
1466451345.53,2.593667,-0.063064,0.481336,-0.087423,3.063872,-0.055580,0.519882,0.063023,0.851910,0.058640,0.005962,0.016117,-13.204182,-6.287482,-31.716768,,,,,,
1466451345.54,2.626264,-0.062559,0.482325,-0.092423,3.314472,-0.061414,0.491856,0.062518,0.868429,-0.014516,-0.001758,0.067576,-13.204182,-6.287482,-31.716768,,,,,,
1466451345.55,2.662240,-0.062016,0.483334,-0.100454,3.700975,-0.064911,0.460318,0.061976,0.885588,-0.070289,-0.001643,0.095415,-9.170305,-6.200137,-33.125519,,,,,,
1466451345.56,2.701471,-0.061355,0.484465,-0.109709,3.953704,-0.071827,0.425248,0.061316,0.902997,-0.031251,0.007760,0.112963,-9.170305,-6.200137,-33.125519,,,,,,
1466451345.57,2.741231,-0.060737,0.485525,-0.099046,3.966440,-0.071896,0.389033,0.060699,0.919222,0.032262,0.004853,0.071836,-6.651191,-6.142144,-33.732357,,,,,,
1466451345.58,2.781260,-0.059986,0.486587,-0.111771,4.011036,-0.070060,0.351951,0.059950,0.934097,0.073647,0.007052,0.040955,-6.651191,-6.142144,-33.732357,,,,,,
1466451345.59,2.820833,-0.059207,0.487614,-0.106579,3.900615,-0.072555,0.314736,0.059172,0.947333,0.107521,0.002153,0.048761,-6.651191,-6.142144,-33.732357,,,,,,
1466451345.60,2.858741,-0.058417,0.488568,-0.104602,3.791228,-0.064416,0.278619,0.058384,0.958625,0.127997,0.008892,0.000115,-6.651191,-6.142144,-33.732357,,,,,,
1466451345.61,2.896190,-0.057610,0.489467,-0.099418,3.676556,-0.065821,0.242544,0.057578,0.968430,0.131709,0.007791,0.041549,-1.275375,-6.009890,-34.381550,,,,,,
1466451345.62,2.929885,-0.056876,0.490241,-0.087136,3.292159,-0.057011,0.209790,0.056846,0.976093,0.190311,0.009286,-0.029147,-1.275375,-6.009890,-34.381550,,,,,,
1466451345.63,2.961133,-0.056130,0.490936,-0.084187,3.097843,-0.054725,0.179199,0.056101,0.982212,0.172592,-0.000330,-0.033909,1.176334,-5.944475,-34.396450,,,,,,
1466451345.64,2.989066,-0.055497,0.491542,-0.069793,2.696461,-0.047936,0.151702,0.055468,0.986869,0.202592,0.002378,-0.030127,1.176334,-5.944475,-34.396450,,,,,,
1466451345.65,3.012679,-0.054917,0.492033,-0.063905,2.303578,-0.041208,0.128363,0.054889,0.990207,0.206934,0.004544,-0.078296,1.176334,-5.944475,-34.396450,,,,,,
1466451345.66,3.032275,-0.054441,0.492432,-0.049594,1.839544,-0.031897,0.108938,0.054414,0.992558,0.198633,0.010329,-0.106740,1.176334,-5.944475,-34.396450,,,,,,
1466451345.67,3.046997,-0.054100,0.492718,-0.035279,1.376576,-0.023657,0.094317,0.054074,0.994073,0.181959,0.005558,-0.090295,1.176334,-5.944475,-34.396450,,,,,,
1466451345.68,3.058157,-0.053800,0.492942,-0.031455,1.034664,-0.018315,0.083219,0.053774,0.995079,0.168384,0.008619,-0.092430,4.692975,-5.844815,-34.112320,,,,,,
1466451345.69,3.065291,-0.053597,0.493080,-0.018145,0.619478,-0.010376,0.076118,0.053572,0.995659,0.161538,0.001146,-0.095817,4.692975,-5.844815,-34.112320,,,,,,
1466451345.70,3.064882,-0.053855,0.492947,-0.005855,0.236130,-0.004766,0.076524,0.053829,0.995614,0.159133,0.010776,-0.098397,5.575895,-5.819154,-33.983570,,,,,,
1466451345.71,3.057027,-0.054123,0.492548,0.000010,-0.173784,0.003133,0.084341,0.054096,0.994967,0.149271,0.002087,-0.096972,5.575895,-5.819154,-33.983570,,,,,,
1466451345.72,3.052214,-0.054201,0.492447,0.010139,-0.577292,0.012060,0.089128,0.054174,0.994546,0.134993,0.001474,-0.091698,5.804374,-5.820952,-33.944984,,,,,,
1466451345.73,3.043833,-0.054383,0.492260,0.023543,-0.919211,0.018476,0.097459,0.054357,0.993754,0.121931,0.001643,-0.077220,5.804374,-5.820952,-33.944984,,,,,,
1466451345.74,3.032364,-0.054662,0.492020,0.031680,-1.219711,0.022497,0.108849,0.054635,0.992556,0.111534,0.001777,-0.067339,5.804374,-5.820952,-33.944984,,,,,,
1466451345.75,3.017886,-0.055002,0.491717,0.039818,-1.519150,0.026512,0.123205,0.054974,0.990857,0.104014,0.004215,-0.059675,5.804374,-5.820952,-33.944984,,,,,,
1466451345.76,3.000600,-0.055405,0.491345,0.046911,-1.799481,0.032535,0.140311,0.055377,0.988558,0.121622,-0.002459,-0.060121,4.694523,-5.855657,-34.110249,,,,,,
1466451345.77,2.980017,-0.055890,0.490903,0.057128,-2.139269,0.036805,0.160622,0.055861,0.985434,0.116828,-0.006773,-0.053442,4.694523,-5.855657,-34.110249,,,,,,
1466451345.78,2.956584,-0.056442,0.490386,0.066372,-2.402612,0.042724,0.183662,0.056412,0.981369,0.070595,0.015243,-0.035843,3.606810,-5.886121,-34.237125,,,,,,
1466451345.79,2.931336,-0.057012,0.489806,0.067253,-2.545962,0.045753,0.208372,0.056982,0.976388,0.057299,0.000239,0.002600,3.606810,-5.886121,-34.237125,,,,,,
1466451345.80,2.904928,-0.057622,0.489192,0.073491,-2.667008,0.045454,0.234073,0.057590,0.970512,0.031446,0.005383,0.007409,3.606810,-5.886121,-34.237125,,,,,,
1466451345.81,2.877857,-0.058195,0.488546,0.072372,-2.707362,0.047835,0.260247,0.058163,0.963789,0.029975,-0.008923,0.021365,3.606810,-5.886121,-34.237125,,,,,,
1466451345.82,2.849798,-0.058833,0.487854,0.084980,-2.840096,0.049744,0.287174,0.058799,0.956072,0.034191,-0.004905,0.018949,0.314656,-5.978128,-34.409286,,,,,,
1466451345.83,2.820749,-0.059537,0.487138,0.088117,-2.894235,0.044764,0.314809,0.059502,0.947288,-0.016347,0.000023,0.051537,0.314656,-5.978128,-34.409286,,,,,,
1466451345.85,2.767493,-0.060913,0.485767,0.074629,-2.613909,0.041928,0.364757,0.060876,0.929111,-0.031367,0.064200,-0.009540,-1.584764,-6.029726,-34.365200,,,,,,
1466451345.84,2.793521,-0.060180,0.486428,0.086273,-2.659588,0.047549,0.340468,0.060144,0.938330,-0.060393,-0.029062,0.084680,-1.584764,-6.029726,-34.365200,,,,,,
1466451345.86,2.740907,-0.061422,0.485051,0.078884,-2.622397,0.038792,0.389314,0.061383,0.919057,-0.041307,-0.012265,0.098765,-1.584764,-6.029726,-34.365200,,,,,,
1466451345.87,2.716618,-0.061760,0.484394,0.044039,-2.366526,0.052055,0.411512,0.061721,0.909312,-0.099836,0.037568,0.016500,-1.584764,-6.029726,-34.365200,,,,,,
1466451345.88,2.694105,-0.062212,0.483785,0.075158,-2.207213,0.029798,0.431865,0.062172,0.899793,-0.080089,-0.019355,0.111956,-5.313848,-6.139497,-33.969189,,,,,,
1466451345.89,2.674252,-0.062430,0.483249,0.025455,-1.907808,0.045966,0.449636,0.062389,0.891030,-0.125295,0.048176,0.027183,-5.313848,-6.139497,-33.969189,,,,,,
1466451345.91,2.643521,-0.063320,0.482449,0.045392,-1.347093,0.008407,0.476775,0.063278,0.876745,-0.150191,0.018936,0.034571,-6.899542,-6.176387,-33.676174,,,,,,
1466451345.90,2.657770,-0.062871,0.482784,0.075967,-1.582837,0.013110,0.464247,0.062830,0.883474,-0.093474,-0.138238,0.219111,-6.899542,-6.176387,-33.676174,,,,,,
1466451345.92,2.634459,-0.063682,0.482185,0.050398,-0.746123,0.007837,0.484689,0.063639,0.872369,-0.148324,0.004751,0.108924,-6.899542,-6.176387,-33.676174,,,,,,
1466451345.93,2.631516,-0.063917,0.482106,0.009659,-0.130240,-0.002453,0.487247,0.063874,0.870925,-0.152469,0.015594,0.070268,-6.899542,-6.176387,-33.676174,,,,,,
1466451345.94,2.643212,-0.062532,0.482710,0.006450,0.674705,-0.027728,0.477070,0.062491,0.876641,-0.112949,-0.031333,0.107017,-8.895613,-6.238733,-33.193111,,,,,,
1466451345.95,2.656220,-0.062709,0.483114,-0.010584,1.499778,-0.048886,0.465621,0.062668,0.882763,-0.077727,-0.021866,0.092381,-8.895613,-6.238733,-33.193111,,,,,,
1466451345.97,2.707840,-0.062684,0.484798,-0.055195,3.241231,-0.086464,0.419454,0.062643,0.905613,0.024440,0.028650,0.057949,-8.606410,-6.196024,-33.277248,,,,,,
1466451345.96,2.677532,-0.062742,0.483836,-0.032905,2.348223,-0.073390,0.446702,0.062701,0.892483,-0.011720,-0.006320,0.073566,-8.606410,-6.196024,-33.277248,,,,,,
1466451345.98,2.745933,-0.062390,0.486009,-0.081937,3.972858,-0.102788,0.384667,0.062349,0.920947,0.068977,0.023131,0.048215,-8.606410,-6.196024,-33.277248,,,,,,
1466451345.99,2.790471,-0.061951,0.487400,-0.089665,4.582373,-0.119392,0.343291,0.061911,0.937186,0.125245,-0.037894,0.135980,-8.606410,-6.196024,-33.277248,,,,,,
1466451346.00,2.838923,-0.061399,0.488873,-0.107338,4.917920,-0.124707,0.297508,0.061360,0.952745,0.147759,0.008891,-0.007067,-5.137341,-6.163765,-33.991940,,,,,,
1466451346.01,2.890272,-0.060869,0.490421,-0.083640,5.122859,-0.134484,0.248223,0.060831,0.966791,0.168617,-0.048914,0.107000,-5.137341,-6.163765,-33.991940,,,,,,
1466451346.02,2.939746,-0.060244,0.491875,-0.099865,4.923243,-0.131120,0.200115,0.060207,0.977921,0.152118,0.018116,-0.009583,-1.949947,-6.106811,-34.332794,,,,,,
1466451346.03,2.987624,-0.059684,0.493215,-0.069383,4.626952,-0.117522,0.153088,0.059648,0.986411,0.196155,0.002028,-0.002661,-1.949947,-6.106811,-34.332794,,,,,,
1466451346.04,3.026609,-0.059223,0.494344,-0.058862,3.690413,-0.103123,0.114529,0.059188,0.991655,0.163883,0.020417,-0.152101,-1.949947,-6.106811,-34.332794,,,,,,
1466451346.05,3.058103,-0.058936,0.495221,-0.030068,2.912039,-0.076923,0.083248,0.058902,0.994787,0.117359,0.002942,-0.137578,-1.949947,-6.106811,-34.332794,,,,,,
1466451346.06,3.078543,-0.058853,0.495875,-0.005998,1.748258,-0.057891,0.062899,0.058819,0.996285,0.120100,0.005924,-0.221398,4.510389,-5.988439,-34.112038,,,,,,
1466451346.07,3.087138,-0.059014,0.496209,0.019048,0.551527,-0.023753,0.054333,0.058980,0.996779,0.071308,0.033260,-0.284514,4.510389,-5.988439,-34.112038,,,,,,
1466451346.08,3.083120,-0.059467,0.496261,0.051483,-0.730126,-0.000781,0.058336,0.059432,0.996526,0.058454,0.006089,-0.263280,6.280987,-5.963248,-33.835266,,,,,,
1466451346.09,3.065558,-0.060144,0.495918,0.080608,-2.082954,0.035409,0.075824,0.060108,0.995308,0.024640,0.019085,-0.242866,6.280987,-5.963248,-33.835266,,,,,,
1466451346.10,3.037127,-0.061223,0.495169,0.119803,-3.035507,0.076549,0.104080,0.061185,0.992685,0.095413,0.003116,-0.122629,6.280987,-5.963248,-33.835266,,,,,,
1466451346.11,3.006307,-0.062203,0.494524,0.099651,-3.019491,0.047688,0.134612,0.062162,0.988947,0.198563,0.017000,0.029883,6.280987,-5.963248,-33.835266,,,,,,
1466451346.12,2.974770,-0.063191,0.493875,0.116347,-3.284959,0.052563,0.165718,0.063149,0.984149,0.090477,-0.003869,-0.015170,4.873409,-6.048260,-34.051498,,,,,,
1466451346.13,2.938507,-0.064423,0.492994,0.140352,-3.655567,0.064491,0.201274,0.064378,0.977417,0.060811,-0.028596,0.009369,4.873409,-6.048260,-34.051498,,,,,,
1466451346.14,2.902221,-0.065573,0.492190,0.125476,-3.650218,0.052734,0.236583,0.065526,0.969399,0.100560,0.003597,0.032203,4.873409,-6.048260,-34.051498,,,,,,
1466451346.15,2.863269,-0.066769,0.491233,0.145309,-3.954986,0.062116,0.274132,0.066719,0.959375,0.036659,0.000129,0.021048,0.244399,-6.218236,-34.367283,,,,,,
1466451346.17,2.786121,-0.068931,0.489312,0.122193,-3.719236,0.054228,0.347206,0.068877,0.935256,-0.028816,0.035875,0.079988,0.244399,-6.218236,-34.367283,,,,,,
1466451346.16,2.823691,-0.067910,0.490214,0.134729,-3.905070,0.059663,0.311854,0.067858,0.947704,0.028921,0.012510,0.076390,0.244399,-6.218236,-34.367283,,,,,,
1466451346.18,2.748853,-0.069895,0.488332,0.123278,-3.700130,0.056238,0.381787,0.069838,0.921608,-0.112728,0.027620,0.102867,-2.455103,-6.312662,-34.263084,,,,,,
1466451346.19,2.714517,-0.070527,0.487444,0.084338,-3.333795,0.056030,0.413181,0.070468,0.907918,-0.121540,0.059735,0.104350,-2.455103,-6.312662,-34.263084,,,,,,
1466451346.20,2.683486,-0.070967,0.486606,0.075144,-3.017385,0.058295,0.441137,0.070907,0.894634,-0.156774,0.043030,0.099781,-2.455103,-6.312662,-34.263084,,,,,,
1466451346.21,2.655804,-0.071361,0.485829,0.059567,-2.708382,0.053148,0.465718,0.071301,0.882056,-0.139622,0.029575,0.075356,-7.222681,-6.444580,-33.557957,,,,,,
1466451346.23,2.613442,-0.071660,0.484657,0.039424,-1.806872,0.036829,0.502644,0.071598,0.861524,-0.176487,-0.010655,0.122012,-7.222681,-6.444580,-33.557957,,,,,,
1466451346.22,2.632388,-0.071505,0.485214,0.041056,-2.198686,0.042481,0.486237,0.071444,0.870901,-0.143220,-0.002704,0.112314,-7.222681,-6.444580,-33.557957,,,,,,
1466451346.24,2.598479,-0.071745,0.484249,0.028265,-1.377877,0.026676,0.515475,0.071684,0.853901,-0.183108,-0.017515,0.153179,-8.930122,-6.474113,-33.138721,,,,,,
1466451346.25,2.589308,-0.071887,0.484050,0.015002,-0.921280,0.020606,0.523279,0.071825,0.849129,-0.197580,0.014983,0.097801,-8.930122,-6.474113,-33.138721,,,,,,
1466451346.26,2.584077,-0.071797,0.483924,-0.006687,-0.388241,0.016177,0.527716,0.071735,0.846386,-0.202704,0.025479,0.107349,-8.930122,-6.474113,-33.138721,,,,,,
1466451346.27,2.595198,-0.072909,0.484744,-0.021048,0.050351,0.014473,0.518230,0.072844,0.852134,-0.196346,0.022721,0.084024,-8.930122,-6.474113,-33.138721,,,,,,
1466451346.28,2.598575,-0.072663,0.484820,-0.025864,0.437941,0.001392,0.515359,0.072599,0.853894,-0.178872,-0.006056,0.103839,-10.523090,-6.494560,-32.663765,,,,,,
1466451346.29,2.606469,-0.072378,0.485025,-0.035918,0.904089,-0.005799,0.508612,0.072315,0.857954,-0.165518,-0.022846,0.115328,-10.523090,-6.494560,-32.663765,,,,,,
1466451346.30,2.618221,-0.072153,0.485325,-0.035462,1.254507,-0.016512,0.498503,0.072090,0.863885,-0.141402,-0.015556,0.095252,-10.042693,-6.515932,-32.810413,,,,,,
1466451346.31,2.634177,-0.071870,0.485791,-0.047652,1.701568,-0.032101,0.484666,0.071809,0.871747,-0.113145,-0.016953,0.096332,-10.042693,-6.515932,-32.810413,,,,,,
1466451346.33,2.676268,-0.071289,0.487018,-0.053346,2.245232,-0.041903,0.447573,0.071228,0.891406,-0.070574,-0.009796,0.071851,-9.396232,-6.494732,-33.005539,,,,,,
1466451346.32,2.654213,-0.071579,0.486392,-0.056765,2.068969,-0.038672,0.467113,0.071518,0.881300,-0.099010,-0.009613,0.097078,-9.396232,-6.494732,-33.005539,,,,,,
1466451346.34,2.700816,-0.070992,0.487745,-0.062549,2.528770,-0.055400,0.425567,0.070932,0.902143,-0.040268,-0.017237,0.070086,-9.396232,-6.494732,-33.005539,,,,,,
1466451346.35,2.727963,-0.070613,0.488538,-0.066547,2.739007,-0.055658,0.400934,0.070555,0.913386,-0.056421,0.011477,0.061300,-9.396232,-6.494732,-33.005539,,,,,,
1466451346.36,2.756349,-0.070206,0.489270,-0.068533,2.865341,-0.049001,0.374859,0.070149,0.924424,-0.045010,0.019420,0.056136,-6.636107,-6.435903,-33.680519,,,,,,
1466451346.37,2.786282,-0.069591,0.490091,-0.089600,3.036320,-0.056481,0.347040,0.069534,0.935269,-0.003915,0.029312,0.020358,-6.636107,-6.435903,-33.680519,,,,,,
1466451346.38,2.817912,-0.068979,0.490887,-0.083052,3.169033,-0.054113,0.317302,0.068924,0.945816,0.019368,0.015243,0.061782,-6.636107,-6.435903,-33.680519,,,,,,
1466451346.39,2.848023,-0.068356,0.491594,-0.086516,2.965147,-0.045387,0.288695,0.068303,0.954982,0.063218,0.015696,-0.012049,-2.648458,-6.342626,-34.243145,,,,,,
1466451346.40,2.877207,-0.067701,0.492280,-0.081249,2.912069,-0.050371,0.260718,0.067650,0.963042,0.104867,0.008736,0.001726,-2.648458,-6.342626,-34.243145,,,,,,
1466451346.41,2.905454,-0.067009,0.492945,-0.081450,2.758096,-0.045148,0.233425,0.066959,0.970067,0.117848,-0.000202,-0.010304,-2.648458,-6.342626,-34.243145,,,,,,
1466451346.42,2.930203,-0.066438,0.493477,-0.062767,2.382194,-0.037449,0.209356,0.066389,0.975583,0.132639,-0.008955,-0.041089,-0.611448,-6.288421,-34.349934,,,,,,
1466451346.43,2.951744,-0.065901,0.493950,-0.057762,2.120998,-0.040064,0.188301,0.065853,0.979901,0.177406,-0.013775,-0.036435,-0.611448,-6.288421,-34.349934,,,,,,
1466451346.44,2.970118,-0.065538,0.494369,-0.038017,1.740850,-0.033402,0.170270,0.065491,0.983219,0.130390,-0.003601,-0.062275,-0.611448,-6.288421,-34.349934,,,,,,
1466451346.45,2.986146,-0.065182,0.494725,-0.042501,1.568829,-0.028070,0.154493,0.065136,0.985844,0.110842,0.012256,-0.045491,2.583832,-6.198843,-34.274395,,,,,,
1466451346.47,3.009414,-0.064599,0.495242,-0.025387,0.796863,-0.013632,0.131519,0.064554,0.989209,0.164974,0.019751,-0.121717,2.583832,-6.198843,-34.274395,,,,,,
1466451346.46,3.000155,-0.064850,0.495065,-0.036429,1.316117,-0.026479,0.140671,0.064804,0.987933,0.147797,0.018936,-0.069202,2.583832,-6.198843,-34.274395,,,,,,
1466451346.48,3.014060,-0.064458,0.495334,-0.014231,0.363624,-0.004517,0.126923,0.064414,0.989819,0.175995,0.007761,-0.098812,3.614115,-6.170066,-34.186321,,,,,,
1466451346.50,3.000263,-0.064060,0.494578,0.026157,-0.533690,0.007540,0.140570,0.064017,0.987999,0.159967,-0.028998,-0.082130,3.614115,-6.170066,-34.186321,,,,,,
1466451346.49,3.004648,-0.063844,0.494695,0.008621,-0.085598,0.003648,0.136239,0.063800,0.988619,0.156928,-0.014606,-0.081607,3.614115,-6.170066,-34.186321,,,,,,
1466451346.51,2.992411,-0.064260,0.494376,0.020384,-0.873497,0.021375,0.148322,0.064215,0.986852,0.128823,0.035806,-0.115072,3.615261,-6.147827,-34.190208,,,,,,
1466451346.52,2.980569,-0.064721,0.494067,0.065664,-1.278060,0.021828,0.159993,0.064676,0.984997,0.132472,-0.026865,-0.077572,3.615261,-6.147827,-34.190208,,,,,,
1466451346.53,2.965035,-0.065539,0.493762,0.083293,-1.661369,0.019992,0.175265,0.065492,0.982341,0.130750,-0.092836,0.078374,3.615261,-6.147827,-34.190208,,,,,,
1466451346.54,2.946838,-0.066019,0.493317,0.055401,-1.803677,0.035759,0.193104,0.065971,0.978958,0.015621,0.142525,-0.171966,2.939933,-6.174138,-34.250156,,,,,,
1466451346.55,2.929215,-0.066572,0.492883,0.057561,-1.784557,0.032448,0.210318,0.066523,0.975367,0.030298,0.019246,0.023962,2.939933,-6.174138,-34.250156,,,,,,
1466451346.56,2.908933,-0.067012,0.492325,0.059291,-2.094619,0.039716,0.230049,0.066962,0.970873,0.021798,-0.013449,-0.027162,2.939933,-6.174138,-34.250156,,,,,,
1466451346.57,2.887335,-0.067436,0.491772,0.048548,-2.156224,0.049672,0.250955,0.067384,0.965650,0.050085,0.071379,-0.078291,0.477653,-6.265074,-34.356319,,,,,,
1466451346.58,2.864348,-0.067966,0.491222,0.071734,-2.372797,0.034022,0.273075,0.067913,0.959593,0.070553,-0.057110,0.082857,0.477653,-6.265074,-34.356319,,,,,,
1466451346.59,2.839441,-0.068332,0.490521,0.054524,-2.480087,0.054903,0.296880,0.068279,0.952471,-0.027776,0.045491,-0.055208,0.477653,-6.265074,-34.356319,,,,,,
1466451346.60,2.815093,-0.068705,0.489836,0.054579,-2.425952,0.060950,0.319973,0.068651,0.944936,-0.002727,0.032453,0.032496,-1.056559,-6.306074,-34.335888,,,,,,
1466451346.62,2.766673,-0.069288,0.488396,0.055744,-2.355856,0.054125,0.365319,0.069232,0.928304,-0.043343,-0.001346,0.054819,-1.056559,-6.306074,-34.335888,,,,,,
1466451346.61,2.790589,-0.068984,0.489128,0.050303,-2.446113,0.056814,0.343023,0.068930,0.936795,-0.029027,0.008860,0.031879,-1.056559,-6.306074,-34.335888,,,,,,
1466451346.63,2.744787,-0.069584,0.487765,0.049640,-2.132868,0.050591,0.385539,0.069528,0.920068,-0.060695,-0.003885,0.067435,-4.406899,-6.373729,-34.055706,,,,,,
1466451346.64,2.724362,-0.069900,0.487158,0.050891,-1.997997,0.041231,0.404240,0.069843,0.911982,-0.091984,0.004635,0.067968,-4.406899,-6.373729,-34.055706,,,,,,
1466451346.65,2.707369,-0.069998,0.486646,0.024798,-1.578571,0.038574,0.419676,0.069941,0.904976,-0.138822,0.027105,0.073143,-4.406899,-6.373729,-34.055706,,,,,,
1466451346.66,2.694388,-0.070070,0.486232,0.020927,-1.266403,0.038742,0.431385,0.070013,0.899447,-0.156483,0.020868,0.075193,-5.846171,-6.404459,-33.832550,,,,,,
1466451346.68,2.676720,-0.070024,0.485574,0.010114,-0.573000,0.019480,0.447211,0.069967,0.891688,-0.119208,-0.031652,0.114614,-5.846171,-6.404459,-33.832550,,,,,,
1466451346.67,2.683514,-0.070048,0.485824,0.013804,-1.006252,0.034974,0.441141,0.069991,0.894704,-0.146509,0.000825,0.072276,-5.846171,-6.404459,-33.832550,,,,,,
1466451346.69,2.673734,-0.070059,0.485423,0.011647,-0.209846,0.010817,0.449870,0.070002,0.890347,-0.116923,-0.038584,0.098042,-7.455793,-6.421796,-33.511311,,,,,,
1466451346.70,2.682260,-0.068923,0.485913,-0.005760,0.324322,-0.005323,0.442297,0.068868,0.894220,-0.096838,-0.019125,0.065389,-7.455793,-6.421796,-33.511311,,,,,,
1466451346.71,2.690547,-0.068844,0.486112,-0.018773,0.975231,-0.015805,0.434875,0.068790,0.897860,-0.094710,0.017621,0.068586,-7.455793,-6.421796,-33.511311,,,,,,
1466451346.72,2.704089,-0.068598,0.486442,-0.043667,1.497657,-0.021235,0.422684,0.068544,0.903682,-0.087738,0.036833,0.009115,-7.455793,-6.421796,-33.511311,,,,,,
1466451346.74,2.746874,-0.067896,0.487665,-0.054392,2.253722,-0.045148,0.383662,0.067843,0.920978,-0.027537,-0.000720,0.013150,-6.536823,-6.367067,-33.713005,,,,,,
1466451346.73,2.723949,-0.068269,0.486989,-0.054619,2.098652,-0.028209,0.404663,0.068216,0.911918,-0.051514,-0.008035,0.117089,-6.536823,-6.367067,-33.713005,,,,,,
1466451346.75,2.769953,-0.067501,0.488298,-0.067102,2.314240,-0.041283,0.362317,0.067450,0.929611,-0.002164,0.018625,0.030472,-6.536823,-6.367067,-33.713005,,,,,,
1466451346.77,2.817096,-0.066436,0.489484,-0.083057,2.341828,-0.031891,0.318128,0.066387,0.945720,0.020037,0.056171,-0.055370,-5.086237,-6.333456,-33.968422,,,,,,
1466451346.76,2.793671,-0.067080,0.488903,-0.059564,2.374771,-0.045912,0.340178,0.067030,0.937969,0.019808,0.008639,0.033329,-5.086237,-6.333456,-33.968422,,,,,,
1466451346.78,2.840484,-0.065846,0.490042,-0.069256,2.307847,-0.032729,0.295936,0.065798,0.952939,0.072014,-0.003100,0.039691,-5.086237,-6.333456,-33.968422,,,,,,
1466451346.79,2.862536,-0.065219,0.490593,-0.072605,2.179379,-0.035120,0.274863,0.065173,0.959272,0.066690,0.016920,-0.053816,-1.883852,-6.245306,-34.311565,,,,,,
1466451346.80,2.882497,-0.064703,0.491082,-0.062327,1.888434,-0.031156,0.255670,0.064658,0.964599,0.107855,-0.014151,0.003845,-1.883852,-6.245306,-34.311565,,,,,,
1466451346.81,2.898039,-0.064280,0.491404,-0.043714,1.464736,-0.017836,0.240655,0.064236,0.968483,0.078696,0.002827,-0.081276,-1.883852,-6.245306,-34.311565,,,,,,
1466451346.83,2.926370,-0.063509,0.492033,-0.040677,1.330961,-0.022316,0.213134,0.063466,0.974959,0.064667,0.000346,-0.033050,-0.439002,-6.198513,-34.368908,,,,,,
1466451346.82,2.912561,-0.063885,0.491732,-0.041565,1.470061,-0.024254,0.226572,0.063841,0.971900,0.086600,-0.012801,0.002328,-0.439002,-6.198513,-34.368908,,,,,,
1466451346.84,2.937991,-0.063320,0.492242,-0.019687,1.096278,-0.015501,0.201793,0.063278,0.977382,0.095220,-0.007736,-0.020397,-0.439002,-6.198513,-34.368908,,,,,,
1466451346.85,2.947929,-0.063092,0.492467,-0.027292,0.969936,-0.017910,0.192072,0.063051,0.979353,0.138418,0.015975,-0.067030,1.470672,-6.142712,-34.350262,,,,,,
1466451346.86,2.955304,-0.062965,0.492598,-0.015971,0.670479,-0.008569,0.184846,0.062924,0.980751,0.140975,0.015781,-0.058205,1.470672,-6.142712,-34.350262,,,,,,
1466451346.87,2.959215,-0.062838,0.492659,-0.012163,0.315826,-0.003148,0.181010,0.062796,0.981474,0.133397,0.017801,-0.098204,1.470672,-6.142712,-34.350262,,,,,,
1466451346.89,2.951294,-0.062802,0.492097,0.002066,-0.214085,0.007643,0.188779,0.062760,0.980012,0.117144,-0.001680,-0.063966,2.066099,-6.127903,-34.322243,,,,,,
1466451346.88,2.960659,-0.062761,0.492662,-0.007126,0.090716,0.000398,0.179594,0.062720,0.981739,0.132189,0.019861,-0.074284,2.066099,-6.127903,-34.322243,,,,,,
1466451346.90,2.946724,-0.062867,0.491980,0.010198,-0.523071,0.008524,0.193255,0.062826,0.979135,0.109464,-0.000082,-0.077478,2.066099,-6.127903,-34.322243,,,,,,
1466451346.92,2.930057,-0.063219,0.491552,0.025542,-1.009408,0.020105,0.209542,0.063177,0.975757,0.082694,0.001017,-0.050952,1.769043,-6.129807,-34.338493,,,,,,
1466451346.91,2.939575,-0.063021,0.491806,0.021600,-0.773656,0.007978,0.200249,0.062979,0.977719,0.098076,-0.002173,-0.061062,1.769043,-6.129807,-34.338493,,,,,,
1466451346.93,2.918106,-0.063488,0.491238,0.029540,-1.205866,0.028793,0.221185,0.063446,0.973166,0.067344,0.006760,-0.029685,1.769043,-6.129807,-34.338493,,,,,,
1466451346.94,2.905094,-0.063754,0.490895,0.036842,-1.319494,0.033770,0.233824,0.063711,0.970189,0.025972,0.019999,-0.025182,1.195333,-6.145105,-34.360516,,,,,,
1466451346.95,2.892082,-0.064022,0.490553,0.033709,-1.279130,0.028192,0.246424,0.063978,0.967048,0.013051,0.016664,-0.001212,1.195333,-6.145105,-34.360516,,,,,,
1466451346.96,2.880030,-0.064301,0.490281,0.033836,-1.192038,0.019130,0.258056,0.064257,0.963991,0.011857,-0.002825,0.031767,1.195333,-6.145105,-34.360516,,,,,,
1466451346.97,2.866968,-0.064594,0.489926,0.035761,-1.344957,0.026478,0.270620,0.064549,0.960520,0.006861,0.007640,-0.011240,-0.527455,-6.191811,-34.368874,,,,,,
1466451346.98,2.852470,-0.064909,0.489519,0.043053,-1.470259,0.029400,0.284511,0.064863,0.956476,0.029728,-0.003721,-0.018030,-0.527455,-6.191811,-34.368874,,,,,,
1466451346.99,2.837315,-0.065220,0.489140,0.039796,-1.520162,0.029709,0.298967,0.065174,0.952035,0.033018,0.005504,-0.010797,-0.527455,-6.191811,-34.368874,,,,,,
1466451347.00,2.821895,-0.065598,0.488711,0.048286,-1.539285,0.031967,0.313604,0.065551,0.947289,-0.010946,0.005800,0.011238,-1.476101,-6.218442,-34.336399,,,,,,
1466451347.01,2.807147,-0.065922,0.488344,0.039899,-1.444763,0.024979,0.327533,0.065875,0.942541,-0.007602,-0.002902,0.030680,-1.476101,-6.218442,-34.336399,,,,,,
1466451347.02,2.793391,-0.066258,0.487998,0.044280,-1.349200,0.023319,0.340460,0.066209,0.937925,-0.012228,0.000731,0.033007,-1.476101,-6.218442,-34.336399,,,,,,
1466451347.03,2.781501,-0.066482,0.487705,0.026483,-1.110279,0.019674,0.351581,0.066433,0.933797,-0.026127,0.023182,0.007289,-3.503546,-6.276115,-34.178528,,,,,,
1466451347.04,2.772847,-0.066531,0.487498,0.006657,-0.790664,0.016586,0.359649,0.066482,0.930716,-0.029754,0.038850,0.021340,-3.503546,-6.276115,-34.178528,,,,,,
1466451347.05,2.766750,-0.066602,0.487373,-0.009037,-0.566621,0.017293,0.365314,0.066553,0.928502,-0.039478,0.049688,-0.015248,-3.503546,-6.276115,-34.178528,,,,,,
1466451347.06,2.762288,-0.066468,0.487289,-0.010980,-0.410517,0.012051,0.369457,0.066419,0.926871,-0.042446,0.007632,0.028176,-4.206091,-6.289381,-34.096752,,,,,,
1466451347.07,2.758506,-0.066368,0.487206,-0.003488,-0.381849,0.010815,0.372962,0.066320,0.925473,-0.065009,-0.008367,0.028003,-4.206091,-6.289381,-34.096752,,,,,,
1466451347.08,2.753623,-0.066394,0.487095,0.009120,-0.520943,0.008506,0.377476,0.066345,0.923639,-0.074452,-0.029907,0.047628,-4.206091,-6.289381,-34.096752,,,,,,
1466451347.09,2.751324,-0.064614,0.487154,0.021644,-0.707825,0.017144,0.379643,0.064569,0.922877,-0.082158,-0.042841,0.075017,-4.862502,-6.288176,-34.009575,,,,,,
1466451347.10,2.744372,-0.064746,0.486920,0.021712,-0.656852,0.014695,0.386046,0.064701,0.920208,-0.090346,0.014508,-0.000683,-4.862502,-6.288176,-34.009575,,,,,,
1466451347.11,2.738819,-0.064589,0.486712,-0.014345,-0.515661,0.030805,0.391154,0.064544,0.918059,-0.098414,0.077332,0.023591,-5.181498,-6.234725,-33.972290,,,,,,
1466451347.12,2.736222,-0.064518,0.486563,0.003162,-0.166290,0.011600,0.393539,0.064473,0.917045,-0.080093,0.021785,0.017266,-5.181498,-6.234725,-33.972290,,,,,,
1466451347.13,2.741420,-0.062986,0.486870,-0.019893,0.118330,0.002342,0.388805,0.062945,0.919168,-0.055598,-0.021456,0.081946,-5.181498,-6.234725,-33.972290,,,,,,
1466451347.14,2.744872,-0.062843,0.486967,-0.019488,0.429458,-0.007060,0.385633,0.062802,0.920512,-0.056272,0.004779,0.031178,-5.460017,-6.230095,-33.929493,,,,,,
1466451347.15,2.754527,-0.064618,0.487327,-0.033040,0.669429,-0.001132,0.376685,0.064573,0.924088,-0.049033,0.036334,0.016998,-5.460017,-6.230095,-33.929493,,,,,,
1466451347.16,2.762509,-0.064245,0.487510,-0.042399,0.845696,-0.003311,0.369306,0.064201,0.927088,-0.036344,0.031045,-0.013590,-5.460017,-6.230095,-33.929493,,,,,,
1466451347.17,2.772476,-0.063800,0.487765,-0.054929,1.037897,-0.007722,0.360057,0.063757,0.930749,-0.004940,0.007868,0.034781,-5.460017,-6.230095,-33.929493,,,,,,
1466451347.18,2.783639,-0.063326,0.488033,-0.051616,1.132396,-0.008312,0.349656,0.063284,0.934738,-0.007081,0.019373,-0.004791,-4.563580,-6.213104,-34.064751,,,,,,
1466451347.19,2.794849,-0.062754,0.488292,-0.074034,1.100527,0.001446,0.339168,0.062712,0.938633,0.000553,0.015214,0.018368,-4.563580,-6.213104,-34.064751,,,,,,
1466451347.20,2.806735,-0.062193,0.488589,-0.050413,1.226923,-0.018484,0.327999,0.062153,0.942631,0.006290,0.029644,-0.072224,-3.842928,-6.178111,-34.159904,,,,,,
1466451347.21,2.819098,-0.061693,0.488913,-0.058932,1.227986,-0.017434,0.316331,0.061654,0.946643,0.044814,-0.041878,0.047284,-3.842928,-6.178111,-34.159904,,,,,,
1466451347.22,2.830697,-0.061272,0.489202,-0.045209,1.138779,-0.013668,0.305337,0.061234,0.950273,0.035391,-0.019334,0.009611,-3.842928,-6.178111,-34.159904,,,,,,
1466451347.23,2.842696,-0.060804,0.489519,-0.058926,1.234354,-0.016410,0.293922,0.060767,0.953896,0.053963,0.021295,-0.025399,-3.842928,-6.178111,-34.159904,,,,,,
1466451347.24,2.855914,-0.060260,0.489883,-0.060923,1.335235,-0.020238,0.281298,0.060224,0.957729,0.073866,0.021350,-0.011089,-2.231313,-6.099849,-34.316895,,,,,,
1466451347.25,2.868750,-0.059796,0.490225,-0.057807,1.275766,-0.017733,0.268988,0.059761,0.961288,0.078714,0.015251,-0.013183,-2.231313,-6.099849,-34.316895,,,,,,
1466451347.26,2.880559,-0.059378,0.490567,-0.046243,1.147299,-0.023302,0.257624,0.059343,0.964421,0.076894,-0.018770,-0.006368,-2.231313,-6.099849,-34.316895,,,,,,
1466451347.27,2.890533,-0.059068,0.490863,-0.031624,0.920063,-0.020798,0.247997,0.059034,0.966960,0.087544,-0.021375,-0.022487,-0.515940,-6.025219,-34.398643,,,,,,
1466451347.28,2.896764,-0.058879,0.491074,-0.020429,0.519737,-0.010825,0.241970,0.058845,0.968498,0.097156,-0.009758,-0.047691,-0.515940,-6.025219,-34.398643,,,,,,
1466451347.29,2.897278,-0.058829,0.491063,-0.009169,0.161888,-0.006440,0.241473,0.058795,0.968625,0.087613,-0.000262,-0.066662,-0.515940,-6.025219,-34.398643,,,,,,
1466451347.30,2.896046,-0.058827,0.491073,0.005239,-0.229934,-0.000775,0.242666,0.058793,0.968327,0.075083,0.013458,-0.077809,0.042711,-6.004353,-34.406136,,,,,,
1466451347.32,2.882799,-0.059297,0.490773,0.030108,-0.766174,0.008999,0.255464,0.059263,0.965000,0.085081,-0.014173,-0.030278,0.042711,-6.004353,-34.406136,,,,,,
1466451347.31,2.890365,-0.059006,0.490914,0.027029,-0.665316,0.013686,0.248161,0.058972,0.966922,0.066857,-0.015942,-0.052875,0.042711,-6.004353,-34.406136,,,,,,
1466451347.33,2.872701,-0.059463,0.490538,0.041704,-0.870225,0.002213,0.265193,0.059428,0.962362,0.053716,-0.007625,-0.010717,-0.438230,-6.020821,-34.400490,,,,,,
1466451347.34,2.862677,-0.059881,0.490311,0.047856,-1.046508,0.010776,0.274820,0.059845,0.959632,0.017279,-0.011643,-0.012656,-0.438230,-6.020821,-34.400490,,,,,,
1466451347.35,2.851410,-0.060352,0.490066,0.052009,-1.131454,0.011313,0.285607,0.060315,0.956447,0.005699,-0.006223,-0.000026,-0.438230,-6.020821,-34.400490,,,,,,
1466451347.36,2.840657,-0.060788,0.489819,0.047853,-1.050752,0.009738,0.295867,0.060750,0.953295,0.008577,0.008052,-0.003833,-1.131062,-6.044158,-34.380592,,,,,,
1466451347.38,2.822878,-0.061506,0.489458,0.033244,-0.819264,0.005078,0.312754,0.061467,0.947843,0.005682,0.028743,-0.004545,-1.131062,-6.044158,-34.380592,,,,,,
1466451347.37,2.831161,-0.061212,0.489613,0.032081,-0.890415,0.009781,0.304897,0.061174,0.950419,0.024891,0.024016,-0.001230,-1.131062,-6.044158,-34.380592,,,,,,
1466451347.39,2.814609,-0.061929,0.489267,0.037409,-0.887230,0.009766,0.320572,0.061890,0.945200,-0.019180,0.002838,0.007360,-2.498180,-6.105486,-34.297497,,,,,,
1466451347.40,2.806329,-0.062230,0.489089,0.036445,-0.810774,0.007157,0.328382,0.062189,0.942496,-0.014951,-0.002436,0.011575,-2.498180,-6.105486,-34.297497,,,,,,
1466451347.41,2.798944,-0.062673,0.488945,0.035460,-0.749185,0.005705,0.335324,0.062632,0.940019,-0.018200,0.011343,0.012191,-3.065298,-6.132710,-34.246609,,,,,,
1466451347.42,2.791773,-0.063420,0.488765,0.023741,-0.747068,0.011001,0.342039,0.063378,0.937546,-0.039320,0.036079,-0.003449,-3.065298,-6.132710,-34.246609,,,,,,
1466451347.43,2.786434,-0.063899,0.488688,0.001727,-0.477349,0.006093,0.347029,0.063855,0.935678,-0.033125,0.036746,-0.008844,-3.065298,-6.132710,-34.246609,,,,,,
1466451347.45,2.780195,-0.063856,0.488539,-0.001138,-0.209782,0.007606,0.352862,0.063813,0.933497,-0.035128,0.007980,0.000844,-3.562098,-6.175119,-34.190868,,,,,,
1466451347.44,2.782754,-0.063895,0.488609,0.000825,-0.347808,0.005280,0.350471,0.063851,0.934395,-0.039405,0.034751,0.021935,-3.562098,-6.175119,-34.190868,,,,,,
1466451347.46,2.781562,-0.065456,0.488667,-0.012493,0.059950,-0.001552,0.351549,0.065409,0.933882,-0.026536,0.029928,0.003206,-3.562098,-6.175119,-34.190868,,,,,,
1466451347.47,2.783495,-0.065287,0.488751,-0.017622,0.214976,-0.002529,0.349747,0.065241,0.934570,-0.030609,0.018103,0.005402,-3.562098,-6.175119,-34.190868,,,,,,
1466451347.48,2.784952,-0.064403,0.488642,-0.110780,-0.204390,0.000008,0.348405,0.064359,0.935132,2.623428,0.067065,-1.028607,-3.906931,-6.243795,-34.140694,,,,,,
1466451347.49,2.714544,-0.066080,0.486877,0.370599,-9.183695,0.222857,0.413283,0.066032,0.908206,0.062303,-0.005119,-0.583315,-3.906931,-6.243795,-34.140694,,,,,,
1466451347.50,2.636904,-0.067301,0.484770,0.035896,-6.255846,0.098781,0.482441,0.067250,0.873343,0.199231,0.028911,0.825814,-3.906931,-6.243795,-34.140694,,,,,,
1466451347.51,2.591053,-0.067329,0.483566,0.181179,-4.989248,0.113335,0.521962,0.067279,0.850311,-0.007802,-0.017642,-0.024978,-8.794868,-6.337790,-33.201187,,,,,,
1466451347.52,2.520006,-0.068325,0.481242,0.151506,-7.370952,0.162305,0.580967,0.068272,0.811059,0.166729,-0.016026,0.184959,-8.794868,-6.337790,-33.201187,,,,,,
1466451347.53,2.453708,-0.068676,0.479328,0.123033,-6.311244,0.150308,0.633408,0.068622,0.770770,-0.155029,0.187070,0.053526,-8.794868,-6.337790,-33.201187,,,,,,
1466451347.54,2.388719,-0.066664,0.477715,-0.101883,-7.167287,0.279994,0.682220,0.066614,0.728106,-2.847594,0.125631,0.073987,-12.613934,-6.401311,-31.933496,,,,,,
1466451347.55,2.385771,-0.065413,0.476891,-0.109231,3.694348,0.049005,0.684420,0.065367,0.726152,-1.428026,-0.031706,2.619704,-12.613934,-6.401311,-31.933496,,,,,,
1466451347.56,2.464796,-0.063414,0.479432,-0.268064,6.727306,-0.104295,0.625040,0.063372,0.778016,0.792532,-0.078371,-0.981278,-12.613934,-6.401311,-31.933496,,,,,,
1466451347.57,2.462461,-0.064712,0.479119,0.223559,-2.021080,-0.069163,0.626803,0.064667,0.776490,1.303174,-0.135254,-1.078125,-14.381532,-6.252725,-31.207550,,,,,,
1466451347.58,2.438284,-0.066311,0.479011,0.050488,-1.658883,-0.084381,0.645323,0.066262,0.761031,-0.567732,-0.006509,0.586259,-14.381532,-6.252725,-31.207550,,,,,,
1466451347.59,2.456349,-0.066378,0.479717,-0.027285,2.629638,-0.060261,0.631468,0.066329,0.772560,-0.187620,0.048096,0.375862,-14.381532,-6.252725,-31.207550,,,,,,
1466451347.60,2.473547,-0.066621,0.480084,-0.017704,0.965726,-0.027462,0.618079,0.066572,0.783292,0.256326,0.024416,-0.588254,-15.193111,-6.352767,-30.800129,,,,,,
1466451347.62,2.464239,-0.066212,0.479498,0.030264,-0.606969,0.033543,0.625360,0.066164,0.777527,0.316794,0.013792,-0.131271,-15.193111,-6.352767,-30.800129,,,,,,
1466451347.61,2.469089,-0.066236,0.479981,-0.011208,-0.561296,0.035344,0.621580,0.066188,0.780549,0.283373,0.061971,-0.073747,-15.193111,-6.352767,-30.800129,,,,,,
1466451347.63,2.447540,-0.065677,0.478900,-0.005429,-1.819668,0.091142,0.638279,0.065630,0.767003,-0.509510,0.020155,0.123668,-14.387669,-6.345430,-31.186001,,,,,,
1466451347.64,2.446076,-0.065079,0.478633,-0.043959,0.521706,0.047679,0.639426,0.065033,0.766097,-0.221472,0.005295,0.434342,-14.387669,-6.345430,-31.186001,,,,,,
1466451347.65,2.455251,-0.064811,0.478724,-0.010533,0.785140,0.001353,0.632381,0.064766,0.771946,0.080876,-0.019066,-0.111347,-14.387669,-6.345430,-31.186001,,,,,,
1466451347.66,2.456307,-0.064824,0.478793,-0.008375,-0.065324,-0.008213,0.631565,0.064778,0.772612,0.114849,-0.008458,-0.158797,-14.958742,-6.314846,-30.922401,,,,,,
1466451347.67,2.466744,-0.064336,0.479501,-0.024141,0.148077,0.020236,0.623487,0.064291,0.779186,-0.145475,-0.005270,0.088581,-14.958742,-6.314846,-30.922401,,,,,,
1466451347.68,2.473095,-0.063575,0.479608,-0.079834,0.776622,0.041785,0.618555,0.063532,0.783168,-0.023646,0.018148,0.051380,-14.958742,-6.314846,-30.922401,,,,,,
1466451347.69,2.478034,-0.062628,0.479710,-0.070901,0.269058,0.051364,0.614717,0.062587,0.786261,0.129775,0.005376,-0.153570,-14.120903,-6.256615,-31.325563,,,,,,
1466451347.71,2.477295,-0.061175,0.479605,-0.022611,0.468811,-0.013705,0.615353,0.061137,0.785877,0.069172,-0.046824,0.085583,-14.120903,-6.256615,-31.325563,,,,,,
1466451347.70,2.473912,-0.061378,0.479417,-0.029757,-0.067513,0.032229,0.618001,0.061340,0.783781,0.062908,-0.012008,-0.017378,-14.120903,-6.256615,-31.325563,,,,,,
1466451347.72,2.482294,-0.061441,0.479716,0.025321,0.462455,-0.027455,0.611407,0.061402,0.788931,0.148176,-0.025269,-0.080160,-14.104338,-6.184962,-31.347248,,,,,,
1466451347.73,2.485095,-0.061770,0.480010,-0.006905,0.201326,-0.047139,0.609182,0.061730,0.790624,0.196513,0.010154,-0.193655,-14.104338,-6.184962,-31.347248,,,,,,
1466451347.74,2.476332,-0.063626,0.479684,-0.012553,-0.007988,-0.011772,0.616015,0.063583,0.785164,0.113202,0.033172,-0.118324,-14.104338,-6.184962,-31.347248,,,,,,
1466451347.75,2.475022,-0.063621,0.479564,0.008480,-0.177954,0.013798,0.617043,0.063578,0.784357,0.061820,0.013693,-0.029962,-14.019025,-6.257701,-31.371075,,,,,,
1466451347.76,2.471462,-0.064029,0.479418,0.000774,-0.378635,0.016112,0.619816,0.063985,0.782135,0.000302,0.009654,-0.005401,-14.019025,-6.257701,-31.371075,,,,,,
1466451347.77,2.473911,-0.063704,0.479607,0.022051,-0.394532,0.014104,0.617911,0.063661,0.783666,-0.105079,-0.007661,0.113657,-14.170830,-6.273317,-31.299669,,,,,,
1466451347.78,2.471774,-0.063739,0.479420,0.012791,-0.140751,0.010374,0.619583,0.063696,0.782342,-0.065735,0.001947,0.103857,-14.170830,-6.273317,-31.299669,,,,,,
1466451347.79,2.471954,-0.063842,0.479407,0.019160,-0.169391,0.002044,0.619439,0.063799,0.782448,-0.038521,-0.002337,0.002097,-14.170830,-6.273317,-31.299669,,,,,,
1466451347.80,2.469675,-0.063904,0.479314,0.005243,-0.221427,0.007679,0.621218,0.063860,0.781032,-0.097628,0.008589,0.040563,-14.170830,-6.273317,-31.299669,,,,,,
1466451347.81,2.472594,-0.064785,0.479388,-0.007204,0.064179,0.020775,0.618900,0.064740,0.782797,-0.055881,0.021625,0.035470,-14.227544,-6.270015,-31.274591,,,,,,
1466451347.82,2.469339,-0.065346,0.479072,-0.028455,0.099200,0.022662,0.621421,0.065300,0.780750,0.061623,0.018044,-0.080891,-14.227544,-6.270015,-31.274591,,,,,,
1466451347.83,2.465696,-0.065450,0.478863,-0.027671,-0.122738,0.026182,0.624258,0.065403,0.778476,0.027583,0.008846,-0.065555,-14.227544,-6.270015,-31.274591,,,,,,
1466451347.84,2.465341,-0.065070,0.478813,-0.025363,0.022722,0.027401,0.624549,0.065024,0.778274,-0.047035,-0.001532,0.052155,-14.233074,-6.320116,-31.261988,,,,,,
1466451347.85,2.468261,-0.064459,0.478900,-0.034656,0.245724,0.020672,0.622299,0.064415,0.780125,-0.014022,-0.004768,0.013301,-14.233074,-6.320116,-31.261988,,,,,,
1466451347.86,2.468748,-0.064067,0.478850,-0.031532,0.186259,0.018919,0.621935,0.064024,0.780447,0.028517,-0.000700,-0.030310,-14.233074,-6.320116,-31.261988,,,,,,
1466451347.87,2.470110,-0.063756,0.478906,-0.026262,0.133183,0.012870,0.620884,0.063713,0.781309,0.005413,-0.007713,-0.002074,-14.257232,-6.279335,-31.259197,,,,,,
1466451347.88,2.473039,-0.063430,0.479038,-0.023971,0.252126,0.005740,0.618605,0.063388,0.783141,-0.003874,-0.000949,0.023301,-14.257232,-6.279335,-31.259197,,,,,,
1466451347.89,2.475812,-0.063273,0.479139,-0.017556,0.267000,0.001395,0.616437,0.063230,0.784861,0.036273,-0.001020,-0.018153,-14.257232,-6.279335,-31.259197,,,,,,
1466451347.90,2.477767,-0.063133,0.479239,-0.016612,0.168254,0.000951,0.614907,0.063091,0.786071,0.070273,0.002857,-0.055542,-14.124871,-6.256534,-31.323795,,,,,,
1466451347.91,2.475054,-0.062981,0.479030,-0.009232,0.113010,0.003434,0.617044,0.062939,0.784408,0.087912,-0.000683,-0.055251,-14.124871,-6.256534,-31.323795,,,,,,
1466451347.92,2.475757,-0.062879,0.479077,-0.011434,0.053553,0.002741,0.616496,0.062837,0.784847,0.085470,0.006300,-0.071330,-13.977199,-6.244956,-31.392269,,,,,,
1466451347.93,2.474203,-0.063204,0.479025,-0.014720,-0.017600,0.005312,0.617702,0.063162,0.783872,0.018422,0.010736,-0.039655,-13.977199,-6.244956,-31.392269,,,,,,
1466451347.94,2.476983,-0.063427,0.479214,-0.025267,0.079013,0.015339,0.615511,0.063384,0.785575,-0.060107,0.011887,0.024636,-13.977199,-6.244956,-31.392269,,,,,,
1466451347.95,2.482229,-0.063340,0.479495,-0.038926,0.230863,0.018630,0.611386,0.063298,0.788797,-0.079067,0.007182,0.039114,-13.977199,-6.244956,-31.392269,,,,,,
1466451347.97,2.499277,-0.062754,0.480336,-0.057859,0.453841,0.040628,0.597872,0.062713,0.799135,-0.144427,0.009385,0.099227,-14.000724,-6.254951,-31.379795,,,,,,
1466451347.96,2.489351,-0.063090,0.479902,-0.048449,0.283972,0.021479,0.605762,0.063048,0.793144,-0.113666,0.005723,0.051674,-14.000724,-6.254951,-31.379795,,,,,,
1466451347.98,2.505737,-0.062006,0.480394,-0.066093,0.678951,0.038144,0.592725,0.061966,0.803018,0.068515,0.012939,-0.035470,-14.000724,-6.254951,-31.379795,,,,,,
1466451348.00,2.514230,-0.060495,0.480929,-0.059192,0.208631,0.021940,0.585938,0.060458,0.808098,-0.053238,-0.004138,0.019799,-13.094482,-6.197767,-31.779842,,,,,,
1466451347.99,2.510370,-0.061250,0.480611,-0.076053,0.351964,0.024218,0.589026,0.061211,0.805793,0.156992,0.010017,-0.152488,-13.094482,-6.197767,-31.779842,,,,,,
1466451348.01,2.519922,-0.059902,0.481101,-0.061775,0.697059,0.019939,0.581349,0.059866,0.811449,-0.099080,-0.006414,0.119811,-13.094482,-6.197767,-31.779842,,,,,,
1466451348.02,2.527861,-0.059170,0.481385,-0.079786,0.765029,0.017366,0.574914,0.059135,0.816074,0.031928,-0.005668,-0.047504,-12.827953,-6.142939,-31.898968,,,,,,
1466451348.03,2.533733,-0.058426,0.481719,-0.080060,0.536760,0.012411,0.570137,0.058393,0.819471,0.074226,0.003130,-0.078901,-12.827953,-6.142939,-31.898968,,,,,,
1466451348.04,2.540588,-0.057760,0.482144,-0.071397,0.644017,0.006424,0.564528,0.057728,0.823393,-0.017196,0.001080,0.034777,-12.827953,-6.142939,-31.898968,,,,,,
1466451348.05,2.548635,-0.057198,0.482461,-0.065834,0.835139,0.005231,0.557902,0.057166,0.827936,-0.008403,0.018960,0.028708,-11.988443,-6.041555,-32.243031,,,,,,
1466451348.06,2.556167,-0.056475,0.482779,-0.081986,0.705580,0.015608,0.551673,0.056445,0.832148,0.033837,0.025387,-0.062587,-11.988443,-6.041555,-32.243031,,,,,,
1466451348.07,2.562155,-0.055603,0.483025,-0.088584,0.576001,0.031314,0.546707,0.055574,0.835477,0.024795,0.025786,-0.055128,-11.988443,-6.041555,-32.243031,,,,,,
1466451348.08,2.567318,-0.055093,0.483161,-0.096055,0.580213,0.044052,0.542402,0.055065,0.838313,0.015902,0.017750,-0.018412,-11.486952,-5.993395,-32.434013,,,,,,
1466451348.09,2.572663,-0.054094,0.483238,-0.084448,0.503746,0.048801,0.537943,0.054068,0.841246,0.044730,0.028208,-0.027571,-11.486952,-5.993395,-32.434013,,,,,,
1466451348.10,2.576629,-0.053209,0.483234,-0.075029,0.369960,0.047521,0.534628,0.053183,0.843413,0.040873,0.007302,-0.025664,-11.486952,-5.993395,-32.434013,,,,,,
1466451348.11,2.580153,-0.052332,0.483211,-0.070792,0.354028,0.048689,0.531677,0.052308,0.845330,0.026627,0.002288,-0.003534,-10.829871,-5.880517,-32.679806,,,,,,
1466451348.12,2.582708,-0.051777,0.483133,-0.060141,0.342361,0.040257,0.529531,0.051754,0.846711,0.030940,0.007038,-0.007233,-10.829871,-5.880517,-32.679806,,,,,,
1466451348.13,2.585803,-0.051094,0.483144,-0.060176,0.304154,0.034110,0.526925,0.051072,0.848376,0.023947,0.000793,-0.011782,-10.829871,-5.880517,-32.679806,,,,,,
1466451348.14,2.588928,-0.050422,0.483191,-0.059084,0.321151,0.030811,0.524290,0.050400,0.850047,0.000231,-0.004639,0.003072,-10.635790,-5.833552,-32.751884,,,,,,
1466451348.15,2.592478,-0.049749,0.483264,-0.063283,0.365755,0.028398,0.521286,0.049728,0.851932,-0.006943,-0.011291,0.007993,-10.635790,-5.833552,-32.751884,,,,,,
1466451348.16,2.596063,-0.048685,0.483356,-0.066444,0.389121,0.026121,0.518256,0.048666,0.853840,0.006890,-0.010885,-0.006946,-10.635790,-5.833552,-32.751884,,,,,,
1466451348.18,2.603585,-0.047245,0.483655,-0.065394,0.374261,0.024086,0.511854,0.047227,0.857773,-0.008741,-0.028062,0.015960,-10.205987,-5.728357,-32.906837,,,,,,
1466451348.17,2.599883,-0.047948,0.483514,-0.071782,0.374264,0.024080,0.515009,0.047930,0.855844,0.017538,-0.019197,-0.010110,-10.205987,-5.728357,-32.906837,,,,,,
1466451348.19,2.607764,-0.046615,0.483770,-0.058927,0.433724,0.021591,0.508280,0.046598,0.859930,-0.016337,-0.028974,0.036127,-10.205987,-5.728357,-32.906837,,,,,,
1466451348.20,2.612295,-0.045136,0.483904,-0.053576,0.447543,0.015125,0.504413,0.045120,0.862283,0.012463,-0.029434,0.017020,-9.961386,-5.677715,-32.990463,,,,,,
1466451348.21,2.616448,-0.044681,0.484040,-0.044031,0.407207,0.009001,0.500838,0.044666,0.864388,0.021943,-0.030857,0.005485,-9.961386,-5.677715,-32.990463,,,,,,
1466451348.22,2.620447,-0.044327,0.484171,-0.033386,0.399778,0.005865,0.497385,0.044313,0.866397,-0.002451,-0.017381,0.014874,-9.961386,-5.677715,-32.990463,,,,,,
1466451348.23,2.624630,-0.043999,0.484268,-0.033363,0.422070,0.007854,0.493763,0.043984,0.868483,-0.010365,0.001365,0.006425,-9.410159,-5.575848,-33.169186,,,,,,
1466451348.25,2.631457,-0.043650,0.484373,-0.031385,0.308439,0.013890,0.487830,0.043636,0.871847,0.006509,0.011448,-0.018484,-9.410159,-5.575848,-33.169186,,,,,,
1466451348.24,2.628201,-0.043993,0.484332,-0.035544,0.382776,0.010226,0.490660,0.043979,0.870241,0.007525,0.010388,-0.014925,-9.410159,-5.575848,-33.169186,,,,,,
1466451348.26,2.634278,-0.043295,0.484392,-0.031428,0.275520,0.015160,0.485377,0.043281,0.873233,-0.004008,0.010414,-0.010196,-9.153063,-5.563318,-33.243153,,,,,,
1466451348.27,2.636858,-0.042935,0.484392,-0.031463,0.251093,0.017443,0.483129,0.042922,0.874496,-0.005438,0.006944,-0.004211,-8.952557,-5.539454,-33.301689,,,,,,
1466451348.28,2.639039,-0.042613,0.484346,-0.019836,0.183133,0.017880,0.481228,0.042600,0.875560,-0.006619,-0.001309,-0.002467,-8.952557,-5.539454,-33.301689,,,,,,
1466451348.29,2.640926,-0.042414,0.484275,-0.013420,0.200127,0.014587,0.479579,0.042402,0.876474,-0.025691,-0.012006,0.021460,-8.952557,-5.539454,-33.301689,,,,,,
1466451348.30,2.643277,-0.042256,0.484253,-0.013357,0.240493,0.007947,0.477520,0.042243,0.877605,-0.015911,-0.009345,0.011372,-8.952557,-5.539454,-33.301689,,,,,,
1466451348.31,2.645539,-0.042086,0.484253,-0.015512,0.220320,0.008071,0.475537,0.042074,0.878689,-0.019406,-0.003804,-0.007794,-8.952557,-5.539454,-33.301689,,,,,,
1466451348.33,2.651703,-0.041679,0.484306,-0.028224,0.285079,0.016168,0.470120,0.041667,0.881619,-0.061001,0.001057,0.007129,-8.655714,-5.505858,-33.385628,,,,,,
1466451348.34,2.654830,-0.041333,0.484278,-0.029250,0.319052,0.018083,0.467368,0.041321,0.883097,-0.050238,0.001342,0.011129,-8.655714,-5.505858,-33.385628,,,,,,
1466451348.32,2.648990,-0.041986,0.484314,-0.021885,0.235189,0.010100,0.472504,0.041974,0.880329,-0.040130,0.002338,-0.006092,-8.655714,-5.505858,-33.385628,,,,,,
1466451348.35,2.658099,-0.041031,0.484240,-0.022844,0.331793,0.016945,0.464484,0.041019,0.884631,-0.050177,0.013379,0.009030,-8.271738,-5.474765,-33.487930,,,,,,
1466451348.36,2.663513,-0.041110,0.484282,-0.024930,0.363660,0.015677,0.459686,0.041098,0.887130,-0.052567,0.010385,0.008195,-8.271738,-5.474765,-33.487930,,,,,,
1466451348.37,2.667329,-0.040786,0.484244,-0.028105,0.385948,0.019792,0.456303,0.040775,0.888889,-0.057622,0.004452,0.000454,-8.271738,-5.474765,-33.487930,,,,,,
1466451348.38,2.671374,-0.040425,0.484202,-0.030206,0.408247,0.019650,0.452711,0.040414,0.890741,-0.047102,-0.006692,0.000357,-7.981194,-5.467259,-33.559586,,,,,,
1466451348.39,2.675450,-0.040112,0.484169,-0.022750,0.404008,0.015426,0.449082,0.040101,0.892590,-0.033249,-0.016648,-0.000378,-7.719125,-5.445006,-33.624443,,,,,,
1466451348.40,2.680834,-0.039370,0.484184,-0.008907,0.396593,0.009101,0.444283,0.039360,0.895021,-0.037499,-0.017510,0.010038,-7.719125,-5.445006,-33.624443,,,,,,
1466451348.41,2.684837,-0.039357,0.484143,0.004947,0.396604,0.002728,0.440697,0.039347,0.896793,-0.035424,-0.016047,0.014172,-7.719125,-5.445006,-33.624443,,,,,,
1466451348.42,2.688558,-0.039451,0.484112,0.012370,0.362640,-0.003438,0.437355,0.039441,0.898423,-0.046959,-0.001583,-0.001130,-7.719125,-5.445006,-33.624443,,,,,,
1466451348.43,2.692046,-0.039622,0.484072,0.018741,0.346713,-0.004396,0.434217,0.039612,0.899937,-0.054547,0.003205,-0.009068,-7.719125,-5.445006,-33.624443,,,,,,
1466451348.44,2.697544,-0.039960,0.484092,0.014501,0.366890,-0.001334,0.429256,0.039949,0.902299,-0.066036,0.003600,-0.015092,-7.142828,-5.413139,-33.756691,,,,,,
1466451348.45,2.701169,-0.040046,0.484048,0.009158,0.356266,0.001920,0.425981,0.040035,0.903846,-0.059114,0.001362,-0.027412,-7.142828,-5.413139,-33.756691,,,,,,
1466451348.46,2.704752,-0.040116,0.483994,0.008107,0.366884,0.001853,0.422739,0.040105,0.905364,-0.066706,-0.004201,-0.021330,-7.142828,-5.413139,-33.756691,,,,,,
1466451348.47,2.708648,-0.040208,0.483962,0.010278,0.393440,-0.002570,0.419206,0.040198,0.907001,-0.060091,-0.002188,-0.018680,-6.594169,-5.436397,-33.864418,,,,,,
1466451348.48,2.714336,-0.040112,0.484028,0.010282,0.395576,-0.003647,0.414042,0.040101,0.909374,-0.065608,-0.007936,-0.022197,-6.594169,-5.436397,-33.864418,,,,,,
1466451348.49,2.718329,-0.040266,0.484016,0.014550,0.400885,-0.004741,0.410405,0.040255,0.911014,-0.064488,-0.009402,-0.028156,-6.594169,-5.436397,-33.864418,,,,,,
1466451348.50,2.722322,-0.040459,0.483999,0.020942,0.401947,-0.005805,0.406761,0.040448,0.912639,-0.077156,-0.005169,-0.031077,-6.269187,-5.435974,-33.926151,,,,,,
1466451348.51,2.726692,-0.040644,0.483977,0.016736,0.446542,-0.005025,0.402766,0.040633,0.914401,-0.072077,-0.002638,-0.031451,-6.269187,-5.435974,-33.926151,,,,,,
1466451348.52,2.731966,-0.040972,0.484006,0.017776,0.423192,-0.007007,0.397933,0.040961,0.916500,-0.055923,0.001779,-0.048931,-6.269187,-5.435974,-33.926151,,,,,,
1466451348.53,2.736234,-0.041207,0.483981,0.026304,0.432741,-0.005994,0.394013,0.041196,0.918181,-0.069230,-0.001431,-0.050261,-5.668353,-5.464955,-34.027050,,,,,,
1466451348.54,2.741056,-0.041390,0.483954,0.018921,0.492200,-0.004245,0.389579,0.041378,0.920063,-0.072944,0.001102,-0.045185,-5.668353,-5.464955,-34.027050,,,,,,
1466451348.55,2.746045,-0.041556,0.483902,0.017857,0.497501,-0.001086,0.384981,0.041544,0.921989,-0.075883,0.000036,-0.061912,-5.668353,-5.464955,-34.027050,,,,,,
1466451348.57,2.757680,-0.041828,0.483808,0.009387,0.544215,0.003934,0.374224,0.041816,0.926395,-0.055117,0.003762,-0.072132,-5.358116,-5.479371,-34.074966,,,,,,
1466451348.56,2.752197,-0.041761,0.483878,0.011508,0.535722,0.002925,0.379298,0.041749,0.924332,-0.075740,0.001937,-0.066269,-5.358116,-5.479371,-34.074966,,,,,,
1466451348.58,2.762796,-0.041832,0.483739,0.001873,0.500676,0.007393,0.369479,0.041820,0.928298,-0.051318,0.004307,-0.094481,-5.358116,-5.479371,-34.074966,,,,,,
1466451348.59,2.767798,-0.041814,0.483598,0.001868,0.510208,0.015849,0.364832,0.041802,0.930135,-0.073404,0.004066,-0.091252,-4.615984,-5.495966,-34.180744,,,,,,
1466451348.60,2.773239,-0.041752,0.483431,0.000855,0.555858,0.018755,0.359766,0.041740,0.932108,-0.072687,-0.004905,-0.082163,-4.615984,-5.495966,-34.180744,,,,,,
1466451348.61,2.778851,-0.041670,0.483268,-0.002337,0.555862,0.017688,0.354531,0.041658,0.934116,-0.036447,-0.000048,-0.094608,-4.615984,-5.495966,-34.180744,,,,,,
1466451348.63,2.789347,-0.041611,0.482970,0.005130,0.565418,0.016571,0.344708,0.041599,0.937788,-0.063534,-0.007740,-0.086485,-4.260087,-5.495858,-34.226940,,,,,,
1466451348.62,2.783980,-0.041608,0.483139,-0.000269,0.500659,0.013778,0.349736,0.041596,0.935924,-0.022557,-0.000672,-0.109371,-4.260087,-5.495858,-34.226940,,,,,,
1466451348.64,2.795489,-0.041542,0.482800,-0.003322,0.621692,0.018338,0.338942,0.041530,0.939890,-0.060149,-0.007350,-0.099695,-4.260087,-5.495858,-34.226940,,,,,,
1466451348.65,2.801425,-0.041389,0.482646,-0.009765,0.581341,0.020714,0.333360,0.041378,0.941891,-0.040162,0.000508,-0.133526,-3.500302,-5.494090,-34.313251,,,,,,
1466451348.66,2.807306,-0.041215,0.482460,-0.011876,0.602566,0.024836,0.327817,0.041203,0.943842,-0.064587,-0.002721,-0.128626,-3.500302,-5.494090,-34.313251,,,,,,
1466451348.67,2.814009,-0.040958,0.482239,-0.020294,0.690685,0.029597,0.321487,0.040947,0.946028,-0.068221,-0.007667,-0.119612,-3.500302,-5.494090,-34.313251,,,,,,
1466451348.68,2.820620,-0.040645,0.481996,-0.022494,0.639711,0.033108,0.315229,0.040634,0.948145,-0.014814,-0.001984,-0.147120,-3.096461,-5.485981,-34.353340,,,,,,
1466451348.69,2.826499,-0.040360,0.481766,-0.020427,0.586626,0.031314,0.309653,0.040349,0.949993,-0.010077,0.000300,-0.159008,-3.096461,-5.485981,-34.353340,,,,,,
1466451348.70,2.832464,-0.040061,0.481539,-0.022548,0.592997,0.031272,0.303985,0.040051,0.951835,-0.004470,-0.007305,-0.150107,-3.096461,-5.485981,-34.353340,,,,,,
1466451348.71,2.837831,-0.039818,0.481240,-0.010939,0.517592,0.036015,0.298875,0.039808,0.953462,-0.007936,-0.011396,-0.167924,-2.236733,-5.455037,-34.424927,,,,,,
1466451348.72,2.842644,-0.039675,0.480915,-0.003533,0.478304,0.035204,0.294284,0.039665,0.954895,-0.001040,-0.014015,-0.167221,-2.236733,-5.455037,-34.424927,,,,,,
1466451348.74,2.851596,-0.039575,0.480244,0.006008,0.437963,0.031209,0.285725,0.039565,0.957495,0.019176,-0.004012,-0.174398,-2.236733,-5.455037,-34.424927,,,,,,
1466451348.73,2.847208,-0.039601,0.480574,0.004949,0.449632,0.035392,0.289924,0.039590,0.956231,0.011117,-0.006997,-0.172997,-2.236733,-5.455037,-34.424927,,,,,,
1466451348.75,2.855960,-0.039559,0.479957,0.008147,0.439035,0.026946,0.281544,0.039548,0.958733,0.006496,0.002383,-0.192131,-2.236733,-5.455037,-34.424927,,,,,,
1466451348.76,2.860670,-0.039419,0.479680,-0.009909,0.482564,0.031977,0.277027,0.039409,0.960054,-0.001453,-0.001750,-0.199403,-2.236733,-5.455037,-34.424927,,,,,,
1466451348.77,2.865678,-0.039199,0.479445,-0.015200,0.503811,0.028645,0.272217,0.039189,0.961437,0.010635,0.002422,-0.208050,-1.273147,-5.449034,-34.474964,,,,,,
1466451348.78,2.870713,-0.038897,0.479204,-0.024791,0.505925,0.033945,0.267376,0.038887,0.962807,0.016147,0.000786,-0.225564,-1.273147,-5.449034,-34.474964,,,,,,
1466451348.79,2.875939,-0.038433,0.478936,-0.040744,0.528216,0.039111,0.262347,0.038424,0.964208,0.026197,-0.003481,-0.225912,-1.273147,-5.449034,-34.474964,,,,,,
1466451348.81,2.886204,-0.037344,0.478282,-0.052502,0.501659,0.045653,0.252446,0.037335,0.966891,0.076534,0.004428,-0.237642,-0.929447,-5.435502,-34.488083,,,,,,
1466451348.80,2.881145,-0.037929,0.478611,-0.039705,0.519701,0.046617,0.257327,0.037920,0.965580,0.038449,-0.008455,-0.244419,-0.929447,-5.435502,-34.488083,,,,,,
1466451348.82,2.891000,-0.036678,0.478042,-0.058919,0.468764,0.039466,0.247811,0.036670,0.968114,0.101874,0.013257,-0.245778,-0.929447,-5.435502,-34.488083,,,,,,
1466451348.83,2.895253,-0.035992,0.477734,-0.060071,0.414587,0.049385,0.243698,0.035984,0.969183,0.106430,0.001675,-0.264227,-0.237188,-5.370903,-34.509899,,,,,,
1466451348.85,2.901109,-0.034550,0.476992,-0.056088,0.206451,0.058145,0.238030,0.034543,0.970643,0.156394,0.002627,-0.295793,-0.237188,-5.370903,-34.509899,,,,,,
1466451348.84,2.898766,-0.035245,0.477402,-0.065506,0.325398,0.049939,0.240298,0.035238,0.970059,0.136335,-0.004918,-0.252194,-0.237188,-5.370903,-34.509899,,,,,,
1466451348.86,2.902096,-0.033829,0.476524,-0.059473,0.060974,0.063312,0.237078,0.033823,0.970902,0.188016,-0.004007,-0.264572,-0.237188,-5.370903,-34.509899,,,,,,
1466451348.87,2.902140,-0.033173,0.475963,-0.046788,-0.000638,0.071162,0.237041,0.033167,0.970933,0.172581,-0.012476,-0.284471,-0.237188,-5.370903,-34.509899,,,,,,
1466451348.88,2.901447,-0.032464,0.475443,-0.058607,-0.096177,0.065363,0.237718,0.032459,0.970792,0.218840,0.001248,-0.239499,0.136117,-5.288095,-34.523235,,,,,,
1466451348.89,2.900039,-0.031821,0.474925,-0.046956,-0.142905,0.066732,0.239091,0.031815,0.970476,0.207122,-0.006638,-0.259981,0.136117,-5.288095,-34.523235,,,,,,
1466451348.90,2.898336,-0.031163,0.474354,-0.051272,-0.183260,0.070174,0.240747,0.031157,0.970088,0.220770,-0.011016,-0.226359,0.136117,-5.288095,-34.523235,,,,,,
1466451348.91,2.896396,-0.030560,0.473813,-0.045949,-0.192804,0.064917,0.242633,0.030555,0.969637,0.227261,-0.006309,-0.247774,-0.005671,-5.216760,-34.534351,,,,,,
1466451348.92,2.894061,-0.029865,0.473332,-0.058792,-0.252247,0.061019,0.244903,0.029861,0.969088,0.265366,0.006333,-0.232546,-0.005671,-5.216760,-34.534351,,,,,,
1466451348.93,2.891290,-0.029191,0.472850,-0.053497,-0.268188,0.065382,0.247592,0.029187,0.968425,0.254498,-0.001095,-0.237071,-0.005671,-5.216760,-34.534351,,,,,,
1466451348.94,2.888811,-0.028381,0.472362,-0.069452,-0.252259,0.067395,0.249998,0.028378,0.967831,0.273119,-0.010082,-0.204815,-0.005671,-5.216760,-34.534351,,,,,,
1466451348.95,2.885949,-0.027573,0.471846,-0.065246,-0.289433,0.070826,0.252772,0.027570,0.967133,0.274679,-0.012082,-0.245392,-0.346155,-5.140063,-34.544121,,,,,,
1466451348.96,2.882890,-0.026636,0.471435,-0.082289,-0.313814,0.059253,0.255736,0.026633,0.966380,0.313478,0.004434,-0.199671,-0.346155,-5.140063,-34.544121,,,,,,
1466451348.97,2.879444,-0.025668,0.471084,-0.087662,-0.353098,0.059494,0.259071,0.025666,0.965517,0.332955,0.003311,-0.224947,-0.556676,-5.089228,-34.548897,,,,,,
1466451348.98,2.875622,-0.024586,0.470725,-0.096233,-0.389207,0.063970,0.262766,0.024583,0.964546,0.337881,0.001525,-0.200813,-0.556676,-5.089228,-34.548897,,,,,,
1466451348.99,2.871476,-0.023468,0.470350,-0.100540,-0.425309,0.065256,0.266770,0.023465,0.963474,0.353331,-0.001844,-0.190220,-0.556676,-5.089228,-34.548897,,,,,,
1466451349.00,2.866895,-0.022200,0.469969,-0.117644,-0.467793,0.072957,0.271189,0.022199,0.962270,0.373204,-0.001584,-0.195028,-0.813306,-5.026326,-34.553017,,,,,,
1466451349.01,2.861575,-0.020738,0.469562,-0.129479,-0.552754,0.081993,0.276313,0.020737,0.960844,0.391900,0.003647,-0.178877,-0.813306,-5.026326,-34.553017,,,,,,
1466451349.02,2.855840,-0.019107,0.469087,-0.148684,-0.570819,0.090603,0.281828,0.019106,0.959275,0.386873,-0.014528,-0.175400,-0.813306,-5.026326,-34.553017,,,,,,
1466451349.03,2.850013,-0.017386,0.468740,-0.157209,-0.597325,0.077988,0.287422,0.017385,0.957646,0.425682,0.016443,-0.135182,-1.510786,-4.856021,-34.553909,,,,,,
1466451349.04,2.843466,-0.015680,0.468479,-0.155150,-0.659960,0.074125,0.293693,0.015679,0.955771,0.434029,0.017478,-0.103827,-1.510786,-4.856021,-34.553909,,,,,,
1466451349.05,2.837511,-0.013963,0.468323,-0.163529,-0.566488,0.062886,0.299388,0.013962,0.954029,0.418126,0.001525,-0.047551,-1.945479,-4.745944,-34.547462,,,,,,
1466451349.06,2.832641,-0.012225,0.468286,-0.163391,-0.469841,0.053764,0.304037,0.012225,0.952582,0.414499,0.010785,-0.007803,-1.945479,-4.745944,-34.547462,,,,,,
1466451349.07,2.827267,-0.010393,0.468262,-0.177379,-0.562235,0.061779,0.309158,0.010393,0.950954,0.460068,-0.024508,-0.074108,-1.945479,-4.745944,-34.547462,,,,,,
1466451349.09,2.818407,-0.006622,0.468486,-0.186632,-0.337064,0.036940,0.317582,0.006622,0.948208,0.433135,0.010620,0.063221,-2.325026,-4.631471,-34.539543,,,,,,
1466451349.08,2.822106,-0.008521,0.468279,-0.180462,-0.486822,0.052787,0.314068,0.008521,0.949362,0.439991,-0.033927,-0.028708,-2.325026,-4.631471,-34.539543,,,,,,
1466451349.10,2.815260,-0.004607,0.468749,-0.204703,-0.308395,0.039935,0.320568,0.004607,0.947214,0.441151,-0.021544,0.050222,-2.325026,-4.631471,-34.539543,,,,,,
1466451349.11,2.812671,-0.002557,0.469179,-0.205652,-0.247816,0.019330,0.323021,0.002557,0.946388,0.463630,-0.005884,0.049293,-2.325026,-4.631471,-34.539543,,,,,,
1466451349.12,2.809679,-0.000566,0.469682,-0.205740,-0.323195,0.016609,0.325853,0.000566,0.945420,0.496092,0.007567,0.082366,-2.934138,-4.371423,-34.527058,,,,,,
1466451349.13,2.806382,0.001481,0.470142,-0.208946,-0.317911,0.026153,0.328968,-0.001481,0.944340,0.457409,-0.002807,0.132076,-2.934138,-4.371423,-34.527058,,,,,,
1466451349.15,2.797725,0.005089,0.471362,-0.174130,-0.614101,0.002498,0.337126,-0.005089,0.941446,0.536775,0.033837,0.150366,-3.128763,-4.227709,-34.527866,,,,,,
1466451349.14,2.803180,0.003412,0.470755,-0.199342,-0.346505,-0.002398,0.331988,-0.003412,0.943277,0.488492,0.010981,0.153631,-3.128763,-4.227709,-34.527866,,,,,,
1466451349.16,2.791033,0.006737,0.471803,-0.166757,-0.658732,0.014494,0.343415,-0.006737,0.939159,0.464583,-0.010337,0.205097,-3.128763,-4.227709,-34.527866,,,,,,
1466451349.17,2.784663,0.008101,0.472477,-0.145366,-0.650131,-0.028116,0.349387,-0.008101,0.936943,0.482766,0.005308,0.249641,-3.773848,-3.964143,-34.494637,,,,,,
1466451349.18,2.776656,0.008866,0.473425,-0.088049,-0.860280,-0.069319,0.356876,-0.008866,0.934110,0.539685,0.066208,0.275851,-3.773848,-3.964143,-34.494637,,,,,,
1466451349.19,2.767985,0.009292,0.474350,-0.075244,-0.843289,-0.072606,0.364961,-0.009292,0.930976,0.451628,0.024841,0.308053,-3.773848,-3.964143,-34.494637,,,,,,
1466451349.20,2.759636,0.009744,0.475352,-0.074184,-0.853895,-0.076796,0.372719,-0.009744,0.927893,0.422646,-0.012183,0.337945,-4.265982,-3.878955,-34.446934,,,,,,
1466451349.21,2.749467,0.009749,0.476350,-0.031832,-1.074716,-0.095594,0.382136,-0.009749,0.924055,0.444860,0.018798,0.323717,-4.265982,-3.878955,-34.446934,,,,,,
1466451349.22,2.738612,0.009549,0.477400,-0.019007,-1.064057,-0.112679,0.392144,-0.009549,0.919854,0.389365,0.019010,0.359748,-4.265982,-3.878955,-34.446934,,,,,,
1466451349.23,2.728070,0.009110,0.478491,-0.000881,-1.055552,-0.120165,0.401820,-0.009110,0.915673,0.369755,0.019532,0.406104,-5.558785,-3.822850,-34.268383,,,,,,
1466451349.24,2.715968,0.008493,0.479719,0.010599,-1.274230,-0.140071,0.412875,-0.008492,0.910748,0.416150,0.013757,0.360813,-5.558785,-3.822850,-34.268383,,,,,,
1466451349.25,2.701875,0.007600,0.480958,0.033845,-1.436662,-0.151803,0.425672,-0.007600,0.904846,0.328113,0.026017,0.439072,-5.558785,-3.822850,-34.268383,,,,,,
,,,,,,,,,,,,,,,,29.719979,-95.399025,10.101612,-1.000000,-1.000000,1466451349.29
1466451349.26,2.687242,0.006482,0.482162,0.052981,-1.471691,-0.159015,0.438870,-0.006482,0.898527,0.326603,0.012738,0.433611,-6.322789,-3.839153,-34.133846,,,,,,
1466451349.27,2.670700,0.005251,0.483212,0.064332,-1.736127,-0.142443,0.453676,-0.005251,0.891151,0.310912,-0.010786,0.385811,-6.322789,-3.839153,-34.133846,,,,,,
1466451349.28,2.650639,0.004050,0.483891,0.079799,-2.082379,-0.105130,0.471463,-0.004050,0.881876,0.194568,-0.006158,0.438100,-6.322789,-3.839153,-34.133846,,,,,,
1466451349.29,2.629289,0.002792,0.484183,0.103121,-2.128109,-0.082466,0.490185,-0.002792,0.871614,0.173802,0.022568,0.498961,-6.322789,-3.839153,-34.133846,,,,,,
1466451349.30,2.608168,0.001330,0.484355,0.121247,-2.124904,-0.093113,0.508485,-0.001330,0.861070,0.302779,0.030215,0.436034,-6.322789,-3.839153,-34.133846,,,,,,
1466451349.31,2.584935,-0.000439,0.484680,0.141200,-2.403007,-0.127540,0.528352,0.000439,0.849025,0.316772,0.031696,0.421681,-9.927749,-4.041731,-33.240643,,,,,,
1466451349.32,2.560009,-0.002653,0.485087,0.172036,-2.489996,-0.161026,0.549346,0.002653,0.835591,0.234666,0.014650,0.486644,-9.927749,-4.041731,-33.240643,,,,,,
1466451349.33,2.535775,-0.004947,0.485513,0.160432,-2.406105,-0.162628,0.569428,0.004947,0.822027,0.151306,-0.035633,0.463145,-11.504982,-4.169713,-32.712154,,,,,,
1466451349.34,2.511249,-0.007008,0.485883,0.146471,-2.470921,-0.143075,0.589408,0.007008,0.807805,0.058923,-0.031010,0.468349,-11.504982,-4.169713,-32.712154,,,,,,
1466451349.35,2.486715,-0.008809,0.485979,0.132596,-2.435980,-0.104988,0.609038,0.008808,0.793092,0.010575,-0.044148,0.464278,-11.504982,-4.169713,-32.712154,,,,,,
1466451349.36,2.463232,-0.010121,0.485992,0.094349,-2.325609,-0.078043,0.627486,0.010121,0.778562,0.031160,-0.042347,0.438463,-13.072237,-4.309568,-32.099541,,,,,,
1466451349.37,2.440247,-0.011204,0.486023,0.079481,-2.279971,-0.068764,0.645206,0.011204,0.763927,0.032132,0.002178,0.474919,-13.072237,-4.309568,-32.099541,,,,,,
1466451349.38,2.418563,-0.012338,0.486004,0.088201,-2.126002,-0.073979,0.661609,0.012338,0.749748,-0.000217,-0.006738,0.486230,-14.589045,-4.413347,-31.424805,,,,,,
1466451349.39,2.399085,-0.013404,0.486135,0.064033,-1.887055,-0.086146,0.676077,0.013403,0.736709,-0.007391,0.004892,0.500931,-14.589045,-4.413347,-31.424805,,,,,,
1466451349.40,2.382051,-0.014620,0.486347,0.080351,-1.637492,-0.104726,0.688515,0.014619,0.725074,0.043083,0.019805,0.515572,-14.589045,-4.413347,-31.424805,,,,,,
1466451349.41,2.366917,-0.016125,0.486716,0.079541,-1.483446,-0.136562,0.699394,0.016124,0.714555,0.003289,-0.003109,0.491546,-17.074352,-4.561593,-30.124649,,,,,,
1466451349.42,2.353649,-0.017728,0.487206,0.085177,-1.258305,-0.152871,0.708793,0.017727,0.705194,-0.056602,0.007343,0.530448,-17.074352,-4.561593,-30.124649,,,,,,
1466451349.43,2.343191,-0.019539,0.487663,0.089800,-0.977974,-0.161011,0.716105,0.019538,0.697719,-0.079310,-0.029349,0.494267,-17.074352,-4.561593,-30.124649,,,,,,
1466451349.45,2.326581,-0.022881,0.488733,0.090062,-0.762440,-0.158104,0.727543,0.022879,0.685680,-0.075962,-0.009497,0.461323,-17.910419,-4.658818,-29.620068,,,,,,
1466451349.44,2.334436,-0.021160,0.488274,0.067574,-0.863303,-0.156430,0.722162,0.021158,0.691400,-0.095789,-0.018259,0.458044,-17.910419,-4.658818,-29.620068,,,,,,
1466451349.46,2.319523,-0.024395,0.489186,0.061375,-0.673304,-0.133145,0.732338,0.024393,0.680504,-0.097298,-0.022684,0.442726,-17.910419,-4.658818,-29.620068,,,,,,
1466451349.47,2.313154,-0.025707,0.489583,0.063515,-0.642551,-0.119498,0.736633,0.025704,0.675804,-0.114182,-0.013649,0.413033,-18.882139,-4.866098,-28.976233,,,,,,
1466451349.48,2.307055,-0.026953,0.489946,0.052919,-0.600077,-0.118711,0.740717,0.026950,0.671277,-0.060343,0.008542,0.441425,-18.882139,-4.866098,-28.976233,,,,,,
1466451349.49,2.301053,-0.028222,0.490319,0.062506,-0.596896,-0.118721,0.744707,0.028218,0.666795,-0.065370,0.003261,0.441451,-18.882139,-4.866098,-28.976233,,,,,,
1466451349.50,2.295002,-0.029558,0.490636,0.064609,-0.616012,-0.117535,0.748699,0.029553,0.662251,-0.116283,-0.001508,0.429714,-19.230688,-4.945554,-28.732531,,,,,,
1466451349.51,2.288993,-0.030842,0.490933,0.061436,-0.599022,-0.117644,0.752636,0.030837,0.657715,-0.130230,0.000764,0.426819,-19.230688,-4.945554,-28.732531,,,,,,
1466451349.52,2.282799,-0.032096,0.491103,0.070962,-0.624545,-0.104701,0.756665,0.032090,0.653015,-0.138394,-0.002717,0.418762,-19.230688,-4.945554,-28.732531,,,,,,
1466451349.53,2.276127,-0.033238,0.491253,0.060213,-0.682977,-0.090508,0.760977,0.033232,0.647928,-0.168325,-0.002882,0.416388,-19.899498,-5.108308,-28.244493,,,,,,
1466451349.54,2.269403,-0.034386,0.491289,0.076201,-0.668123,-0.089521,0.765286,0.034380,0.642771,-0.178509,0.003111,0.441793,-19.899498,-5.108308,-28.244493,,,,,,
1466451349.55,2.262805,-0.035561,0.491263,0.076216,-0.657502,-0.090652,0.769479,0.035554,0.637681,-0.184320,-0.010789,0.438979,-19.899498,-5.108308,-28.244493,,,,,,
1466451349.56,2.255982,-0.036722,0.491218,0.079370,-0.679819,-0.084122,0.773779,0.036714,0.632390,-0.222678,-0.007661,0.424082,-20.266590,-5.183511,-27.968422,,,,,,
1466451349.57,2.249084,-0.037942,0.491117,0.085732,-0.704238,-0.086091,0.778088,0.037933,0.627009,-0.275235,-0.012359,0.390768,-20.266590,-5.183511,-27.968422,,,,,,
1466451349.58,2.242055,-0.039052,0.490954,0.083587,-0.700019,-0.075475,0.782443,0.039042,0.621498,-0.284854,0.000188,0.391656,-20.266590,-5.183511,-27.968422,,,,,,
1466451349.59,2.234652,-0.040155,0.490624,0.096283,-0.745715,-0.063467,0.786988,0.040144,0.615662,-0.303787,-0.001631,0.372650,-21.005350,-5.342586,-27.387373,,,,,,
1466451349.60,2.226882,-0.041237,0.490279,0.091966,-0.788190,-0.061076,0.791713,0.041225,0.609501,-0.332347,-0.001934,0.367000,-21.005350,-5.342586,-27.387373,,,,,,
1466451349.61,2.219021,-0.042330,0.489802,0.107947,-0.775466,-0.057947,0.796443,0.042317,0.603231,-0.368968,-0.006718,0.376704,-21.005350,-5.342586,-27.387373,,,,,,
1466451349.62,2.211683,-0.043422,0.489291,0.105889,-0.718127,-0.058308,0.800810,0.043408,0.597343,-0.376875,-0.007627,0.362908,-21.410618,-5.421389,-27.056055,,,,,,
1466451349.63,2.204411,-0.044519,0.488698,0.116519,-0.722397,-0.051884,0.805094,0.044504,0.591475,-0.410700,-0.020090,0.340181,-21.410618,-5.421389,-27.056055,,,,,,
1466451349.64,2.197524,-0.045675,0.488078,0.116586,-0.673546,-0.055384,0.809106,0.045659,0.585886,-0.444711,-0.019704,0.316427,-21.410618,-5.421389,-27.056055,,,,,,
1466451349.65,2.191252,-0.046831,0.487452,0.119857,-0.614083,-0.056818,0.812722,0.046814,0.580769,-0.484551,-0.018142,0.303982,-22.180374,-5.588285,-26.393904,,,,,,
1466451349.66,2.185937,-0.047933,0.486762,0.119996,-0.491997,-0.050133,0.815754,0.047914,0.576411,-0.506901,-0.010225,0.317235,-22.180374,-5.588285,-26.393904,,,,,,
1466451349.67,2.181924,-0.048988,0.486087,0.113773,-0.352909,-0.046753,0.818019,0.048969,0.573103,-0.565944,-0.021228,0.270602,-22.180374,-5.588285,-26.393904,,,,,,
1466451349.69,2.179692,-0.051092,0.484843,0.107886,0.046332,-0.049263,0.819210,0.051070,0.571216,-0.623714,-0.025710,0.243390,-22.476974,-5.674771,-26.123144,,,,,,
1466451349.68,2.179817,-0.050051,0.485445,0.112949,-0.166023,-0.051120,0.819182,0.050030,0.571348,-0.592817,-0.024990,0.261843,-22.476974,-5.674771,-26.123144,,,,,,
1466451349.70,2.182168,-0.052113,0.484320,0.098642,0.309675,-0.055182,0.817750,0.052089,0.573212,-0.631440,-0.036647,0.198562,-22.476974,-5.674771,-26.123144,,,,,,
1466451349.71,2.186905,-0.053093,0.483885,0.092530,0.533713,-0.054464,0.814983,0.053068,0.577049,-0.651058,-0.028502,0.146050,-22.560459,-5.834859,-26.015690,,,,,,
1466451349.72,2.194079,-0.054041,0.483460,0.086431,0.769427,-0.052755,0.810782,0.054014,0.582851,-0.647986,-0.035276,0.117695,-22.560459,-5.834859,-26.015690,,,,,,
1466451349.73,2.203228,-0.054949,0.483049,0.090929,0.966909,-0.049731,0.805375,0.054922,0.590216,-0.662278,-0.032827,0.062555,-22.560459,-5.834859,-26.015690,,,,,,
1466451349.74,2.214788,-0.055841,0.482647,0.079531,1.223859,-0.047096,0.798459,0.055812,0.599457,-0.651974,-0.041682,0.017670,-22.241566,-5.906418,-26.272861,,,,,,
1466451349.75,2.228359,-0.056643,0.482315,0.077609,1.395860,-0.043919,0.790215,0.056612,0.610210,-0.631539,-0.035494,-0.036082,-22.241566,-5.906418,-26.272861,,,,,,
1466451349.76,2.243344,-0.057519,0.481919,0.083112,1.537080,-0.045864,0.780943,0.057487,0.621951,-0.612074,-0.048225,-0.124133,-21.685875,-5.973316,-26.718504,,,,,,
1466451349.78,2.277330,-0.058827,0.481270,0.062048,1.760002,-0.022801,0.759301,0.058793,0.648078,-0.578195,-0.019364,-0.225745,-21.685875,-5.973316,-26.718504,,,,,,
1466451349.77,2.259911,-0.058222,0.481615,0.066243,1.691015,-0.034073,0.770501,0.058189,0.634777,-0.583139,-0.035438,-0.178859,-21.685875,-5.973316,-26.718504,,,,,,
1466451349.79,2.295736,-0.059243,0.480928,0.051502,1.873565,-0.003299,0.747226,0.059208,0.661927,-0.595905,-0.014698,-0.234681,-21.685875,-5.973316,-26.718504,,,,,,
1466451349.80,2.315948,-0.059445,0.480599,0.031476,2.061470,0.011469,0.733687,0.059410,0.676885,-0.554747,-0.003105,-0.295049,-19.963034,-6.084431,-28.005238,,,,,,
1466451349.81,2.337150,-0.059451,0.480244,0.023009,2.124083,0.024906,0.719171,0.059416,0.692288,-0.505869,-0.013380,-0.376309,-19.963034,-6.084431,-28.005238,,,,,,
1466451349.82,2.358821,-0.059143,0.479909,-0.003571,2.195166,0.049981,0.704014,0.059109,0.707722,-0.467381,-0.001110,-0.414647,-18.865774,-6.110640,-28.750286,,,,,,
1466451349.84,2.405046,-0.057690,0.479427,-0.052399,2.367112,0.081851,0.670616,0.057658,0.739560,-0.419594,-0.004603,-0.468229,-18.865774,-6.110640,-28.750286,,,,,,
1466451349.83,2.381472,-0.058565,0.479631,-0.032216,2.302379,0.065246,0.687827,0.058531,0.723511,-0.456275,0.002153,-0.440506,-18.865774,-6.110640,-28.750286,,,,,,
1466451349.85,2.429368,-0.056616,0.479211,-0.071468,2.457351,0.089782,0.652472,0.056585,0.755697,-0.370795,-0.003790,-0.485601,-18.865774,-6.110640,-28.750286,,,,,,
1466451349.86,2.455069,-0.055387,0.479066,-0.087251,2.607074,0.088827,0.632880,0.055359,0.772268,-0.336646,-0.009278,-0.492178,-16.243093,-6.061842,-30.319172,,,,,,
1466451349.87,2.482026,-0.054018,0.478960,-0.105225,2.716434,0.093446,0.611880,0.053992,0.789105,-0.267841,-0.028037,-0.519101,-16.243093,-6.061842,-30.319172,,,,,,
1466451349.89,2.536784,-0.051022,0.478835,-0.112653,2.734491,0.092261,0.567865,0.051000,0.821541,-0.116235,-0.020024,-0.563621,-14.716583,-5.987992,-31.103092,,,,,,
1466451349.88,2.509444,-0.052491,0.478929,-0.123300,2.741917,0.096461,0.590066,0.052467,0.805649,-0.176232,-0.023750,-0.557709,-14.716583,-5.987992,-31.103092,,,,,,
1466451349.90,2.564147,-0.049512,0.478770,-0.125425,2.731323,0.088010,0.545216,0.049491,0.836833,-0.041997,-0.023170,-0.572337,-14.716583,-5.987992,-31.103092,,,,,,
1466451349.92,2.616633,-0.046694,0.478512,-0.118174,2.563567,0.084811,0.500632,0.046677,0.864401,0.063531,-0.023605,-0.600942,-11.263031,-5.794191,-32.548542,,,,,,
1466451349.91,2.590818,-0.048099,0.478655,-0.107426,2.642138,0.083265,0.522742,0.048080,0.851134,0.013421,-0.017044,-0.597045,-11.263031,-5.794191,-32.548542,,,,,,
