timestamp,attitude_roll,attitude_pitch,attitude_yaw,rotation_rate_x,rotation_rate_y,rotation_rate_z,gravity_x,gravity_y,gravity_z,user_acc_x,user_acc_y,user_acc_z,magnetic_field_x,magnetic_field_y,magnetic_field_z,latitude(degree),longitude(degree),altitude(meter),speed(m/s),course(degree),timestamp
1465847393.70,-0.191971,-0.046521,-1.584098,0.065329,0.094085,-0.000421,-0.190588,0.046504,-0.980568,-0.015253,0.012700,0.034783,50.587952,360.490387,-3.847612,,,,,,
1465847393.71,-0.191905,-0.045805,-1.584052,0.088761,0.077122,-0.015193,-0.190530,0.045789,-0.980613,-0.023292,0.005465,0.024375,50.587952,360.490387,-3.847612,,,,,,
1465847393.69,-0.192616,-0.046682,-1.584168,0.012223,0.201351,0.000982,-0.191219,0.046665,-0.980438,-0.008595,0.007885,0.030822,50.587952,360.490387,-3.847612,,,,,,
1465847393.72,-0.191202,-0.044773,-1.584375,0.093178,0.131393,-0.060236,-0.189848,0.044758,-0.980793,-0.018465,-0.000904,0.004093,50.631443,360.485840,-3.691759,,,,,,
1465847393.73,-0.189730,-0.043721,-1.585051,0.069826,0.143163,-0.089074,-0.188413,0.043707,-0.981117,-0.001177,-0.004324,-0.005639,50.631443,360.485840,-3.691759,,,,,,
,,,,,,,,,,,,,,,,29.719970,-95.399002,9.942175,-1.000000,-1.000000,1465847425.18
1465847393.74,-0.188903,-0.043254,-1.585790,0.016454,0.059267,-0.073698,-0.187606,0.043241,-0.981292,0.023300,-0.011640,-0.034821,50.631443,360.485840,-3.691759,,,,,,
1465847393.75,-0.189165,-0.043299,-1.586251,-0.012510,-0.052314,-0.034707,-0.187862,0.043285,-0.981241,0.045651,-0.012935,-0.041754,49.823082,360.588379,-4.574781,,,,,,
1465847393.76,-0.190550,-0.043392,-1.586270,-0.009564,-0.177734,0.011853,-0.189221,0.043378,-0.980976,0.064785,-0.005765,-0.027203,49.823082,360.588379,-4.574781,,,,,,
1465847393.77,-0.191618,-0.043456,-1.585792,-0.001300,-0.324354,0.047908,-0.190268,0.043442,-0.980771,0.073889,-0.001771,-0.030933,49.823082,360.588379,-4.574781,,,,,,
1465847393.78,-0.195607,-0.043495,-1.585061,0.014484,-0.427436,0.077311,-0.194178,0.043481,-0.980002,0.070521,0.000220,-0.014581,49.654942,360.611542,-4.574439,,,,,,
1465847393.79,-0.200537,-0.043297,-1.584255,0.045252,-0.519819,0.074727,-0.199009,0.043284,-0.979041,0.053196,0.004140,-0.007546,49.654942,360.611542,-4.574439,,,,,,
1465847393.80,-0.206120,-0.042623,-1.583414,0.090987,-0.571847,0.066584,-0.204478,0.042610,-0.977943,0.033503,0.003563,-0.007591,49.654942,360.611542,-4.574439,,,,,,
1465847393.82,-0.218565,-0.040427,-1.581518,0.150476,-0.677000,0.069431,-0.216651,0.040416,-0.975412,0.018501,-0.000118,-0.001440,50.527473,360.472137,-5.834974,,,,,,
1465847393.81,-0.211950,-0.041688,-1.582499,0.123922,-0.626020,0.069085,-0.210184,0.041676,-0.976773,0.018137,0.002910,0.001798,50.527473,360.472137,-5.834974,,,,,,
1465847393.83,-0.225252,-0.039034,-1.580469,0.159007,-0.663206,0.071482,-0.223182,0.039024,-0.973995,0.018165,-0.001335,-0.001346,50.527473,360.472137,-5.834974,,,,,,
1465847393.84,-0.231294,-0.037753,-1.579468,0.139949,-0.586732,0.065661,-0.229074,0.037744,-0.972677,0.016062,-0.003885,-0.006998,50.527473,360.472137,-5.834974,,,,,,
1465847393.85,-0.235753,-0.036642,-1.579195,0.095507,-0.504707,-0.022182,-0.233418,0.036634,-0.971686,0.039632,-0.002164,-0.014810,51.344059,360.287872,-9.147146,,,,,,
1465847393.86,-0.241354,-0.036162,-1.580165,-0.003415,-0.586141,-0.121828,-0.238861,0.036154,-0.970380,0.072403,-0.003073,-0.038653,51.344059,360.287872,-9.147146,,,,,,
1465847393.87,-0.248666,-0.036536,-1.581172,-0.074025,-0.780544,-0.073844,-0.245947,0.036528,-0.968595,0.060889,-0.008635,-0.049029,51.344059,360.287872,-9.147146,,,,,,
1465847393.88,-0.258333,-0.037218,-1.582222,-0.092373,-1.020429,-0.098969,-0.255292,0.037209,-0.966148,0.079831,-0.001824,-0.041024,51.344059,360.287872,-9.147146,,,,,,
1465847393.89,-0.266912,-0.035214,-1.583809,0.322564,-0.665567,-0.256190,-0.263590,0.035207,-0.963992,0.126398,0.013606,0.003924,50.070930,360.431305,-10.459716,,,,,,
1465847393.90,-0.273110,-0.029813,-1.584846,0.417132,-0.741137,-0.206657,-0.269607,0.029809,-0.962509,0.083374,0.048255,0.075592,50.070930,360.431305,-10.459716,,,,,,
1465847393.91,-0.286525,-0.029683,-1.585599,-0.110101,-1.495181,-0.047044,-0.282496,0.029679,-0.958809,0.069255,-0.058045,-0.201057,48.281754,360.574005,-13.509577,,,,,,
1465847393.92,-0.302258,-0.030178,-1.586423,-0.023873,-1.557783,-0.078499,-0.297542,0.030173,-0.954232,0.110927,-0.014243,-0.054115,48.281754,360.574005,-13.509577,,,,,,
1465847393.93,-0.318186,-0.029478,-1.586987,0.049471,-1.632186,-0.063057,-0.312708,0.029473,-0.949392,0.109019,0.017280,0.013799,48.281754,360.574005,-13.509577,,,,,,
1465847393.94,-0.336743,-0.029840,-1.587130,-0.071383,-1.938139,0.016446,-0.330268,0.029836,-0.943416,0.092246,-0.018895,-0.060094,47.364651,360.652557,-14.613920,,,,,,
1465847393.95,-0.357312,-0.030352,-1.586926,-0.009837,-2.068833,0.039680,-0.349596,0.030348,-0.936409,0.139590,-0.006818,-0.045204,47.364651,360.652557,-14.613920,,,,,,
1465847393.96,-0.378309,-0.029775,-1.586269,0.090172,-2.129406,0.040160,-0.369186,0.029771,-0.928879,0.124435,0.011214,0.018387,47.364651,360.652557,-14.613920,,,,,,
1465847393.97,-0.401517,-0.029525,-1.585853,0.016422,-2.389452,0.020428,-0.390645,0.029521,-0.920068,0.122761,-0.008311,-0.033744,46.115192,360.644989,-18.325966,,,,,,
,,,,,,,,,,,,,,,,29.719970,-95.399004,9.942175,-1.000000,-1.000000,1465847449.76
,,,,,,,,,,,,,,,,29.719971,-95.399006,9.942175,-1.000000,-1.000000,1465847449.77
1465847393.98,-0.426684,-0.029638,-1.586047,-0.020967,-2.559198,-0.023251,-0.413673,0.029634,-0.909943,0.109733,-0.001100,-0.022018,46.115192,360.644989,-18.325966,,,,,,
1465847393.99,-0.453520,-0.029755,-1.586469,-0.036063,-2.725868,-0.031801,-0.437939,0.029751,-0.898512,0.106426,-0.003506,-0.011552,46.115192,360.644989,-18.325966,,,,,,
1465847394.00,-0.482785,-0.030279,-1.586947,-0.077966,-3.005139,-0.016253,-0.464035,0.030275,-0.885299,0.157455,-0.009599,-0.035584,45.227341,360.633911,-20.612942,,,,,,
1465847394.02,-0.552960,-0.031429,-1.588072,-0.058763,-3.836519,-0.018471,-0.524949,0.031423,-0.850553,0.225709,-0.005636,-0.032305,45.227341,360.633911,-20.612942,,,,,,
1465847394.01,-0.515766,-0.030951,-1.587562,-0.088020,-3.394792,-0.022335,-0.492965,0.030946,-0.869499,0.197265,-0.005952,-0.041527,45.227341,360.633911,-20.612942,,,,,,
1465847394.03,-0.594767,-0.031634,-1.588511,-0.035883,-4.288826,-0.027321,-0.560035,0.031629,-0.827865,0.230156,0.001376,-0.026475,41.990643,360.733307,-25.209187,,,,,,
1465847394.04,-0.640674,-0.031610,-1.588640,0.008293,-4.694504,-0.007701,-0.597437,0.031605,-0.801293,0.246058,-0.006428,-0.001427,41.990643,360.733307,-25.209187,,,,,,
1465847394.05,-0.691363,-0.031478,-1.588688,-0.004034,-5.207310,-0.018335,-0.637272,0.031473,-0.769996,0.309513,-0.001032,-0.027077,41.990643,360.733307,-25.209187,,,,,,
1465847394.06,-0.748079,-0.031843,-1.589473,-0.100596,-5.826237,-0.034774,-0.679887,0.031837,-0.732625,0.301485,-0.008186,-0.018535,39.496323,360.760956,-28.615189,,,,,,
1465847394.07,-0.810870,-0.032523,-1.590378,-0.112024,-6.413471,-0.008750,-0.724503,0.032518,-0.688504,0.366090,-0.009278,-0.028812,39.496323,360.760956,-28.615189,,,,,,
,,,,,,,,,,,,,,,,29.719970,-95.399016,9.974179,-1.000000,-1.000000,1465847449.96
1465847394.08,-0.878836,-0.033571,-1.591190,-0.135113,-6.928547,0.035971,-0.769563,0.033565,-0.637688,0.420991,-0.008403,0.013298,36.039146,360.801239,-32.417423,,,,,,
1465847394.09,-0.953592,-0.034891,-1.592030,-0.154171,-7.677135,0.050227,-0.815003,0.034884,-0.578406,0.514085,-0.016879,-0.003397,36.039146,360.801239,-32.417423,,,,,,
1465847394.10,-1.036922,-0.036299,-1.593738,-0.239316,-8.546628,0.025791,-0.860275,0.036291,-0.508537,0.539749,-0.008810,0.033394,36.039146,360.801239,-32.417423,,,,,,
1465847394.11,-1.130250,-0.037706,-1.595515,-0.212971,-9.593614,0.045157,-0.903876,0.037697,-0.426130,0.623526,-0.007561,0.084577,36.039146,360.801239,-32.417423,,,,,,
1465847394.12,-1.234266,-0.038903,-1.597590,-0.256828,-10.640483,0.031456,-0.943192,0.038893,-0.329964,0.685150,-0.000914,0.106194,25.919882,360.997589,-39.193554,,,,,,
1465847394.13,-1.349104,-0.040098,-1.600032,-0.260394,-11.763906,0.052336,-0.974743,0.040088,-0.219704,0.745418,-0.004474,0.249657,25.919882,360.997589,-39.193554,,,,,,
1465847394.14,-1.475553,-0.041081,-1.602722,-0.301212,-12.908492,0.053087,-0.994628,0.041070,-0.095020,0.834243,-0.012307,0.253284,25.919882,360.997589,-39.193554,,,,,,
1465847394.15,-1.613966,-0.041670,-1.606183,-0.351729,-14.160291,0.045985,-0.998201,0.041658,0.043119,0.906221,-0.009599,0.458758,8.247138,361.388885,-43.096573,,,,,,
1465847394.16,-1.766647,-0.041449,-1.609768,-0.369435,-15.611650,0.012491,-0.980040,0.041437,0.194434,0.955992,-0.009791,0.521142,8.247138,361.388885,-43.096573,,,,,,
1465847394.17,-1.933742,-0.040266,-1.613748,-0.420176,-17.066210,-0.009306,-0.934097,0.040256,0.354741,0.979370,-0.004260,0.777705,8.247138,361.388885,-43.096573,,,,,,
1465847394.18,-2.116000,-0.038180,-1.617189,-0.396411,-18.564302,-0.044593,-0.854399,0.038171,0.518214,0.986372,-0.003549,0.929387,-3.830438,361.685913,-41.180965,,,,,,
1465847394.19,-2.310303,-0.035464,-1.620213,-0.409528,-19.672838,-0.030203,-0.738336,0.035456,0.673500,0.961939,-0.008280,1.174721,-3.830438,361.685913,-41.180965,,,,,,
1465847394.20,-2.514972,-0.032123,-1.622559,-0.403317,-20.727100,-0.064034,-0.586108,0.032117,0.809596,0.955630,-0.008314,1.437398,-3.830438,361.685913,-41.180965,,,,,,
1465847394.21,-2.729418,-0.028048,-1.623715,-0.415009,-21.642229,-0.109400,-0.400445,0.028045,0.915891,0.860574,-0.000564,1.635760,-29.047291,362.206238,-22.139046,,,,,,
1465847394.22,-2.950286,-0.023829,-1.623730,-0.396497,-22.201740,-0.130355,-0.190088,0.023827,0.981478,0.771295,-0.019264,1.892546,-29.047291,362.206238,-22.139046,,,,,,
1465847394.23,3.108848,-0.020184,-1.622469,-0.340299,-22.433163,-0.157587,0.032732,0.020183,0.999260,0.625700,0.009297,2.064231,-29.047291,362.206238,-22.139046,,,,,,
1465847394.24,2.885548,-0.017275,-1.620519,-0.307109,-22.266512,-0.145826,0.253218,0.017274,0.967255,0.468812,-0.022401,2.209427,-35.828918,362.243713,-4.796270,,,,,,
1465847394.25,2.666019,-0.015208,-1.618220,-0.266104,-21.821653,-0.142188,0.457796,0.015207,0.888927,0.326124,-0.004877,2.248478,-35.828918,362.243713,-4.796270,,,,,,
1465847394.26,2.453579,-0.013939,-1.615904,-0.221502,-21.022215,-0.119482,0.634942,0.013938,0.772434,0.144614,-0.019355,2.250012,-35.828918,362.243713,-4.796270,,,,,,
1465847394.27,2.251622,-0.013339,-1.613784,-0.186058,-19.888294,-0.102076,0.776984,0.013338,0.629379,0.005563,-0.020617,2.147492,-26.452648,361.911743,29.110142,,,,,,
1465847394.28,2.063043,-0.013168,-1.612118,-0.132218,-18.494286,-0.070316,0.881197,0.013167,0.472566,-0.135942,-0.001662,1.998473,-26.452648,361.911743,29.110142,,,,,,
1465847394.29,1.890607,-0.013249,-1.611104,-0.069504,-16.815718,-0.040332,0.949212,0.013249,0.314359,-0.274971,0.008404,1.788821,-10.965131,358.462067,36.903107,,,,,,
1465847394.30,1.736166,-0.013187,-1.610825,-0.017280,-14.969453,0.015202,0.986272,0.013186,0.164603,-0.399983,0.011716,1.555429,-10.965131,358.462067,36.903107,,,,,,
1465847394.31,1.600195,-0.012811,-1.610761,-0.013984,-13.125215,0.044088,0.999486,0.012811,0.029392,-0.478780,0.003333,1.354031,-10.965131,358.462067,36.903107,,,,,,
1465847394.32,1.482092,-0.012268,-1.611014,0.048860,-11.372271,0.055510,0.995993,0.012268,-0.088581,-0.566565,0.022065,1.161884,1.382330,358.413208,38.925598,,,,,,
1465847394.33,1.382882,-0.011282,-1.611685,0.075708,-9.405972,0.096427,0.982333,0.011281,-0.186799,-0.623248,0.022303,0.856980,1.382330,358.413208,38.925598,,,,,,
1465847394.34,1.304482,-0.010122,-1.611874,0.034617,-7.318521,0.110970,0.964698,0.010122,-0.263164,-0.665168,0.008555,0.739300,1.382330,358.413208,38.925598,,,,,,
1465847394.36,1.208902,-0.008922,-1.611790,-0.000590,-3.219790,0.028814,0.935191,0.008922,-0.354032,-0.754755,0.018269,0.448469,18.502579,358.427521,34.125019,,,,,,
1465847394.35,1.246400,-0.009250,-1.611875,0.021232,-5.307372,0.066410,0.947803,0.009250,-0.318723,-0.693546,0.018033,0.553495,18.502579,358.427521,34.125019,,,,,,
1465847394.38,1.196442,-0.008218,-1.612366,0.056738,0.913743,0.016785,0.930712,0.008218,-0.365660,-0.781832,0.016653,0.309813,18.502579,358.427521,34.125019,,,,,,
1465847394.37,1.192409,-0.008592,-1.611922,0.036083,-1.130206,0.025325,0.929227,0.008592,-0.369409,-0.773389,0.014250,0.393914,18.502579,358.427521,34.125019,,,,,,
1465847394.39,1.220483,-0.008083,-1.612736,0.034751,2.889801,-0.007339,0.939235,0.008083,-0.343180,-0.762111,0.013111,0.291545,22.644669,358.428497,31.517424,,,,,,
1465847394.40,1.263291,-0.008250,-1.613173,0.037105,4.738450,-0.037027,0.953059,0.008250,-0.302671,-0.709880,0.016347,0.349928,22.644669,358.428497,31.517424,,,,,,
1465847394.41,1.324598,-0.008547,-1.613684,0.042613,6.598699,-0.039108,0.969811,0.008547,-0.243709,-0.617851,0.011732,0.426327,22.644669,358.428497,31.517424,,,,,,
1465847394.42,1.403836,-0.008909,-1.614396,0.066128,8.351752,-0.060724,0.986055,0.008909,-0.166179,-0.585939,0.021364,0.490902,20.390228,358.459076,32.687492,,,,,,
1465847394.43,1.500123,-0.009607,-1.615140,0.062964,10.060219,-0.079957,0.997458,0.009607,-0.070611,-0.511603,0.016684,0.612389,20.390228,358.459076,32.687492,,,,,,
1465847394.44,1.613420,-0.010440,-1.615781,0.064013,11.750600,-0.087364,0.999037,0.010439,0.042608,-0.464079,0.014677,0.730921,20.390228,358.459076,32.687492,,,,,,
1465847394.45,1.743835,-0.011330,-1.616383,0.071454,13.466422,-0.081087,0.985003,0.011330,0.172166,-0.367129,0.014381,0.879684,7.195321,358.575226,36.730900,,,,,,
1465847394.46,1.891114,-0.012115,-1.616964,0.080909,15.123788,-0.053151,0.949066,0.012115,0.314845,-0.224823,0.002213,0.996709,7.195321,358.575226,36.730900,,,,,,
1465847394.47,2.052899,-0.012951,-1.617612,0.093272,16.508343,-0.051178,0.885948,0.012951,0.463604,-0.107444,0.007282,1.142826,-3.587053,358.632172,36.704678,,,,,,
1465847394.48,2.226119,-0.013836,-1.618274,0.109451,17.560516,-0.034343,0.792775,0.013835,0.609357,0.022258,0.002141,1.278949,-3.587053,358.632172,36.704678,,,,,,
1465847394.49,2.407378,-0.014898,-1.619311,0.163508,18.284519,0.004813,0.669930,0.014897,0.742275,0.181068,-0.005772,1.376439,-3.587053,358.632172,36.704678,,,,,,
1465847394.50,2.593978,-0.016141,-1.620827,0.202308,18.752594,0.060461,0.520584,0.016141,0.853658,0.362381,-0.013486,1.438319,-3.587053,358.632172,36.704678,,,,,,
1465847394.51,2.783057,-0.017847,-1.622538,0.238679,18.920286,0.079670,0.350847,0.017846,0.936263,0.538572,-0.013558,1.443407,-26.033171,358.798340,23.730774,,,,,,
1465847394.52,2.971290,-0.020089,-1.623672,0.248138,18.765354,0.045524,0.169447,0.020088,0.985335,0.677599,-0.016685,1.427446,-26.033171,358.798340,23.730774,,,,,,
1465847394.53,-3.127453,-0.022639,-1.624372,0.265652,18.301331,0.050581,-0.014135,0.022637,0.999644,0.790701,-0.015191,1.345846,-26.033171,358.798340,23.730774,,,,,,
1465847394.54,-2.950115,-0.025572,-1.624714,0.298702,17.507050,0.068368,-0.190247,0.025569,0.981403,0.886659,-0.022838,1.198361,-32.179497,358.918976,10.899496,,,,,,
1465847394.55,-2.782807,-0.028489,-1.624437,0.280405,16.457012,0.047260,-0.350995,0.028485,0.935944,0.946378,-0.012723,1.072448,-32.179497,358.918976,10.899496,,,,,,
1465847394.56,-2.627441,-0.031143,-1.623504,0.283159,15.204174,0.022122,-0.491557,0.031138,0.870288,0.976161,-0.008707,0.862134,-33.212700,358.977295,-3.057429,,,,,,
1465847394.57,-2.485911,-0.033686,-1.622078,0.288842,13.779256,0.022549,-0.609354,0.033680,0.792183,0.998743,-0.009174,0.675484,-33.212700,358.977295,-3.057429,,,,,,
1465847394.59,-2.251457,-0.037479,-1.618313,0.259178,10.411386,-0.012775,-0.776611,0.037471,0.628865,0.975479,0.003453,0.281276,-33.212700,358.977295,-3.057429,,,,,,
1465847394.58,-2.360130,-0.035775,-1.620308,0.271958,12.146307,-0.002354,-0.703868,0.035768,0.709430,0.971644,-0.009034,0.465924,-33.212700,358.977295,-3.057429,,,,,,
1465847394.60,-2.160575,-0.038801,-1.616200,0.243132,8.626552,-0.018628,-0.830438,0.038791,0.555758,0.958277,-0.013019,0.120282,-24.442783,358.842896,-24.727978,,,,,,
1465847394.62,-2.034596,-0.040256,-1.612651,0.156526,4.920938,-0.008248,-0.893635,0.040245,0.446987,0.909443,-0.003746,-0.154980,-24.442783,358.842896,-24.727978,,,,,,
1465847394.61,-2.088475,-0.039606,-1.614184,0.200367,6.735592,-0.039809,-0.868289,0.039596,0.494476,0.884570,-0.018386,-0.026321,-24.442783,358.842896,-24.727978,,,,,,
1465847394.63,-2.000088,-0.040554,-1.611409,0.110478,2.944001,-0.038473,-0.908513,0.040542,0.415884,0.817403,-0.023407,-0.243033,-15.050673,358.561249,-34.415531,,,,,,
1465847394.64,-1.984362,-0.040220,-1.610744,0.028421,1.139062,-0.058104,-0.914953,0.040209,0.401552,0.760763,-0.007540,-0.239167,-15.050673,358.561249,-34.415531,,,,,,
1465847394.66,-2.001295,-0.039807,-1.610444,-0.011792,-2.006073,-0.004357,-0.908038,0.039796,0.416993,0.717425,-0.009355,-0.248322,-15.050673,358.561249,-34.415531,,,,,,
1465847394.65,-1.985065,-0.039910,-1.610472,0.012533,-0.467482,-0.032077,-0.914682,0.039899,0.402200,0.727975,-0.006055,-0.277383,-15.050673,358.561249,-34.415531,,,,,,
1465847394.67,-2.033397,-0.039513,-1.610971,-0.074479,-3.615705,-0.004969,-0.894197,0.039502,0.445928,0.696748,-0.003324,-0.226202,-15.050673,358.561249,-34.415531,,,,,,
1465847394.68,-2.081477,-0.039220,-1.611919,-0.104190,-5.195718,0.028329,-0.871741,0.039210,0.488395,0.751151,-0.008708,-0.181190,-14.375721,358.478516,-35.547623,,,,,,
1465847394.69,-2.145648,-0.038706,-1.613178,-0.147701,-6.820184,0.012927,-0.838644,0.038696,0.543303,0.727408,-0.007019,-0.094954,-14.375721,358.478516,-35.547623,,,,,,
1465847394.70,-2.225521,-0.037614,-1.614632,-0.187892,-8.342721,-0.002047,-0.792655,0.037606,0.608510,0.716346,-0.011269,0.020458,-17.100250,358.535522,-33.719414,,,,,,
1465847394.72,-2.425617,-0.035226,-1.617815,-0.210375,-10.966463,0.028224,-0.655946,0.035218,0.753985,0.715242,-0.000413,0.251981,-17.100250,358.535522,-33.719414,,,,,,
1465847394.71,-2.319101,-0.036502,-1.616191,-0.191722,-9.680623,0.018049,-0.732355,0.036494,0.679944,0.708201,-0.008235,0.129336,-17.100250,358.535522,-33.719414,,,,,,
1465847394.73,-2.544749,-0.033341,-1.619327,-0.249122,-12.207589,-0.001287,-0.561723,0.033335,0.826654,0.667817,-0.012217,0.408835,-17.100250,358.535522,-33.719414,,,,,,
1465847394.74,-2.674925,-0.031145,-1.620469,-0.245067,-13.254468,-0.017071,-0.449695,0.031139,0.892639,0.630283,0.008915,0.544052,-26.814684,358.755280,-23.511143,,,,,,
1465847394.75,-2.813380,-0.028917,-1.621204,-0.232165,-14.018946,-0.021843,-0.322217,0.028913,0.946224,0.544385,-0.001248,0.700321,-26.814684,358.755280,-23.511143,,,,,,
1465847394.76,-2.958253,-0.026790,-1.621522,-0.211617,-14.629467,-0.027574,-0.182249,0.026787,0.982888,0.464353,0.000145,0.790825,-31.594004,358.846161,-14.434960,,,,,,
1465847394.77,-3.107316,-0.024581,-1.621499,-0.218449,-14.981984,-0.024305,-0.034259,0.024579,0.999111,0.382755,-0.006360,0.902134,-31.594004,358.846161,-14.434960,,,,,,
1465847394.78,3.024919,-0.022557,-1.621100,-0.202604,-15.104061,-0.037362,0.116380,0.022556,0.992949,0.273116,-0.007541,0.973284,-31.594004,358.846161,-14.434960,,,,,,
1465847394.79,2.874825,-0.020831,-1.620350,-0.173671,-14.956486,-0.038258,0.263557,0.020829,0.964419,0.171562,0.005660,0.996000,-33.736671,358.843414,8.388233,,,,,,
1465847394.80,2.728253,-0.019528,-1.619504,-0.146530,-14.526492,-0.032413,0.401593,0.019527,0.915610,0.034533,-0.003383,1.023309,-33.736671,358.843414,8.388233,,,,,,
1465847394.81,2.587663,-0.018524,-1.618698,-0.123380,-13.867174,-0.018429,0.525943,0.018523,0.850318,-0.091663,0.002519,0.970193,-33.736671,358.843414,8.388233,,,,,,
1465847394.82,2.455474,-0.017690,-1.618043,-0.102081,-12.989117,-0.007948,0.633440,0.017689,0.773590,-0.206987,0.007152,0.901810,-29.897902,358.772949,19.110470,,,,,,
1465847394.84,2.223518,-0.016598,-1.617267,-0.039666,-10.691533,0.023476,0.794324,0.016597,0.607268,-0.389783,0.006276,0.731111,-29.897902,358.772949,19.110470,,,,,,
1465847394.83,2.333647,-0.017037,-1.617526,-0.074148,-11.905092,0.007635,0.722764,0.017037,0.690885,-0.293824,0.004555,0.835788,-29.897902,358.772949,19.110470,,,,,,
1465847394.85,2.126734,-0.016204,-1.617253,-0.019890,-9.328235,0.031977,0.849294,0.016203,0.527671,-0.492666,0.012102,0.640588,-16.579182,358.675995,32.461899,,,,,,
1465847394.86,2.044719,-0.015798,-1.617422,0.001122,-7.815247,0.048056,0.889674,0.015797,0.456323,-0.560282,0.005565,0.537680,-16.579182,358.675995,32.461899,,,,,,
1465847394.87,1.978749,-0.015359,-1.617716,0.013786,-6.180124,0.054845,0.917827,0.015359,0.396684,-0.610515,0.011360,0.447844,-16.579182,358.675995,32.461899,,,,,,
1465847394.88,1.929706,-0.014956,-1.618026,0.012726,-4.469573,0.049438,0.936175,0.014956,0.351215,-0.661578,0.010923,0.379666,-10.261206,358.676208,34.974678,,,,,,
1465847394.89,1.897958,-0.014577,-1.618398,0.024458,-2.740990,0.048189,0.946858,0.014576,0.321322,-0.668370,0.012798,0.303647,-10.261206,358.676208,34.974678,,,,,,
1465847394.90,1.883388,-0.014279,-1.618760,0.023413,-1.030419,0.035331,0.951443,0.014278,0.307494,-0.665997,0.014515,0.262193,-10.261206,358.676208,34.974678,,,,,,
1465847394.91,1.885610,-0.014142,-1.619005,0.018072,0.636644,0.014226,0.950759,0.014142,0.309608,-0.652373,0.011859,0.238213,-3.844521,358.712982,35.879456,,,,,,
1465847394.92,1.904204,-0.014201,-1.619221,0.024385,2.264402,-0.002363,0.944837,0.014201,0.327232,-0.629865,0.014104,0.232567,-3.844521,358.712982,35.879456,,,,,,
1465847394.93,1.938870,-0.014380,-1.619499,0.034898,3.859219,-0.010226,0.932926,0.014379,0.359782,-0.588886,0.011484,0.250859,-3.844521,358.712982,35.879456,,,,,,
1465847394.94,1.988756,-0.014757,-1.619764,0.035741,5.361701,-0.031357,0.913820,0.014756,0.405852,-0.558183,0.007079,0.268998,-4.510364,358.728668,35.644688,,,,,,
1465847394.96,2.132662,-0.015773,-1.620081,0.049996,8.258258,-0.036736,0.846158,0.015772,0.532699,-0.429211,0.012472,0.383652,-4.510364,358.728668,35.644688,,,,,,
1465847394.95,2.053565,-0.015220,-1.619888,0.033333,6.846089,-0.035347,0.885611,0.015219,0.464179,-0.497641,0.010263,0.325997,-4.510364,358.728668,35.644688,,,,,,
1465847394.97,2.225059,-0.016438,-1.620333,0.058005,9.555769,-0.041672,0.793390,0.016437,0.608492,-0.347894,0.009472,0.449888,-12.779048,358.769989,33.135284,,,,,,
1465847394.99,2.442655,-0.017920,-1.620980,0.082812,11.546570,-0.029650,0.643301,0.017919,0.765403,-0.130927,0.008158,0.570458,-12.779048,358.769989,33.135284,,,,,,
1465847394.98,2.329195,-0.017129,-1.620647,0.074278,10.679090,-0.027412,0.725832,0.017128,0.687659,-0.224764,0.008461,0.501931,-12.779048,358.769989,33.135284,,,,,,
1465847395.00,2.563047,-0.018820,-1.621445,0.104861,12.178279,-0.014430,0.546710,0.018819,0.837110,-0.005664,-0.000920,0.614077,-19.217169,358.798584,29.519810,,,,,,
1465847395.01,2.688260,-0.019934,-1.622092,0.139427,12.613530,0.008421,0.437877,0.019933,0.898814,0.123189,-0.000280,0.651998,-19.217169,358.798584,29.519810,,,,,,
1465847395.02,2.815942,-0.021319,-1.622729,0.153513,12.804653,0.005108,0.319852,0.021317,0.947228,0.229876,-0.000001,0.661552,-19.217169,358.798584,29.519810,,,,,,
1465847395.03,2.943915,-0.022843,-1.623129,0.159878,12.770700,-0.004253,0.196341,0.022841,0.980270,0.338892,-0.004301,0.644059,-19.217169,358.798584,29.519810,,,,,,
1465847395.04,3.069847,-0.024436,-1.623376,0.166983,12.502045,0.002761,0.071662,0.024433,0.997130,0.451104,-0.001347,0.617800,-30.567196,358.893402,15.437833,,,,,,
1465847395.05,-3.091888,-0.026202,-1.623386,0.179155,12.009379,-0.000523,-0.049667,0.026199,0.998422,0.498428,-0.007308,0.576453,-30.567196,358.893402,15.437833,,,,,,
1465847395.06,-2.976649,-0.028126,-1.623342,0.193189,11.336151,0.017551,-0.164132,0.028122,0.986037,0.602349,-0.002030,0.481355,-33.313667,358.928589,6.131877,,,,,,
1465847395.08,-2.773256,-0.031417,-1.622204,0.165312,9.407001,-0.018278,-0.359886,0.031411,0.932467,0.654030,-0.003244,0.299009,-33.313667,358.928589,6.131877,,,,,,
1465847395.07,-2.869900,-0.029865,-1.622922,0.174023,10.431599,-0.010858,-0.268243,0.029860,0.962888,0.626290,-0.007323,0.399096,-33.313667,358.928589,6.131877,,,,,,
1465847395.09,-2.687260,-0.032827,-1.621368,0.162895,8.319731,-0.016784,-0.438627,0.032822,0.898070,0.651639,-0.008942,0.214082,-32.242058,358.906219,-11.132264,,,,,,
1465847395.10,-2.613237,-0.034242,-1.620551,0.159200,7.073173,-0.007905,-0.503819,0.034236,0.863131,0.691853,-0.004176,0.082365,-32.242058,358.906219,-11.132264,,,,,,
1465847395.11,-2.552450,-0.035237,-1.619733,0.123475,5.728992,-0.015478,-0.555303,0.035229,0.830901,0.685964,-0.013516,0.030152,-32.242058,358.906219,-11.132264,,,,,,
1465847395.12,-2.505914,-0.036007,-1.618890,0.101502,4.297745,-0.029940,-0.593339,0.035999,0.804147,0.673478,0.001111,-0.091440,-32.242058,358.906219,-11.132264,,,,,,
1465847395.13,-2.473151,-0.036478,-1.618206,0.075299,2.929097,-0.022447,-0.619351,0.036470,0.784266,0.656980,-0.009706,-0.125148,-28.136688,358.793152,-21.282177,,,,,,
1465847395.14,-2.454356,-0.036860,-1.617729,0.050109,1.524338,-0.011533,-0.633973,0.036851,0.772477,0.650818,-0.009752,-0.195374,-28.136688,358.793152,-21.282177,,,,,,
1465847395.16,-2.459534,-0.036585,-1.617413,-0.019386,-1.289340,-0.017373,-0.629971,0.036577,0.775757,0.584362,-0.008516,-0.217835,-27.131111,358.751495,-23.203362,,,,,,
1465847395.15,-2.449964,-0.036836,-1.617486,0.001489,0.077184,-0.023794,-0.637359,0.036828,0.769686,0.618133,-0.000802,-0.208163,-27.131111,358.751495,-23.203362,,,,,,
1465847395.17,-2.481957,-0.036315,-1.617584,-0.035902,-2.559272,-0.000910,-0.612425,0.036307,0.789694,0.581892,-0.000464,-0.197577,-27.131111,358.751495,-23.203362,,,,,,
1465847395.18,-2.517234,-0.035809,-1.617873,-0.068355,-3.845049,-0.010974,-0.584202,0.035801,0.810818,0.541142,-0.005757,-0.175137,-27.131111,358.751495,-23.203362,,,,,,
1465847395.19,-2.564433,-0.034944,-1.618340,-0.104921,-4.988587,-0.005967,-0.545313,0.034937,0.837504,0.495905,-0.011561,-0.116344,-28.713882,358.757172,-21.116854,,,,,,
1465847395.20,-2.622120,-0.034165,-1.618986,-0.098802,-6.027077,0.016518,-0.496132,0.034159,0.867575,0.505761,-0.000757,-0.076742,-28.713882,358.757172,-21.116854,,,,,,
1465847395.22,-2.767795,-0.031920,-1.620219,-0.138491,-7.999816,0.003304,-0.364968,0.031914,0.930473,0.438897,-0.002877,0.057579,-30.712627,358.796692,-17.285881,,,,,,
1465847395.21,-2.690092,-0.033127,-1.619611,-0.128793,-7.045284,0.005843,-0.436077,0.033121,0.899300,0.451412,-0.005854,0.012505,-30.712627,358.796692,-17.285881,,,,,,
1465847395.23,-2.853622,-0.030511,-1.620699,-0.146882,-8.754743,0.003773,-0.283875,0.030506,0.958376,0.372330,-0.004291,0.166563,-30.712627,358.796692,-17.285881,,,,,,
1465847395.24,-2.945803,-0.029178,-1.621118,-0.141243,-9.352540,0.007528,-0.194458,0.029174,0.980477,0.341781,0.005052,0.220954,-32.778568,358.838440,-11.734383,,,,,,
1465847395.25,-3.042938,-0.027744,-1.621355,-0.143946,-9.825015,0.000908,-0.098456,0.027740,0.994755,0.275382,-0.001236,0.313519,-32.778568,358.838440,-11.734383,,,,,,
1465847395.26,3.139483,-0.026338,-1.621485,-0.141161,-10.142510,0.008224,0.002109,0.026335,0.999651,0.209988,-0.004103,0.367399,-32.778568,358.838440,-11.734383,,,,,,
1465847395.27,3.036714,-0.024947,-1.621347,-0.139186,-10.296420,-0.009969,0.104654,0.024945,0.994196,0.117209,0.006443,0.424154,-34.339146,358.870758,3.119519,,,,,,
1465847395.28,2.934329,-0.023696,-1.621128,-0.120991,-10.198781,0.003275,0.205725,0.023694,0.978323,0.051447,0.000964,0.468470,-34.339146,358.870758,3.119519,,,,,,
1465847395.29,2.834009,-0.022664,-1.620918,-0.104721,-9.964126,-0.000309,0.302679,0.022662,0.952823,-0.011587,0.004499,0.479382,-34.339146,358.870758,3.119519,,,,,,
1465847395.31,2.646241,-0.020935,-1.620412,-0.080070,-8.943818,0.019927,0.475237,0.020934,0.879609,-0.179064,0.004640,0.472885,-32.913849,358.849182,11.003898,,,,,,
1465847395.30,2.737376,-0.021738,-1.620609,-0.090383,-9.550062,0.008817,0.393206,0.021737,0.919193,-0.118121,0.002250,0.505520,-32.913849,358.849182,11.003898,,,,,,
1465847395.32,2.562234,-0.020245,-1.620330,-0.058955,-8.215469,0.029218,0.547375,0.020244,0.836642,-0.232144,0.003087,0.451855,-32.913849,358.849182,11.003898,,,,,,
1465847395.33,2.485898,-0.019700,-1.620132,-0.056870,-7.427569,0.008312,0.609592,0.019698,0.792471,-0.297550,0.007615,0.412913,-26.221889,358.805634,23.410732,,,,,,
1465847395.34,2.418907,-0.019193,-1.619923,-0.046090,-6.439095,0.023413,0.661280,0.019192,0.749894,-0.373667,0.005970,0.394195,-26.221889,358.805634,23.410732,,,,,,
1465847395.35,2.362311,-0.018867,-1.620040,-0.008599,-5.387967,0.030696,0.702643,0.018865,0.711292,-0.403205,0.012308,0.322979,-26.221889,358.805634,23.410732,,,,,,
1465847395.36,2.317154,-0.018578,-1.620119,-0.015660,-4.226351,0.023403,0.734040,0.018577,0.678852,-0.456345,0.005242,0.312999,-22.468967,358.785736,27.296059,,,,,,
1465847395.37,2.283758,-0.018371,-1.620244,-0.001400,-3.028670,0.025486,0.756300,0.018370,0.653967,-0.495726,0.010134,0.241678,-22.468967,358.785736,27.296059,,,,,,
1465847395.38,2.263237,-0.018134,-1.620470,0.005516,-1.733318,0.033336,0.769564,0.018133,0.638313,-0.495546,0.006785,0.233010,-22.468967,358.785736,27.296059,,,,,,
1465847395.39,2.255050,-0.018040,-1.620757,0.017701,-0.512242,0.022497,0.774765,0.018039,0.631992,-0.489761,0.013058,0.179532,-17.547649,358.798615,30.541101,,,,,,
1465847395.40,2.259100,-0.018023,-1.620891,0.007532,0.704613,0.006339,0.772199,0.018022,0.635125,-0.480268,0.008849,0.178642,-17.547649,358.798615,30.541101,,,,,,
1465847395.41,2.274864,-0.018131,-1.621018,0.019645,1.871531,-0.002032,0.762090,0.018130,0.647217,-0.462148,0.009138,0.153472,-17.547649,358.798615,30.541101,,,,,,
1465847395.42,2.302347,-0.018304,-1.621198,0.027472,3.032055,-0.000787,0.744015,0.018303,0.667912,-0.424755,0.009270,0.170757,-17.294571,358.812561,30.521820,,,,,,
1465847395.43,2.340646,-0.018630,-1.621363,0.034145,4.092819,-0.017013,0.717891,0.018629,0.695907,-0.393824,0.009218,0.166032,-17.294571,358.812561,30.521820,,,,,,
1465847395.44,2.389530,-0.018975,-1.621453,0.032258,5.148228,-0.015118,0.683024,0.018974,0.730150,-0.356485,0.005699,0.200957,-17.294571,358.812561,30.521820,,,,,,
1465847395.45,2.447920,-0.019413,-1.621707,0.053613,6.065580,-0.008077,0.639245,0.019412,0.768758,-0.284035,0.008024,0.196635,-21.203978,358.837494,27.625713,,,,,,
1465847395.47,2.587483,-0.020613,-1.622115,0.063895,7.457625,-0.026377,0.526074,0.020611,0.850189,-0.151364,0.006946,0.251526,-21.203978,358.837494,27.625713,,,,,,
1465847395.46,2.514440,-0.019963,-1.621979,0.060964,6.826901,-0.017102,0.586725,0.019962,0.809540,-0.206643,0.003644,0.232665,-21.203978,358.837494,27.625713,,,,,,
1465847395.48,2.666242,-0.021340,-1.622389,0.081567,8.000136,-0.007408,0.457546,0.021338,0.888930,-0.062542,0.003244,0.276140,-24.535854,358.860962,24.370686,,,,,,
1465847395.50,2.833637,-0.023159,-1.622839,0.095004,8.518304,-0.015967,0.303030,0.023157,0.952700,0.082911,0.000982,0.296034,-24.535854,358.860962,24.370686,,,,,,
1465847395.49,2.748817,-0.022219,-1.622691,0.093698,8.327177,-0.013705,0.382659,0.022217,0.923622,0.025620,0.000763,0.275795,-24.535854,358.860962,24.370686,,,,,,
1465847395.51,2.919144,-0.024163,-1.622911,0.096130,8.558666,-0.021541,0.220555,0.024160,0.975075,0.163479,0.002497,0.279289,-30.998363,358.905426,14.253088,,,,,,
1465847395.53,3.086831,-0.026366,-1.623072,0.116920,8.171072,-0.009510,0.054715,0.026363,0.998154,0.312350,0.004490,0.251465,-30.998363,358.905426,14.253088,,,,,,
1465847395.52,3.004198,-0.025209,-1.623004,0.110887,8.465177,-0.004974,0.136919,0.025207,0.990261,0.225339,-0.003234,0.289524,-30.998363,358.905426,14.253088,,,,,,
1465847395.54,-3.117994,-0.027535,-1.622888,0.116377,7.717717,-0.019440,-0.023588,0.027531,0.999343,0.330060,-0.002018,0.220781,-30.998363,358.905426,14.253088,,,,,,
1465847395.55,-3.044273,-0.028640,-1.622819,0.111477,7.244091,0.006943,-0.097127,0.028636,0.994860,0.388432,-0.002650,0.184675,-33.894707,358.921997,1.816898,,,,,,
1465847395.56,-2.977151,-0.029757,-1.622576,0.112748,6.518950,-0.014055,-0.163629,0.029753,0.986073,0.436990,-0.000517,0.112682,-33.894707,358.921997,1.816898,,,,,,
1465847395.57,-2.918112,-0.030662,-1.622175,0.091508,5.689733,-0.023778,-0.221521,0.030657,0.974674,0.449625,-0.002703,0.074597,-33.894707,358.921997,1.816898,,,,,,
1465847395.59,-2.825538,-0.032200,-1.621419,0.079777,3.995069,-0.001452,-0.310658,0.032194,0.949976,0.468068,-0.001753,-0.018534,-33.794056,358.916321,-3.764096,,,,,,
1465847395.58,-2.867594,-0.031451,-1.621748,0.087248,4.832871,-0.022666,-0.270449,0.031446,0.962220,0.467425,-0.002485,0.019774,-33.794056,358.916321,-3.764096,,,,,,
1465847395.60,-2.793021,-0.032874,-1.621186,0.066812,2.978959,-0.005737,-0.341371,0.032868,0.939354,0.510728,-0.005754,-0.074180,-33.794056,358.916321,-3.764096,,,,,,
1465847395.61,-2.771512,-0.033100,-1.620794,0.025044,1.877990,-0.035065,-0.361493,0.033094,0.931787,0.477017,-0.004041,-0.117853,-32.620613,358.872711,-11.108244,,,,,,
1465847395.62,-2.759943,-0.033105,-1.620424,0.013214,0.935115,-0.029163,-0.372248,0.033099,0.927543,0.436869,-0.004031,-0.125007,-32.620613,358.872711,-11.108244,,,,,,
1465847395.63,-2.756846,-0.033251,-1.620299,0.017441,0.097286,-0.000487,-0.375116,0.033245,0.926381,0.425119,-0.003780,-0.135961,-32.458778,358.846527,-12.358792,,,,,,
1465847395.65,-2.778063,-0.032805,-1.620195,-0.041240,-1.748010,-0.020906,-0.355384,0.032799,0.934145,0.369147,-0.003396,-0.142916,-32.458778,358.846527,-12.358792,,,,,,
1465847395.64,-2.762785,-0.033197,-1.620247,-0.011377,-0.832795,-0.010649,-0.369609,0.033191,0.928594,0.407588,-0.000095,-0.143545,-32.458778,358.846527,-12.358792,,,,,,
1465847395.66,-2.801199,-0.032372,-1.620265,-0.039006,-2.491312,-0.002404,-0.333683,0.032367,0.942130,0.338978,-0.002612,-0.112586,-32.458778,358.846527,-12.358792,,,,,,
1465847395.67,-2.831436,-0.032102,-1.620524,-0.034610,-3.200651,0.021209,-0.305050,0.032096,0.951795,0.332333,0.000206,-0.106809,-32.458778,358.846527,-12.358792,,,,,,
1465847395.68,-2.869640,-0.031628,-1.620838,-0.064373,-4.037290,0.009395,-0.268479,0.031622,0.962766,0.338791,-0.002966,-0.085188,-32.458778,358.846527,-12.358792,,,,,,
1465847395.69,-2.915996,-0.030698,-1.620924,-0.099346,-4.809112,-0.018797,-0.223582,0.030693,0.974202,0.286204,-0.001595,-0.062855,-33.615669,358.859589,-8.180929,,,,,,
1465847395.70,-2.967909,-0.029841,-1.621056,-0.078698,-5.297599,0.001319,-0.172735,0.029837,0.984516,0.248571,-0.000815,-0.005299,-33.615669,358.859589,-8.180929,,,,,,
1465847395.71,-3.023840,-0.029229,-1.621308,-0.061126,-5.693704,0.019787,-0.117431,0.029225,0.992651,0.210509,-0.001393,0.042826,-33.615669,358.859589,-8.180929,,,,,,
1465847395.72,-3.084183,-0.028440,-1.621547,-0.092549,-6.140687,0.015108,-0.057355,0.028436,0.997949,0.188871,0.000220,0.057151,-33.615669,358.859589,-8.180929,,,,,,
1465847395.73,3.134431,-0.027419,-1.621696,-0.104753,-6.548387,0.008073,0.007159,0.027415,0.999599,0.159299,-0.005367,0.101308,-33.615669,358.859589,-8.180929,,,,,,
1465847395.74,3.067535,-0.026416,-1.621596,-0.097474,-6.713984,-0.007913,0.073964,0.026413,0.996911,0.103694,0.005463,0.144065,-33.615669,358.859589,-8.180929,,,,,,
1465847395.75,3.000531,-0.025660,-1.621542,-0.070845,-6.680064,0.007868,0.140548,0.025657,0.989741,0.043641,0.002633,0.185719,-33.988560,358.874817,5.548873,,,,,,
1465847395.76,2.934324,-0.024929,-1.621673,-0.070794,-6.611097,0.025531,0.205724,0.024926,0.978293,-0.002538,-0.000817,0.209101,-33.988560,358.874817,5.548873,,,,,,
1465847395.77,2.868744,-0.024110,-1.621578,-0.084496,-6.531399,0.004793,0.269397,0.024108,0.962727,-0.057636,0.005036,0.206187,-32.813667,358.872528,10.530493,,,,,,
1465847395.78,2.805422,-0.023383,-1.621259,-0.073456,-6.230894,-0.004532,0.329785,0.023381,0.943767,-0.121578,0.006038,0.231130,-32.813667,358.872528,10.530493,,,,,,
1465847395.79,2.747176,-0.022896,-1.621334,-0.033455,-5.683135,0.032522,0.384169,0.022894,0.922979,-0.169280,-0.001165,0.250407,-32.813667,358.872528,10.530493,,,,,,
1465847395.80,2.694244,-0.022460,-1.621462,-0.042377,-5.162835,0.024992,0.432468,0.022459,0.901370,-0.193485,0.011446,0.218473,-31.144905,358.852386,15.234335,,,,,,
1465847395.81,2.646522,-0.021927,-1.621329,-0.054467,-4.634019,0.009954,0.474980,0.021925,0.879723,-0.250325,0.000536,0.218986,-31.144905,358.852386,15.234335,,,,,,
1465847395.83,2.570589,-0.021251,-1.621404,-0.011263,-3.255888,0.025837,0.540354,0.021250,0.841169,-0.293910,0.009298,0.190050,-29.053564,358.855469,18.862511,,,,,,
1465847395.82,2.605000,-0.021501,-1.621290,-0.032378,-3.982116,0.017597,0.511093,0.021499,0.859257,-0.267227,0.006058,0.197308,-29.053564,358.855469,18.862511,,,,,,
1465847395.84,2.543289,-0.021085,-1.621512,-0.010360,-2.552946,0.010784,0.563116,0.021083,0.826109,-0.292837,0.003865,0.164034,-29.053564,358.855469,18.862511,,,,,,
1465847395.85,2.523723,-0.020901,-1.621301,-0.030610,-1.741680,-0.008162,0.579174,0.020900,0.814936,-0.344890,0.008519,0.148031,-25.593597,358.850708,23.414795,,,,,,
1465847395.86,2.513279,-0.020788,-1.621322,0.001383,-0.803147,0.016853,0.587654,0.020787,0.808845,-0.367989,0.005077,0.154625,-25.593597,358.850708,23.414795,,,,,,
1465847395.87,2.512302,-0.020799,-1.621616,0.021689,0.123768,0.021705,0.588444,0.020798,0.808270,-0.342991,0.005951,0.129291,-25.593597,358.850708,23.414795,,,,,,
1465847395.89,2.534211,-0.020945,-1.621751,0.001308,1.666636,-0.009281,0.570595,0.020943,0.820965,-0.313087,0.007209,0.121906,-25.593597,358.850708,23.414795,,,,,,
1465847395.88,2.519457,-0.020878,-1.621790,0.012049,0.906356,0.004014,0.582645,0.020877,0.812459,-0.325061,0.003064,0.111034,-25.593597,358.850708,23.414795,,,,,,
1465847395.90,2.556756,-0.021111,-1.621836,0.026746,2.451249,0.002855,0.551940,0.021110,0.833617,-0.259597,0.008446,0.121584,-24.904449,358.859222,24.020136,,,,,,
1465847395.91,2.586739,-0.021400,-1.622229,0.049958,3.162590,0.018641,0.526698,0.021398,0.849783,-0.200312,0.005640,0.112238,-24.904449,358.859222,24.020136,,,,,,
1465847395.92,2.622095,-0.021764,-1.622457,0.037833,3.643660,-0.008870,0.496327,0.021762,0.867863,-0.186009,0.006100,0.116314,-25.815315,358.861908,22.995810,,,,,,
1465847395.93,2.661817,-0.022094,-1.622373,0.025626,4.081158,-0.022271,0.461467,0.022093,0.886882,-0.140621,0.001284,0.123402,-25.815315,358.861908,22.995810,,,,,,
1465847395.94,2.705944,-0.022520,-1.622424,0.044257,4.526006,-0.011204,0.421892,0.022518,0.906367,-0.113191,0.005421,0.140371,-25.815315,358.861908,22.995810,,,,,,
1465847395.95,2.754365,-0.023090,-1.622528,0.059680,4.937978,-0.013773,0.377522,0.023088,0.925713,-0.083791,0.005111,0.143150,-28.968927,358.888580,18.355631,,,,,,
1465847395.96,2.806145,-0.023695,-1.622713,0.064290,5.238431,-0.002879,0.329100,0.023693,0.943998,-0.013991,0.004200,0.123629,-28.968927,358.888580,18.355631,,,,,,
1465847395.97,2.859446,-0.024309,-1.622784,0.059125,5.344649,-0.016324,0.278336,0.024307,0.960176,0.012130,0.001404,0.119719,-30.700603,358.903351,14.933162,,,,,,
1465847395.98,2.913204,-0.024859,-1.622641,0.049620,5.394579,-0.024097,0.226338,0.024857,0.973732,0.058803,0.002929,0.130883,-30.700603,358.903351,14.933162,,,,,,
1465847395.99,2.967402,-0.025539,-1.622727,0.074090,5.414680,-0.001846,0.173254,0.025536,0.984546,0.107828,0.000419,0.101483,-30.700603,358.903351,14.933162,,,,,,
1465847396.00,3.020629,-0.026303,-1.622872,0.079237,5.278757,0.002205,0.120627,0.026300,0.992349,0.164987,0.002371,0.074774,-30.700603,358.903351,14.933162,,,,,,
1465847396.01,3.070930,-0.027001,-1.622742,0.060782,4.945448,-0.027656,0.070578,0.026998,0.997141,0.159555,-0.002828,0.071402,-30.700603,358.903351,14.933162,,,,,,
1465847396.02,3.118106,-0.027612,-1.622519,0.062519,4.639636,-0.021479,0.023475,0.027609,0.999343,0.189431,-0.000174,0.036271,-33.231983,358.917938,7.120284,,,,,,
1465847396.04,-3.082187,-0.028917,-1.622506,0.064740,3.883588,-0.003962,-0.059345,0.028913,0.997819,0.261509,-0.001417,-0.010987,-33.231983,358.917938,7.120284,,,,,,
1465847396.03,-3.120771,-0.028256,-1.622493,0.064250,4.355013,0.001597,-0.020812,0.028253,0.999384,0.229385,-0.003076,0.026708,-33.231983,358.917938,7.120284,,,,,,
1465847396.05,-3.047887,-0.029469,-1.622420,0.053327,3.261398,-0.007522,-0.093528,0.029464,0.995181,0.298362,0.003022,-0.049090,-34.045723,358.912292,0.099243,,,,,,
1465847396.06,-3.020334,-0.029825,-1.622145,0.033367,2.593592,-0.024643,-0.120908,0.029820,0.992216,0.296735,-0.007329,-0.053510,-34.045723,358.912292,0.099243,,,,,,
1465847396.07,-2.998854,-0.030161,-1.621987,0.035791,2.003188,-0.006035,-0.142190,0.030157,0.989380,0.312920,0.002100,-0.080353,-34.075764,358.901764,-2.344049,,,,,,
1465847396.08,-2.983381,-0.030442,-1.621880,0.027575,1.384178,-0.008548,-0.157479,0.030438,0.987053,0.299538,-0.002010,-0.093758,-34.075764,358.901764,-2.344049,,,,,,
1465847396.09,-2.974593,-0.030571,-1.621756,0.009710,0.714204,-0.009686,-0.166146,0.030566,0.985627,0.299188,-0.004657,-0.092362,-34.075764,358.901764,-2.344049,,,,,,
1465847396.10,-2.972391,-0.030555,-1.621659,-0.000694,0.052718,-0.009806,-0.168317,0.030550,0.985259,0.288282,0.002012,-0.106963,-34.024895,358.893768,-3.834971,,,,,,
1465847396.11,-2.976593,-0.030516,-1.621602,-0.005738,-0.571623,-0.004831,-0.164176,0.030511,0.985959,0.280402,-0.001336,-0.090009,-34.024895,358.893768,-3.834971,,,,,,
1465847396.12,-2.986833,-0.030372,-1.621572,-0.014996,-1.175784,-0.006371,-0.154071,0.030367,0.987593,0.256671,-0.000933,-0.093123,-34.024895,358.893768,-3.834971,,,,,,
1465847396.13,-3.002813,-0.030094,-1.621522,-0.030592,-1.734269,-0.008206,-0.138272,0.030090,0.989937,0.233151,-0.000473,-0.073708,-34.024895,358.893768,-3.834971,,,,,,
1465847396.14,-3.023824,-0.029745,-1.621534,-0.035461,-2.216334,-0.001994,-0.117445,0.029741,0.992634,0.217497,-0.003191,-0.054859,-34.150944,358.883118,-3.709254,,,,,,
1465847396.15,-3.049375,-0.029404,-1.621571,-0.034957,-2.664412,-0.000248,-0.092047,0.029400,0.995321,0.192618,0.002170,-0.043843,-34.150944,358.883118,-3.709254,,,,,,
1465847396.16,-3.078991,-0.028982,-1.621668,-0.042918,-3.056237,0.010717,-0.062535,0.028978,0.997622,0.189839,-0.002840,-0.024020,-34.150944,358.883118,-3.709254,,,,,,
1465847396.17,-3.112554,-0.028568,-1.621840,-0.044485,-3.456536,0.013226,-0.029023,0.028564,0.999171,0.178559,0.002519,-0.014231,-34.344223,358.883820,-0.050909,,,,,,
1465847396.19,3.093673,-0.027393,-1.621768,-0.055774,-4.001180,-0.003594,0.047883,0.027389,0.998477,0.098784,0.000412,0.045086,-34.344223,358.883820,-0.050909,,,,,,
1465847396.18,3.133431,-0.027960,-1.621840,-0.061912,-3.799437,-0.003801,0.008158,0.027957,0.999576,0.138235,0.000226,0.011243,-34.344223,358.883820,-0.050909,,,,,,
1465847396.20,3.052978,-0.026922,-1.621780,-0.043128,-4.088284,0.007610,0.088466,0.026919,0.995715,0.070057,0.002119,0.047604,-34.197075,358.887421,2.743643,,,,,,
1465847396.21,3.011678,-0.026409,-1.621813,-0.054906,-4.139247,0.008982,0.129505,0.026406,0.991227,0.036465,-0.000008,0.070266,-34.197075,358.887421,2.743643,,,,,,
1465847396.22,2.970163,-0.025840,-1.621910,-0.051751,-4.149902,0.021825,0.170535,0.025837,0.985013,0.029035,0.004223,0.064365,-33.854748,358.882599,5.856110,,,,,,
1465847396.23,2.928618,-0.025325,-1.621935,-0.050658,-4.153044,0.005879,0.211301,0.025322,0.977093,-0.013867,-0.001305,0.087452,-33.854748,358.882599,5.856110,,,,,,
1465847396.24,2.887772,-0.024835,-1.621831,-0.047326,-4.047919,0.002030,0.251027,0.024833,0.967662,-0.052220,0.001687,0.097402,-33.854748,358.882599,5.856110,,,,,,
1465847396.25,2.849035,-0.024453,-1.621706,-0.041678,-3.796263,-0.003801,0.288316,0.024451,0.957223,-0.100709,0.005395,0.108435,-32.224880,358.877594,12.064242,,,,,,
1465847396.26,2.814355,-0.024067,-1.621586,-0.035840,-3.364149,0.007333,0.321335,0.024065,0.946660,-0.140671,0.001387,0.117122,-32.224880,358.877594,12.064242,,,,,,
1465847396.27,2.784010,-0.023830,-1.621767,-0.012980,-2.931004,0.025928,0.349911,0.023828,0.936480,-0.146084,0.014472,0.090834,-32.224880,358.877594,12.064242,,,,,,
1465847396.28,2.757431,-0.023550,-1.621889,-0.025301,-2.573161,0.020478,0.374678,0.023548,0.926856,-0.158339,-0.000858,0.091012,-32.224880,358.877594,12.064242,,,,,,
1465847396.30,2.715654,-0.023002,-1.621664,-0.026363,-1.752332,-0.003831,0.413066,0.023000,0.910411,-0.214778,0.003352,0.101507,-30.191372,358.874725,16.570166,,,,,,
1465847396.29,2.734091,-0.023247,-1.621841,-0.032305,-2.245008,-0.000747,0.396210,0.023245,0.917866,-0.181198,0.008386,0.079495,-30.191372,358.874725,16.570166,,,,,,
1465847396.31,2.702601,-0.022912,-1.621750,-0.000098,-1.146123,0.016876,0.424915,0.022910,0.904943,-0.217136,-0.002189,0.090952,-30.191372,358.874725,16.570166,,,,,,
1465847396.32,2.695514,-0.022907,-1.621933,0.009130,-0.578066,0.014387,0.431318,0.022905,0.901909,-0.212537,0.001814,0.077064,-29.464996,358.864716,18.029074,,,,,,
1465847396.33,2.693252,-0.022882,-1.621985,-0.003044,-0.110843,0.002929,0.433357,0.022880,0.900932,-0.201744,0.002556,0.067772,-29.464996,358.864716,18.029074,,,,,,
1465847396.34,2.714645,-0.023669,-1.621481,-0.003512,0.354333,-0.005311,0.413979,0.023667,0.909979,-0.186669,0.007812,0.059122,-29.464996,358.864716,18.029074,,,,,,
1465847396.35,2.721883,-0.023773,-1.621526,0.017316,0.848031,0.002258,0.407380,0.023771,0.912949,-0.172120,0.011721,0.058242,-29.605785,358.861237,17.868164,,,,,,
1465847396.36,2.734228,-0.023921,-1.621659,0.016875,1.357677,0.006512,0.396078,0.023919,0.917905,-0.158804,0.002372,0.062121,-29.605785,358.861237,17.868164,,,,,,
1465847396.37,2.750965,-0.024068,-1.621741,0.016342,1.774977,-0.000363,0.380659,0.024066,0.924402,-0.136457,0.005414,0.050924,-29.605785,358.861237,17.868164,,,,,,
1465847396.38,2.771939,-0.024239,-1.621747,0.018946,2.149800,-0.004841,0.361186,0.024236,0.932179,-0.116542,0.001261,0.057155,-29.927240,358.868317,17.176739,,,,,,
1465847396.39,2.795933,-0.024507,-1.621915,0.036356,2.471477,0.008062,0.338716,0.024504,0.940569,-0.061616,-0.000472,0.055173,-29.927240,358.868317,17.176739,,,,,,
1465847396.40,2.822212,-0.024862,-1.621973,0.031324,2.675395,-0.011318,0.313881,0.024860,0.949137,-0.057946,0.001797,0.049948,-29.927240,358.868317,17.176739,,,,,,
1465847396.42,2.880529,-0.025504,-1.621861,0.027553,3.055537,-0.019028,0.258024,0.025501,0.965802,-0.028410,0.003994,0.047138,-31.320068,358.882568,14.124226,,,,,,
1465847396.41,2.850375,-0.025177,-1.621933,0.028365,2.864394,-0.011442,0.287028,0.025175,0.957591,-0.026652,0.001574,0.044926,-31.320068,358.882568,14.124226,,,,,,
1465847396.43,2.912620,-0.025849,-1.621845,0.036288,3.254046,-0.004298,0.226901,0.025846,0.973575,0.000424,0.002871,0.053876,-31.320068,358.882568,14.124226,,,,,,
1465847396.44,2.945828,-0.026284,-1.622011,0.048073,3.331519,0.006937,0.194450,0.026281,0.980560,0.057183,0.001993,0.035767,-32.188137,358.880981,12.062802,,,,,,
1465847396.45,2.978406,-0.026697,-1.622037,0.038388,3.222205,-0.009418,0.162405,0.026694,0.986363,0.076883,0.002542,0.019039,-32.188137,358.880981,12.062802,,,,,,
1465847396.46,3.009701,-0.027032,-1.621986,0.033971,3.097974,-0.007579,0.131461,0.027029,0.990953,0.110528,-0.001440,0.020018,-32.188137,358.880981,12.062802,,,,,,
1465847396.47,3.039556,-0.027467,-1.622006,0.043352,2.940817,-0.004455,0.101822,0.027464,0.994424,0.134903,0.000292,0.003532,-33.501335,358.889954,7.266159,,,,,,
1465847396.48,3.067075,-0.027850,-1.621898,0.035664,2.727440,-0.019091,0.074420,0.027847,0.996838,0.132886,-0.004211,0.000400,-33.501335,358.889954,7.266159,,,,,,
1465847396.49,3.092930,-0.028172,-1.621762,0.032217,2.538420,-0.010458,0.048624,0.028168,0.998420,0.149008,-0.000367,-0.006354,-33.501335,358.889954,7.266159,,,,,,
1465847396.51,3.137115,-0.028808,-1.621701,0.027243,1.960814,-0.011098,0.004476,0.028804,0.999575,0.186549,0.002217,-0.032381,-33.916458,358.889099,5.042882,,,,,,
1465847396.50,3.116614,-0.028512,-1.621781,0.035094,2.300549,0.000617,0.024966,0.028509,0.999282,0.174604,0.000422,-0.021102,-33.916458,358.889099,5.042882,,,,,,
1465847396.52,-3.129500,-0.029029,-1.621589,0.020450,1.636968,-0.010138,-0.012088,0.029025,0.999506,0.191165,0.001996,-0.033624,-33.916458,358.889099,5.042882,,,,,,
1465847396.53,-3.115533,-0.029257,-1.621605,0.022146,1.313079,0.005732,-0.026046,0.029253,0.999233,0.214400,0.001234,-0.052013,-34.331097,358.881226,1.666094,,,,,,
1465847396.54,-3.105464,-0.029406,-1.621624,0.012061,0.896883,-0.001247,-0.036105,0.029402,0.998915,0.219165,-0.000990,-0.056975,-34.331097,358.881226,1.666094,,,,,,
1465847396.55,-3.099920,-0.029423,-1.621520,-0.000191,0.444600,-0.012261,-0.041643,0.029419,0.998699,0.210832,-0.005951,-0.059841,-34.331097,358.881226,1.666094,,,,,,
1465847396.56,-3.114986,-0.029329,-1.621910,-0.000669,0.067574,-0.007768,-0.026592,0.029325,0.999216,0.187389,-0.002714,-0.055124,-34.343975,358.883179,0.705525,,,,,,
1465847396.57,-3.116927,-0.029361,-1.621886,0.004207,-0.282835,-0.001307,-0.024652,0.029357,0.999265,0.181589,-0.001861,-0.057813,-34.343975,358.883179,0.705525,,,,,,
1465847396.58,-3.135809,-0.029593,-1.622271,-0.005841,-0.657705,-0.001095,-0.005781,0.029589,0.999545,0.161879,0.001432,-0.059116,-34.343975,358.883179,0.705525,,,,,,
1465847396.59,3.138054,-0.029403,-1.622234,-0.021195,-1.022943,-0.004142,0.003537,0.029399,0.999561,0.148135,0.000096,-0.054432,-34.074345,358.905609,1.680984,,,,,,
1465847396.60,3.125418,-0.029194,-1.622190,-0.021586,-1.336171,-0.003242,0.016167,0.029190,0.999443,0.133278,0.003266,-0.045326,-34.074345,358.905609,1.680984,,,,,,
1465847396.61,3.110101,-0.028977,-1.622138,-0.021898,-1.594175,-0.006947,0.031473,0.028973,0.999085,0.108801,0.000568,-0.031540,-34.074345,358.905609,1.680984,,,,,,
1465847396.62,3.092305,-0.028724,-1.622067,-0.026396,-1.784237,-0.005759,0.049247,0.028720,0.998374,0.075615,0.000363,-0.018271,-34.055824,358.902069,2.572412,,,,,,
1465847396.63,3.073487,-0.028489,-1.622087,-0.022320,-1.911687,0.006753,0.068026,0.028485,0.997277,0.065840,-0.002774,-0.010827,-34.055824,358.902069,2.572412,,,,,,
1465847396.64,3.053280,-0.028247,-1.622164,-0.024639,-2.059283,0.009805,0.088162,0.028243,0.995706,0.063419,0.000840,-0.007348,-34.055824,358.902069,2.572412,,,,,,
1465847396.65,3.031409,-0.027960,-1.622167,-0.030151,-2.228075,-0.000850,0.109918,0.027957,0.993547,0.054420,0.000898,-0.002520,-33.760990,358.899139,5.359742,,,,,,
1465847396.66,3.008401,-0.027604,-1.622068,-0.036619,-2.297080,-0.003617,0.132748,0.027600,0.990766,0.014378,0.000842,0.014117,-33.760990,358.899139,5.359742,,,,,,
1465847396.67,2.985640,-0.027361,-1.622157,-0.019587,-2.267414,0.016438,0.155263,0.027357,0.987494,0.015834,0.002199,0.018365,-33.490009,358.894287,7.102397,,,,,,
1465847396.68,2.962819,-0.027146,-1.622332,-0.019617,-2.286535,0.019751,0.177757,0.027143,0.983700,0.016151,0.002231,0.021839,-33.490009,358.894287,7.102397,,,,,,
1465847396.69,2.939193,-0.026821,-1.622306,-0.039913,-2.376714,-0.003121,0.200949,0.026817,0.979235,-0.002844,0.004356,0.017042,-33.490009,358.894287,7.102397,,,,,,
1465847396.70,2.915600,-0.026470,-1.622164,-0.033474,-2.339548,-0.005477,0.223996,0.026467,0.974231,-0.031460,0.001990,0.035092,-33.490009,358.894287,7.102397,,,,,,
1465847396.72,2.873133,-0.026114,-1.622313,-0.012856,-1.994534,0.014733,0.265156,0.026111,0.963852,-0.066075,-0.000156,0.043350,-32.563068,358.894409,10.563995,,,,,,
1465847396.71,2.893462,-0.026263,-1.622192,-0.015189,-2.165469,0.010481,0.245507,0.026260,0.969039,-0.048928,0.002793,0.044023,-32.563068,358.894409,10.563995,,,,,,
1465847396.73,2.854329,-0.025866,-1.622230,-0.029681,-1.860680,-0.007412,0.283234,0.025863,0.958702,-0.087143,0.000565,0.045982,-32.563068,358.894409,10.563995,,,,,,
1465847396.75,2.824293,-0.025547,-1.622002,-0.005481,-1.220462,0.002435,0.311900,0.025544,0.949771,-0.136775,0.005477,0.066037,-31.999758,358.898376,12.045973,,,,,,
1465847396.74,2.837529,-0.025635,-1.622048,-0.024037,-1.606908,-0.010062,0.299302,0.025633,0.953814,-0.114319,0.000506,0.059705,-31.999758,358.898376,12.045973,,,,,,
1465847396.76,2.815071,-0.025545,-1.622165,0.005620,-0.829774,0.018091,0.320646,0.025542,0.946855,-0.130918,0.004060,0.059203,-31.999758,358.898376,12.045973,,,,,,
1465847396.78,2.805971,-0.025353,-1.622273,-0.013975,-0.348718,-0.000912,0.329250,0.025350,0.943902,-0.124843,0.002817,0.041037,-30.463848,358.994720,12.259239,,,,,,
1465847396.77,2.809990,-0.025489,-1.622293,-0.006817,-0.560062,0.015323,0.325453,0.025486,0.945215,-0.124892,0.004283,0.043036,-30.463848,358.994720,12.259239,,,,,,
1465847396.79,2.804443,-0.025329,-1.622248,0.001264,-0.080096,-0.000453,0.330692,0.025326,0.943399,-0.120289,0.002017,0.042929,-30.463848,358.994720,12.259239,,,,,,
1465847396.81,2.820549,-0.025497,-1.622148,0.007309,0.511345,0.006488,0.315455,0.025494,0.948598,-0.101679,0.001743,0.033793,-30.291605,358.997925,12.588041,,,,,,
1465847396.80,2.816090,-0.025423,-1.622056,0.013363,0.238470,0.003948,0.319682,0.025421,0.947184,-0.111567,-0.000061,0.041631,-30.291605,358.997925,12.588041,,,,,,
1465847396.82,2.827352,-0.025539,-1.622157,0.004408,0.733284,-0.002358,0.308994,0.025537,0.950721,-0.092685,0.002295,0.028740,-30.291605,358.997925,12.588041,,,,,,
1465847396.83,2.840118,-0.025772,-1.622046,0.007872,0.946726,-0.004757,0.296830,0.025769,0.954583,-0.077104,0.003955,0.029274,-30.613987,358.994476,11.886833,,,,,,
1465847396.84,2.851837,-0.025926,-1.621997,0.014545,1.169710,-0.008278,0.285622,0.025923,0.957992,-0.077110,0.001756,0.034119,-30.613987,358.994476,11.886833,,,,,,
1465847396.85,2.865680,-0.026085,-1.621981,0.015917,1.428767,-0.001386,0.272332,0.026082,0.961850,-0.072839,0.003261,0.038471,-30.613987,358.994476,11.886833,,,,,,
1465847396.87,2.899171,-0.026472,-1.622158,0.019497,1.744107,0.001962,0.239970,0.026469,0.970419,-0.026836,0.001637,0.023264,-30.990511,358.989929,11.017154,,,,,,
1465847396.86,2.881802,-0.026287,-1.622088,0.022546,1.635790,0.006902,0.256790,0.026284,0.966110,-0.049194,0.001716,0.026276,-30.990511,358.989929,11.017154,,,,,,
1465847396.88,2.916799,-0.026682,-1.622236,0.021641,1.757907,0.002942,0.222826,0.026679,0.974493,0.010603,0.001611,0.008402,-30.990511,358.989929,11.017154,,,,,,
1465847396.89,2.934206,-0.026879,-1.622206,0.017381,1.736708,-0.009703,0.205829,0.026875,0.978219,0.020428,0.000468,0.008659,-31.617428,358.998932,8.698304,,,,,,
1465847396.90,2.951549,-0.027090,-1.622179,0.020569,1.739877,-0.004397,0.188833,0.027086,0.981636,0.030879,-0.001192,0.005257,-31.617428,358.998932,8.698304,,,,,,
1465847396.91,2.968757,-0.027319,-1.622213,0.023735,1.722878,-0.001094,0.171912,0.027315,0.984734,0.048669,-0.000292,0.002541,-31.617428,358.998932,8.698304,,,,,,
1465847396.92,2.984706,-0.027566,-1.622261,0.021492,1.631561,-0.000523,0.156185,0.027563,0.987343,0.060170,0.001093,-0.008782,-31.948116,358.997620,7.454919,,,,,,
1465847396.93,2.998651,-0.027807,-1.622347,0.020218,1.466973,0.001572,0.142400,0.027803,0.989419,0.089793,0.002577,-0.014886,-31.948116,358.997620,7.454919,,,,,,
1465847396.94,3.011372,-0.027974,-1.622299,0.012540,1.265270,-0.011008,0.129803,0.027971,0.991145,0.088139,0.001387,-0.023173,-32.175404,359.000885,6.218020,,,,,,
1465847396.95,3.022379,-0.028109,-1.622208,0.011291,1.116619,-0.011142,0.118884,0.028106,0.992510,0.082471,0.001542,-0.019534,-32.175404,359.000885,6.218020,,,,,,
1465847396.96,3.032140,-0.028242,-1.622186,0.013262,0.998741,-0.005078,0.109191,0.028238,0.993620,0.089509,-0.000467,-0.020384,-32.175404,359.000885,6.218020,,,,,,
1465847396.97,3.040426,-0.028361,-1.622122,0.009886,0.843734,-0.010496,0.100954,0.028357,0.994487,0.093123,-0.000403,-0.021525,-32.175404,359.000885,6.218020,,,,,,
1465847396.98,3.047134,-0.028430,-1.622039,0.005455,0.704640,-0.010693,0.094280,0.028426,0.995140,0.083256,-0.001907,-0.021507,-32.487492,358.999084,4.447288,,,,,,
1465847396.99,3.051046,-0.028546,-1.622110,0.010595,0.578237,0.002879,0.090387,0.028542,0.995498,0.087760,0.000694,-0.021209,-32.609146,358.994476,3.897474,,,,,,
1465847397.00,3.051426,-0.028715,-1.622290,0.009308,0.403017,0.005041,0.090008,0.028711,0.995527,0.096058,0.000952,-0.028074,-32.609146,358.994476,3.897474,,,,,,
1465847397.01,3.047787,-0.028745,-1.622444,-0.000541,0.173673,-0.004175,0.093629,0.028741,0.995192,0.094496,-0.000390,-0.030928,-32.609146,358.994476,3.897474,,,,,,
1465847397.02,3.042106,-0.028736,-1.622576,-0.002935,-0.037653,-0.002852,0.099281,0.028732,0.994645,0.086113,-0.000274,-0.031311,-32.609146,358.994476,3.897474,,,,,,
1465847397.03,3.035262,-0.028731,-1.622707,-0.001031,-0.217124,-0.001724,0.106087,0.028727,0.993942,0.077919,-0.000422,-0.028778,-32.609146,358.994476,3.897474,,,,,,
1465847397.04,3.027439,-0.028657,-1.622807,-0.005510,-0.395519,-0.002738,0.113859,0.028654,0.993084,0.067996,-0.001127,-0.023906,-32.408516,359.012238,3.932541,,,,,,
1465847397.05,3.018962,-0.028620,-1.622822,-0.012091,-0.560094,-0.008099,0.122273,0.028616,0.992084,0.052394,0.000605,-0.023105,-32.408516,359.012238,3.932541,,,,,,
1465847397.06,3.010601,-0.028519,-1.622774,-0.013297,-0.675833,-0.009503,0.130564,0.028515,0.991030,0.032415,0.000111,-0.015932,-32.261631,359.019745,4.425745,,,,,,
1465847397.07,3.003445,-0.028425,-1.622705,-0.006980,-0.725753,-0.004926,0.137653,0.028421,0.990073,0.011044,0.001104,-0.004843,-32.261631,359.019745,4.425745,,,,,,
1465847397.08,2.996074,-0.028371,-1.622702,-0.004884,-0.740639,0.002620,0.144947,0.028367,0.989033,-0.001865,0.000152,0.001095,-32.187969,359.018555,5.019392,,,,,,
1465847397.09,2.988383,-0.028285,-1.622766,-0.007078,-0.784187,0.008213,0.152550,0.028281,0.987891,0.002449,0.001184,-0.003196,-32.187969,359.018555,5.019392,,,,,,
1465847397.10,2.979564,-0.028214,-1.622822,-0.013569,-0.871244,0.005560,0.161257,0.028210,0.986509,0.007750,0.002384,-0.007688,-32.187969,359.018555,5.019392,,,,,,
1465847397.11,2.969913,-0.028070,-1.622829,-0.014713,-0.947691,0.001783,0.170770,0.028066,0.984911,0.002997,0.000269,-0.002077,-32.187969,359.018555,5.019392,,,,,,
1465847397.12,2.959768,-0.027970,-1.622862,-0.009446,-0.985932,0.006286,0.180754,0.027966,0.983131,0.000277,0.000415,0.000314,-31.981834,359.019867,6.120835,,,,,,
1465847397.13,2.949439,-0.027848,-1.622957,-0.008439,-1.025232,0.010791,0.190900,0.027844,0.981215,0.002460,-0.001004,0.001207,-31.981834,359.019867,6.120835,,,,,,
1465847397.15,2.926931,-0.027514,-1.622898,-0.021349,-1.162146,-0.007523,0.212937,0.027511,0.976679,-0.015198,-0.000472,0.005041,-31.824739,359.020905,6.836412,,,,,,
1465847397.14,2.938412,-0.027711,-1.622994,-0.013849,-1.108027,0.002789,0.201708,0.027707,0.979054,-0.002627,-0.000226,-0.000660,-31.824739,359.020905,6.836412,,,,,,
1465847397.16,2.915720,-0.027386,-1.622830,-0.011715,-1.109081,-0.000395,0.223873,0.027382,0.974234,-0.031154,0.001610,0.015299,-31.824739,359.020905,6.836412,,,,,,
1465847397.17,2.905348,-0.027311,-1.622877,-0.005238,-1.025225,0.007601,0.233966,0.027308,0.971861,-0.039264,0.003439,0.020082,-31.824739,359.020905,6.836412,,,,,,
1465847397.18,2.895693,-0.027188,-1.622888,-0.014741,-0.966811,0.004031,0.243339,0.027185,0.969560,-0.047782,0.003348,0.019621,-31.456814,359.019257,8.438099,,,,,,
1465847397.19,2.886667,-0.027028,-1.622846,-0.015723,-0.906278,0.000458,0.252082,0.027025,0.967329,-0.055426,0.001387,0.021151,-31.456814,359.019257,8.438099,,,,,,
1465847397.20,2.878631,-0.026934,-1.622815,-0.007067,-0.795854,-0.000226,0.259848,0.026931,0.965274,-0.063879,0.000382,0.026715,-31.244099,359.020935,9.129984,,,,,,
1465847397.21,2.872180,-0.026896,-1.622843,-0.001585,-0.657840,0.006365,0.266069,0.026893,0.963579,-0.070040,0.000420,0.029006,-31.244099,359.020935,9.129984,,,,,,
1465847397.22,2.868390,-0.026884,-1.622874,-0.002514,-0.546348,0.007793,0.269719,0.026881,0.962564,-0.070622,0.001012,0.022971,-31.244099,359.020935,9.129984,,,,,,
1465847397.23,2.866507,-0.026850,-1.622796,-0.009859,-0.471983,-0.000132,0.271531,0.026847,0.962055,-0.069276,0.001183,0.017880,-31.244099,359.020935,9.129984,,,,,,
1465847397.24,2.865625,-0.026852,-1.622649,-0.006516,-0.358349,-0.004035,0.272380,0.026849,0.961815,-0.071620,0.001853,0.022819,-30.958729,359.020020,10.086002,,,,,,
1465847397.25,2.866290,-0.026902,-1.622567,0.002190,-0.199086,0.001362,0.271740,0.026898,0.961995,-0.071407,0.001330,0.026470,-30.958729,359.020020,10.086002,,,,,,
1465847397.26,2.868558,-0.026938,-1.622518,0.002384,-0.038749,0.003549,0.269557,0.026935,0.962608,-0.070170,0.000638,0.025628,-31.005091,359.012665,10.204771,,,,,,
1465847397.27,2.871981,-0.026998,-1.622449,-0.001702,0.095059,0.000577,0.266260,0.026994,0.963523,-0.066080,0.001631,0.020333,-31.005091,359.012665,10.204771,,,,,,
1465847397.28,2.876516,-0.026986,-1.622379,0.000590,0.224610,-0.000233,0.261887,0.026983,0.964721,-0.061997,-0.000189,0.021210,-31.005091,359.012665,10.204771,,,,,,
1465847397.29,2.881984,-0.027093,-1.622357,0.004998,0.352020,0.004294,0.256608,0.027089,0.966136,-0.053804,0.001994,0.019185,-31.005091,359.012665,10.204771,,,,,,
1465847397.30,2.888100,-0.027155,-1.622362,0.008314,0.448651,0.003691,0.250694,0.027151,0.967686,-0.043662,0.000116,0.015942,-31.005091,359.012665,10.204771,,,,,,
1465847397.31,2.894368,-0.027155,-1.622375,0.005196,0.508123,0.002251,0.244623,0.027152,0.969238,-0.030771,-0.001441,0.010849,-31.353405,359.003723,9.426308,,,,,,
1465847397.32,2.900469,-0.027264,-1.622368,0.006301,0.534680,-0.001108,0.238705,0.027261,0.970710,-0.017437,0.001426,0.006479,-31.353405,359.003723,9.426308,,,,,,
1465847397.33,2.907231,-0.027441,-1.622304,0.005275,0.559119,-0.005520,0.232134,0.027437,0.972297,-0.017916,0.001143,0.004296,-31.353405,359.003723,9.426308,,,,,,
1465847397.34,2.913754,-0.027562,-1.622266,0.006395,0.607956,-0.002632,0.225787,0.027559,0.973787,-0.015185,0.001799,0.004317,-31.474951,359.004028,8.999052,,,,,,
1465847397.35,2.920565,-0.027594,-1.622270,0.007516,0.657853,0.000249,0.219149,0.027590,0.975301,-0.007815,-0.001223,0.002436,-31.474951,359.004028,8.999052,,,,,,
1465847397.36,2.927373,-0.027632,-1.622302,0.007530,0.670592,0.001234,0.212504,0.027628,0.976770,-0.000391,-0.001261,-0.000085,-31.651625,359.001038,8.484265,,,,,,
1465847397.37,2.933898,-0.027680,-1.622309,0.005380,0.649365,-0.001828,0.206125,0.027676,0.978134,0.004232,-0.000928,-0.002945,-31.651625,359.001038,8.484265,,,,,,
1465847397.38,2.939996,-0.027755,-1.622285,0.007483,0.622827,-0.004853,0.200157,0.027751,0.979371,0.009896,0.000050,-0.003037,-31.757080,359.002319,8.025438,,,,,,
1465847397.39,2.945762,-0.027880,-1.622292,0.010646,0.604762,-0.000479,0.194506,0.027877,0.980505,0.014433,0.000901,-0.005499,-31.757080,359.002319,8.025438,,,,,,
1465847397.40,2.951135,-0.027968,-1.622326,0.007406,0.569719,0.000802,0.189234,0.027964,0.981534,0.020299,0.000463,-0.011792,-31.757080,359.002319,8.025438,,,,,,
1465847397.41,2.955868,-0.028023,-1.622336,0.004142,0.509204,-0.002015,0.184586,0.028019,0.982417,0.021652,-0.000401,-0.010676,-31.757080,359.002319,8.025438,,,,,,
1465847397.42,2.959856,-0.028057,-1.622337,0.003005,0.449744,-0.002708,0.180667,0.028053,0.983144,0.025494,0.000054,-0.008947,-31.953005,359.003448,7.148352,,,,,,
1465847397.43,2.963036,-0.028145,-1.622374,0.007178,0.386021,0.000889,0.177539,0.028142,0.983711,0.031461,0.000850,-0.012108,-31.953005,359.003448,7.148352,,,,,,
1465847397.44,2.965258,-0.028250,-1.622444,0.007069,0.301069,0.002487,0.175353,0.028247,0.984100,0.036546,0.000913,-0.018997,-31.953005,359.003448,7.148352,,,,,,
1465847397.45,2.966283,-0.028282,-1.622495,0.001606,0.186397,0.001072,0.174343,0.028278,0.984279,0.040897,-0.000065,-0.018931,-32.026894,359.007568,6.589089,,,,,,
1465847397.46,2.966152,-0.028277,-1.622526,-0.000668,0.067477,-0.000314,0.174472,0.028273,0.984256,0.038861,-0.000487,-0.018863,-32.026894,359.007568,6.589089,,,,,,
1465847397.48,2.962624,-0.028255,-1.622564,-0.002010,-0.156566,-0.001039,0.177944,0.028251,0.983635,0.033985,-0.001136,-0.015709,-32.005463,359.010254,6.545823,,,,,,
1465847397.47,2.964875,-0.028279,-1.622549,0.001318,-0.048262,-0.000650,0.175729,0.028275,0.984033,0.037986,-0.000580,-0.016854,-32.005463,359.010254,6.545823,,,,,,
1465847397.49,2.959655,-0.028224,-1.622549,-0.004252,-0.252122,-0.003635,0.180864,0.028220,0.983103,0.024275,0.000085,-0.010340,-32.005463,359.010254,6.545823,,,,,,
1465847397.50,2.956051,-0.028181,-1.622504,-0.005410,-0.329629,-0.005279,0.184406,0.028177,0.982446,0.016080,0.000052,-0.010812,-32.005463,359.010254,6.545823,,,,,,
1465847397.51,2.952139,-0.028143,-1.622456,-0.005461,-0.368920,-0.003968,0.188248,0.028140,0.981718,0.010116,0.000516,-0.003340,-31.939219,359.009460,6.904202,,,,,,
1465847397.52,2.948183,-0.028137,-1.622425,-0.004415,-0.380607,-0.001765,0.192130,0.028133,0.980966,0.005136,0.001286,-0.001871,-31.939219,359.009460,6.904202,,,,,,
1465847397.54,2.940862,-0.027982,-1.622389,-0.003326,-0.357254,0.000219,0.199307,0.027978,0.979538,-0.003735,-0.000314,0.004959,-31.908566,359.006836,7.176349,,,,,,
1465847397.53,2.944395,-0.028035,-1.622402,-0.006533,-0.371050,-0.001827,0.195845,0.028031,0.980234,0.000978,-0.001801,0.003439,-31.908566,359.006836,7.176349,,,,,,
1465847397.55,2.937565,-0.027968,-1.622375,-0.002234,-0.336018,0.000087,0.202536,0.027965,0.978875,-0.006399,0.000844,0.003180,-31.908566,359.006836,7.176349,,,,,,
1465847397.56,2.934539,-0.027972,-1.622363,-0.003275,-0.316904,-0.000034,0.205497,0.027969,0.978258,-0.009254,0.001694,0.005369,-31.908566,359.006836,7.176349,,,,,,
1465847397.57,2.931867,-0.027951,-1.622335,-0.004295,-0.281863,-0.000255,0.208111,0.027947,0.977706,-0.011196,0.000892,0.005235,-31.817522,359.004639,7.673346,,,,,,
1465847397.58,2.929671,-0.027958,-1.622327,0.000010,-0.241521,0.001625,0.210257,0.027954,0.977246,-0.014090,0.001449,0.008120,-31.817522,359.004639,7.673346,,,,,,
1465847397.59,2.927985,-0.027901,-1.622320,-0.002057,-0.191613,0.001310,0.211904,0.027898,0.976892,-0.015294,-0.001240,0.006384,-31.791094,359.003479,7.835889,,,,,,
1465847397.61,2.926094,-0.027880,-1.622290,-0.000869,-0.094983,-0.000359,0.213751,0.027876,0.976490,-0.017310,0.000765,0.007976,-31.791094,359.003479,7.835889,,,,,,
1465847397.60,2.926779,-0.027873,-1.622306,-0.003065,-0.148074,-0.000029,0.213083,0.027870,0.976637,-0.017221,-0.000206,0.008745,-31.791094,359.003479,7.835889,,,,,,
1465847397.62,2.925927,-0.027890,-1.622279,0.001327,-0.041892,-0.000690,0.213914,0.027886,0.976454,-0.016908,0.000464,0.007677,-31.791094,359.003479,7.835889,,,,,,
1465847397.63,2.926266,-0.027914,-1.622253,-0.000738,0.009077,-0.001012,0.213584,0.027911,0.976526,-0.016593,0.001157,0.006277,-31.773258,359.001801,7.982497,,,,,,
1465847397.64,2.927091,-0.027879,-1.622244,-0.000679,0.057919,-0.000254,0.212778,0.027875,0.976703,-0.016000,-0.000959,0.007199,-31.773258,359.001801,7.982497,,,,,,
1465847397.65,2.928327,-0.027864,-1.622234,-0.000626,0.101451,0.000538,0.211571,0.027861,0.976966,-0.013969,-0.000258,0.007181,-31.793894,359.000641,7.952144,,,,,,
1465847397.66,2.929909,-0.027859,-1.622229,0.003680,0.137555,-0.000749,0.210025,0.027856,0.977299,-0.011508,-0.001107,0.007839,-31.793894,359.000641,7.952144,,,,,,
1465847397.67,2.931739,-0.027908,-1.622230,0.002652,0.168346,0.000121,0.208236,0.027904,0.977681,-0.009246,0.001088,0.001796,-31.793894,359.000641,7.952144,,,,,,
1465847397.68,2.933723,-0.027929,-1.622238,0.000539,0.185331,0.002141,0.206295,0.027926,0.978091,-0.006924,0.000654,0.001874,-31.793894,359.000641,7.952144,,,,,,
1465847397.69,2.935728,-0.027931,-1.622250,0.002677,0.188521,-0.000005,0.204334,0.027927,0.978503,-0.004566,-0.000873,0.000471,-31.851681,359.000519,7.723783,,,,,,
1465847397.70,2.937639,-0.027958,-1.622256,0.001608,0.186396,0.001071,0.202463,0.027954,0.978891,-0.001032,0.000793,-0.002008,-31.851681,359.000519,7.723783,,,,,,
1465847397.71,2.939451,-0.027944,-1.622259,0.001595,0.174719,0.000080,0.200689,0.027941,0.979256,-0.000402,-0.001467,-0.000924,-31.851681,359.000519,7.723783,,,,,,
1465847397.72,2.941044,-0.027983,-1.622260,0.002641,0.157732,-0.000877,0.199129,0.027979,0.979574,0.002242,0.001028,-0.002233,-31.877424,359.001129,7.587649,,,,,,
1465847397.74,2.943210,-0.028068,-1.622279,0.001503,0.099332,-0.000512,0.197006,0.028064,0.980000,0.006622,0.001492,-0.006475,-31.877424,359.001129,7.587649,,,,,,
1465847397.73,2.942278,-0.028020,-1.622272,0.001540,0.129063,-0.000698,0.197919,0.028016,0.979818,0.006441,0.000518,-0.004079,-31.877424,359.001129,7.587649,,,,,,
1465847397.75,2.943812,-0.028066,-1.622285,0.000396,0.065354,-0.000300,0.196416,0.028063,0.980119,0.006251,-0.000353,-0.005281,-31.919079,359.001984,7.369695,,,,,,
1465847397.77,2.943993,-0.028065,-1.622285,0.000311,-0.002602,0.000127,0.196239,0.028061,0.980155,0.006749,0.000488,-0.005835,-31.919079,359.001984,7.369695,,,,,,
1465847397.76,2.944088,-0.028054,-1.622286,-0.000709,0.033500,-0.000101,0.196146,0.028050,0.980173,0.005987,-0.000432,-0.006373,-31.919079,359.001984,7.369695,,,,,,
1465847397.78,2.943557,-0.028078,-1.622288,0.000272,-0.035516,-0.000732,0.196666,0.028074,0.980068,0.006825,0.000383,-0.005169,-31.921968,359.002228,7.345905,,,,,,
1465847397.79,2.942852,-0.028105,-1.622286,0.001295,-0.068433,-0.000524,0.197357,0.028101,0.979929,0.003967,0.001104,-0.004526,-31.921968,359.002228,7.345905,,,,,,
1465847397.80,2.941877,-0.028131,-1.622268,-0.001930,-0.094974,-0.001425,0.198312,0.028128,0.979735,0.002677,0.001200,-0.004561,-31.919081,359.002319,7.354335,,,,,,
1465847397.81,2.940767,-0.028117,-1.622252,-0.001950,-0.110901,-0.001325,0.199399,0.028113,0.979515,0.000842,0.000009,-0.004433,-31.919081,359.002319,7.354335,,,,,,
1465847397.82,2.939586,-0.028066,-1.622228,-0.003025,-0.119395,-0.001273,0.200557,0.028063,0.979280,-0.000438,-0.001284,-0.000154,-31.919081,359.002319,7.354335,,,,,,
1465847397.83,2.938417,-0.028048,-1.622205,-0.000899,-0.123640,-0.002309,0.201701,0.028045,0.979046,-0.003535,-0.000121,0.000614,-31.919081,359.002319,7.354335,,,,,,
1465847397.84,2.937321,-0.028015,-1.622182,-0.000893,-0.117272,-0.001284,0.202775,0.028011,0.978825,-0.004761,-0.001186,0.002209,-31.909851,359.000305,7.489455,,,,,,
1465847397.85,2.936357,-0.028039,-1.622162,-0.004062,-0.097095,-0.001414,0.203718,0.028035,0.978628,-0.005323,0.002116,0.000544,-31.909851,359.000305,7.489455,,,,,,
1465847397.86,2.935672,-0.027997,-1.622150,-0.004039,-0.076923,-0.000476,0.204388,0.027993,0.978490,-0.006421,0.000266,0.003948,-31.909851,359.000305,7.489455,,,,,,
1465847397.87,2.935143,-0.028014,-1.622135,-0.000824,-0.060997,-0.000573,0.204906,0.028010,0.978381,-0.007122,0.000951,0.001966,-31.902599,358.997681,7.644446,,,,,,
1465847397.88,2.934879,-0.027972,-1.622121,-0.001856,-0.034451,-0.000740,0.205165,0.027968,0.978328,-0.006526,-0.001205,0.005788,-31.902599,358.997681,7.644446,,,,,,
1465847397.89,2.934854,-0.027962,-1.622114,0.000302,-0.010033,0.000173,0.205189,0.027959,0.978323,-0.007084,-0.000676,0.002619,-31.902599,358.997681,7.644446,,,,,,
1465847397.90,2.935104,-0.028019,-1.622117,0.000337,0.017575,-0.000000,0.204943,0.028015,0.978373,-0.007205,0.002716,0.004339,-31.905025,358.996704,7.680691,,,,,,
1465847397.92,2.936193,-0.028045,-1.622095,-0.000677,0.057925,-0.000254,0.203878,0.028041,0.978595,-0.005285,0.001012,0.003324,-31.911297,358.996613,7.657336,,,,,,
1465847397.91,2.935553,-0.028022,-1.622104,0.001428,0.036690,-0.001183,0.204505,0.028018,0.978465,-0.006445,-0.000446,0.000753,-31.911297,358.996613,7.657336,,,,,,
1465847397.93,2.936964,-0.028036,-1.622095,0.000405,0.071728,-0.000340,0.203123,0.028032,0.978752,-0.004393,-0.000704,-0.000175,-31.911297,358.996613,7.657336,,,,,,
1465847397.94,2.937831,-0.028066,-1.622098,0.000419,0.082347,-0.000406,0.202275,0.028063,0.978927,-0.002857,0.000899,0.001496,-31.911297,358.996613,7.657336,,,,,,
1465847397.95,2.938712,-0.028079,-1.622107,0.003611,0.082342,0.000661,0.201412,0.028076,0.979104,-0.001949,-0.000366,-0.001809,-31.942423,358.996033,7.555066,,,,,,
1465847397.96,2.939570,-0.028084,-1.622121,0.000416,0.083403,0.001716,0.200572,0.028080,0.979276,-0.000987,-0.000446,-0.000334,-31.942423,358.996033,7.555066,,,,,,
1465847397.97,2.940373,-0.028027,-1.622135,-0.002783,0.080219,0.001733,0.199786,0.028023,0.979439,0.000593,-0.002022,-0.001595,-31.942423,358.996033,7.555066,,,,,,
1465847397.98,2.941011,-0.028047,-1.622133,0.001455,0.060048,-0.000266,0.199161,0.028043,0.979565,0.001309,0.000811,-0.001050,-31.948572,358.996826,7.491711,,,,,,
1465847397.99,2.941352,-0.028093,-1.622137,0.003556,0.036687,-0.000117,0.198827,0.028090,0.979632,0.001841,0.000032,-0.009097,-31.948572,358.996826,7.491711,,,,,,
1465847398.00,2.941560,-0.028027,-1.622149,-0.002851,0.023946,0.001021,0.198624,0.028023,0.979675,0.005127,-0.002114,0.004090,-31.948572,358.996826,7.491711,,,,,,
1465847398.01,2.941436,-0.028100,-1.622143,0.004565,-0.011089,-0.001945,0.198744,0.028096,0.979649,0.002550,0.001948,-0.011143,-31.949533,358.997681,7.446111,,,,,,
1465847398.02,2.941222,-0.028119,-1.622135,-0.000775,-0.020649,0.000238,0.198954,0.028115,0.979606,0.002035,0.001106,0.001123,-31.949533,358.997681,7.446111,,,,,,
1465847398.03,2.940742,-0.028157,-1.622130,0.000258,-0.048254,-0.000652,0.199424,0.028153,0.979509,0.000985,0.001907,-0.009416,-31.949533,358.997681,7.446111,,,,,,
1465847398.04,2.940182,-0.028181,-1.622136,-0.002951,-0.054632,0.002578,0.199973,0.028177,0.979396,-0.000037,0.002386,-0.004177,-31.958416,358.997314,7.425550,,,,,,
1465847398.05,2.939616,-0.028079,-1.622147,-0.000824,-0.059936,0.000485,0.200528,0.028076,0.979286,-0.000973,-0.004501,-0.001274,-31.958416,358.997314,7.425550,,,,,,
1465847398.06,2.939023,-0.028060,-1.622130,-0.001892,-0.064179,-0.000554,0.201108,0.028057,0.979167,-0.002271,0.000279,0.004338,-31.958416,358.997314,7.425550,,,,,,
1465847398.07,2.938406,-0.028002,-1.622117,0.000236,-0.065242,-0.000545,0.201713,0.027998,0.979044,-0.002799,-0.002959,0.000951,-31.939583,358.997131,7.516658,,,,,,
1465847398.08,2.937879,-0.028043,-1.622103,0.001316,-0.056742,-0.002727,0.202228,0.028040,0.978937,-0.003619,0.001181,0.002874,-31.939583,358.997131,7.516658,,,,,,
1465847398.09,2.937485,-0.028060,-1.622086,0.001330,-0.044003,-0.001742,0.202613,0.028056,0.978857,-0.004310,-0.000010,0.001719,-31.939583,358.997131,7.516658,,,,,,
1465847398.10,2.937187,-0.028105,-1.622076,-0.001850,-0.031262,-0.000761,0.202905,0.028101,0.978795,-0.004602,0.002859,-0.001805,-31.939400,358.996185,7.561152,,,,,,
1465847398.11,2.937068,-0.028132,-1.622064,0.000299,-0.015336,-0.000859,0.203022,0.028128,0.978770,-0.004428,0.001825,-0.000422,-31.939400,358.996185,7.561152,,,,,,
1465847398.12,2.937153,-0.028134,-1.622055,-0.000732,0.004819,0.000082,0.202938,0.028130,0.978787,-0.004391,0.000800,0.001056,-31.939400,358.996185,7.561152,,,,,,
1465847398.13,2.937403,-0.028078,-1.622056,0.000348,0.017561,0.000003,0.202693,0.028075,0.978840,-0.004390,-0.002593,0.005139,-31.957197,358.994720,7.556057,,,,,,
1465847398.14,2.937711,-0.028098,-1.622042,-0.001768,0.026060,-0.001117,0.202392,0.028094,0.978902,-0.003753,0.001401,0.001445,-31.957197,358.994720,7.556057,,,,,,
1465847398.15,2.938156,-0.028082,-1.622045,-0.000688,0.041981,0.000913,0.201957,0.028078,0.978992,-0.003089,-0.001040,0.002164,-31.957197,358.994720,7.556057,,,,,,
1465847398.16,2.938653,-0.028122,-1.622050,0.000380,0.044104,0.000901,0.201470,0.028118,0.979091,-0.002907,0.001499,-0.000377,-31.963375,358.994263,7.551888,,,,,,
1465847398.17,2.939145,-0.028137,-1.622045,0.000385,0.046231,-0.000177,0.200988,0.028133,0.979190,-0.001922,-0.000057,-0.000079,-31.963375,358.994263,7.551888,,,,,,
1465847398.18,2.939653,-0.028156,-1.622048,-0.000677,0.048355,-0.000191,0.200490,0.028153,0.979291,-0.001424,0.000885,-0.000806,-31.963375,358.994263,7.551888,,,,,,
1465847398.19,2.940121,-0.028186,-1.622045,0.002512,0.043047,-0.001219,0.200032,0.028182,0.979384,-0.000645,0.000459,-0.000777,-31.980061,358.994507,7.468789,,,,,,
1465847398.20,2.940478,-0.028202,-1.622049,-0.000694,0.034552,-0.000105,0.199682,0.028198,0.979455,0.000254,0.000976,-0.003426,-31.980061,358.994507,7.468789,,,,,,
1465847398.21,2.940698,-0.028216,-1.622049,0.000353,0.020748,-0.000017,0.199466,0.028212,0.979499,0.000989,0.000841,-0.001837,-31.980061,358.994507,7.468789,,,,,,
1465847398.22,2.940800,-0.028188,-1.622059,-0.000728,0.011186,0.002171,0.199367,0.028184,0.979520,0.001302,-0.001100,-0.001721,-31.989260,358.994568,7.426245,,,,,,
1465847398.23,2.940791,-0.028149,-1.622063,-0.000742,-0.003674,0.000135,0.199376,0.028145,0.979519,0.001110,-0.001412,0.001225,-31.989260,358.994568,7.426245,,,,,,
1465847398.24,2.940626,-0.028095,-1.622054,0.000304,-0.019598,-0.000829,0.199538,0.028091,0.979487,0.000139,-0.003097,-0.000407,-31.989260,358.994568,7.426245,,,,,,
1465847398.26,2.940042,-0.028138,-1.622048,-0.000776,-0.032339,-0.000750,0.200110,0.028135,0.979369,-0.000113,0.002169,-0.003845,-31.980789,358.994659,7.458821,,,,,,
1465847398.25,2.940377,-0.028089,-1.622053,0.001361,-0.025970,-0.000788,0.199782,0.028085,0.979438,-0.000151,-0.000879,-0.001105,-31.980789,358.994659,7.458821,,,,,,
1465847398.27,2.939693,-0.028157,-1.622027,-0.001845,-0.037645,-0.001782,0.200451,0.028153,0.979299,-0.000958,0.001891,-0.001287,-31.980789,358.994659,7.458821,,,,,,
1465847398.28,2.939308,-0.028183,-1.622018,-0.000786,-0.040834,-0.000697,0.200828,0.028179,0.979221,-0.001594,0.001865,-0.000583,-31.981663,358.994476,7.462701,,,,,,
1465847398.29,2.938983,-0.028160,-1.622011,-0.001842,-0.033400,-0.000744,0.201147,0.028156,0.979156,-0.001852,-0.000309,-0.000137,-31.981663,358.994476,7.462701,,,,,,
1465847398.30,2.938708,-0.028121,-1.622000,-0.000771,-0.030212,-0.001828,0.201416,0.028117,0.979102,-0.002777,-0.001598,0.000451,-31.981663,358.994476,7.462701,,,,,,
1465847398.31,2.938492,-0.028095,-1.621989,-0.000765,-0.023844,-0.000803,0.201628,0.028092,0.979059,-0.002806,-0.001114,0.001699,-31.987314,358.992889,7.514870,,,,,,
1465847398.32,2.938392,-0.028073,-1.621974,0.000314,-0.014285,-0.001926,0.201726,0.028069,0.979040,-0.003514,-0.001335,0.001948,-31.987314,358.992889,7.514870,,,,,,
1465847398.33,2.938396,-0.028058,-1.621964,0.001389,-0.003671,-0.000927,0.201722,0.028054,0.979041,-0.003067,-0.001107,0.001794,-31.987314,358.992889,7.514870,,,,,,
1465847398.34,2.938455,-0.028086,-1.621960,0.000333,0.002701,-0.000969,0.201663,0.028082,0.979052,-0.003040,0.001077,0.000608,-31.990677,358.992004,7.544043,,,,,,
1465847398.35,2.938614,-0.028098,-1.621958,-0.000719,0.014379,0.000022,0.201508,0.028094,0.979084,-0.002244,0.001111,0.000363,-31.990677,358.992004,7.544043,,,,,,
1465847398.36,2.938850,-0.028119,-1.621967,-0.000712,0.021809,0.001039,0.201277,0.028115,0.979131,-0.002531,0.001136,-0.000234,-31.990677,358.992004,7.544043,,,,,,
1465847398.37,2.939129,-0.028108,-1.621968,0.001425,0.026058,-0.000050,0.201004,0.028104,0.979187,-0.001693,-0.001172,0.000427,-31.999706,358.991821,7.513461,,,,,,
1465847398.38,2.939452,-0.028111,-1.621958,0.001431,0.029246,-0.001134,0.200687,0.028108,0.979252,-0.001987,-0.000489,-0.000752,-31.999706,358.991821,7.513461,,,,,,
1465847398.39,2.939781,-0.028111,-1.621952,0.000368,0.030309,-0.001142,0.200365,0.028108,0.979318,-0.001101,-0.000321,-0.001108,-31.999706,358.991821,7.513461,,,,,,
1465847398.40,2.940071,-0.028086,-1.621931,0.000365,0.026065,-0.002180,0.200081,0.028082,0.979377,-0.000817,-0.001959,-0.000037,-32.007130,358.991516,7.497648,,,,,,
1465847398.41,2.940278,-0.028099,-1.621932,0.001419,0.019690,-0.001074,0.199878,0.028096,0.979418,-0.000126,0.000255,-0.000216,-32.007130,358.991516,7.497648,,,,,,
1465847398.42,2.940448,-0.028132,-1.621929,0.001413,0.014381,-0.001041,0.199712,0.028128,0.979451,-0.000204,0.001032,0.001018,-32.007130,358.991516,7.497648,,,,,,
1465847398.43,2.940527,-0.028167,-1.621922,0.000337,0.005888,-0.000989,0.199635,0.028164,0.979466,-0.000004,0.001393,-0.002323,-32.025890,358.990601,7.460682,,,,,,
1465847398.44,2.940493,-0.028235,-1.621915,0.001391,-0.003669,-0.000928,0.199668,0.028231,0.979457,-0.000250,0.002912,-0.003505,-32.025890,358.990601,7.460682,,,,,,
1465847398.45,2.940393,-0.028237,-1.621916,-0.000749,-0.010042,0.000175,0.199765,0.028233,0.979437,-0.000439,0.000499,-0.002890,-32.038570,358.990234,7.423974,,,,,,
1465847398.47,2.940098,-0.028209,-1.621915,-0.000762,-0.020660,0.000241,0.200054,0.028205,0.979379,-0.000973,-0.001609,0.000312,-32.038570,358.990234,7.423974,,,,,,
1465847398.46,2.940269,-0.028246,-1.621910,-0.000752,-0.014286,-0.000863,0.199886,0.028242,0.979412,-0.000149,0.001207,-0.000851,-32.038570,358.990234,7.423974,,,,,,
1465847398.48,2.939876,-0.028185,-1.621900,-0.000765,-0.024904,-0.000797,0.200272,0.028182,0.979335,-0.001054,-0.001067,0.002156,-32.039669,358.990021,7.427613,,,,,,
1465847398.49,2.939660,-0.028181,-1.621889,0.001367,-0.022781,-0.000808,0.200483,0.028178,0.979292,-0.001188,-0.001185,0.000475,-32.039669,358.990021,7.427613,,,,,,
1465847398.50,2.939448,-0.028176,-1.621880,-0.001828,-0.022780,-0.000811,0.200691,0.028172,0.979249,-0.001396,-0.000325,-0.001131,-32.039669,358.990021,7.427613,,,,,,
1465847398.51,2.939265,-0.028209,-1.621869,-0.001827,-0.020659,0.000240,0.200870,0.028205,0.979212,-0.002002,0.002572,-0.000437,-32.039669,358.990021,7.427613,,,,,,
1465847398.52,2.939151,-0.028181,-1.621861,-0.001816,-0.012164,0.000187,0.200982,0.028177,0.979190,-0.001824,-0.000651,-0.001422,-32.038815,358.989014,7.480737,,,,,,
1465847398.53,2.939129,-0.028196,-1.621851,0.000326,-0.003668,-0.000929,0.201003,0.028193,0.979185,-0.002028,0.000875,-0.000669,-32.038815,358.989014,7.480737,,,,,,
1465847398.54,2.939138,-0.028209,-1.621837,0.000328,-0.002606,-0.000935,0.200995,0.028206,0.979186,-0.002387,0.000069,-0.000075,-32.038815,358.989014,7.480737,,,,,,
1465847398.55,2.939157,-0.028200,-1.621824,0.000334,0.000583,-0.002020,0.200975,0.028197,0.979190,-0.001619,-0.001204,0.000836,-32.054043,358.987640,7.481999,,,,,,
1465847398.56,2.939247,-0.028204,-1.621826,0.000338,0.009068,0.001120,0.200887,0.028200,0.979208,-0.001485,-0.000338,-0.001608,-32.054043,358.987640,7.481999,,,,,,
1465847398.57,2.939422,-0.028178,-1.621818,-0.001778,0.014387,-0.002109,0.200717,0.028175,0.979244,-0.002093,-0.001121,0.001133,-32.054043,358.987640,7.481999,,,,,,
1465847398.58,2.939583,-0.028175,-1.621812,-0.000718,0.014381,0.000021,0.200559,0.028172,0.979276,-0.001386,-0.000172,-0.000990,-32.058594,358.987244,7.481247,,,,,,
1465847398.59,2.939748,-0.028172,-1.621813,0.000348,0.015443,0.000016,0.200398,0.028168,0.979310,-0.000950,-0.000428,-0.000733,-32.058594,358.987244,7.481247,,,,,,
1465847398.60,2.939931,-0.028206,-1.621797,0.000351,0.014387,-0.002107,0.200218,0.028202,0.979345,-0.001259,0.001583,-0.000250,-32.058594,358.987244,7.481247,,,,,,
1465847398.62,2.940209,-0.028236,-1.621794,-0.002853,0.009074,0.000052,0.199945,0.028232,0.979400,-0.000757,0.001431,-0.002517,-32.073864,358.986328,7.460766,,,,,,
1465847398.61,2.940091,-0.028229,-1.621793,-0.000717,0.013323,-0.001036,0.200061,0.028225,0.979377,-0.000552,0.001087,-0.000251,-32.073864,358.986328,7.460766,,,,,,
1465847398.63,2.940304,-0.028224,-1.621797,-0.001793,0.006947,0.001131,0.199853,0.028220,0.979419,-0.001077,0.000085,-0.001423,-32.073864,358.986328,7.460766,,,,,,
1465847398.64,2.940346,-0.028153,-1.621798,-0.001800,0.001638,0.001165,0.199812,0.028149,0.979430,-0.000731,-0.002759,-0.000853,-32.079056,358.986237,7.441545,,,,,,
1465847398.65,2.940334,-0.028110,-1.621803,-0.000739,-0.002607,0.000128,0.199824,0.028106,0.979429,-0.000605,-0.002044,-0.000181,-32.079056,358.986237,7.441545,,,,,,
1465847398.66,2.940292,-0.028131,-1.621793,0.002458,-0.003665,-0.001991,0.199865,0.028128,0.979420,0.000239,-0.000051,-0.000370,-32.079056,358.986237,7.441545,,,,,,
1465847398.67,2.940244,-0.028343,-1.621750,-0.003930,-0.005782,-0.003049,0.199910,0.028339,0.979404,-0.000951,0.012341,-0.009510,-32.072720,358.986115,7.475714,,,,,,
1465847398.68,2.940009,-0.028277,-1.621775,-0.013566,-0.032352,0.007752,0.200141,0.028273,0.979359,-0.001853,0.003847,-0.005223,-32.072720,358.986115,7.475714,,,,,,
1465847398.69,2.939787,-0.028041,-1.621822,-0.002889,-0.014295,0.003392,0.200360,0.028037,0.979321,0.000247,-0.009543,0.002948,-32.087502,358.985596,7.434937,,,,,,
1465847398.71,2.939811,-0.027994,-1.621735,0.000317,-0.024879,-0.009311,0.200337,0.027991,0.979327,-0.001286,-0.007498,0.014051,-32.087502,358.985596,7.434937,,,,,,
1465847398.70,2.939837,-0.028102,-1.621811,0.005668,0.008014,-0.002061,0.200311,0.028098,0.979329,-0.000955,0.000527,0.006678,-32.087502,358.985596,7.434937,,,,,,
1465847398.72,2.939388,-0.028102,-1.621733,-0.008240,-0.033410,0.005636,0.200750,0.028098,0.979239,-0.002279,0.009057,-0.017997,-32.087502,358.985596,7.434937,,,,,,
1465847398.73,2.939361,-0.027850,-1.621774,-0.001808,-0.001553,0.003313,0.200778,0.027847,0.979241,-0.001452,-0.010772,0.009254,-32.084850,358.984070,7.519288,,,,,,
1465847398.74,2.939562,-0.027851,-1.621785,0.002488,0.021816,-0.001087,0.200581,0.027847,0.979281,-0.001805,-0.001770,-0.002352,-32.084850,358.984070,7.519288,,,,,,
1465847398.75,2.939574,-0.027833,-1.621722,0.003520,-0.014268,-0.007246,0.200570,0.027829,0.979284,-0.001686,-0.003095,0.009073,-32.084850,358.984070,7.519288,,,,,,
1465847398.76,2.939444,-0.027930,-1.621699,0.000318,-0.011098,-0.000882,0.200696,0.027926,0.979255,-0.002210,0.004758,-0.004905,-32.049881,358.985565,7.598450,,,,,,
1465847398.77,2.939566,-0.028099,-1.621731,0.000348,0.020741,0.004240,0.200576,0.028095,0.979275,-0.001220,0.010021,-0.003460,-32.049881,358.985565,7.598450,,,,,,
1465847398.78,2.939882,-0.028063,-1.621747,-0.004963,0.027121,0.002066,0.200266,0.028059,0.979340,-0.001200,0.000688,-0.003265,-32.049881,358.985565,7.598450,,,,,,
1465847398.79,2.940076,-0.027913,-1.621727,-0.008173,0.010143,-0.001024,0.200077,0.027910,0.979383,-0.001576,-0.006441,0.006518,-32.080875,358.984497,7.516238,,,,,,
1465847398.80,2.940075,-0.027894,-1.621714,0.000328,-0.003665,-0.000929,0.200078,0.027890,0.979383,-0.001119,-0.000150,0.003619,-32.080875,358.984497,7.516238,,,,,,
1465847398.81,2.939907,-0.028152,-1.621672,0.003505,-0.024891,-0.005051,0.200242,0.028148,0.979342,-0.001374,0.013447,-0.021700,-32.080875,358.984497,7.516238,,,,,,
1465847398.83,2.940320,-0.027956,-1.621739,-0.013440,0.058979,0.001857,0.199838,0.027952,0.979430,-0.002405,-0.002760,-0.003158,-32.081844,358.983276,7.571970,,,,,,
1465847398.82,2.939793,-0.028119,-1.621706,-0.006057,0.008000,0.005378,0.200354,0.028115,0.979320,0.000070,-0.000298,-0.006740,-32.081844,358.983276,7.571970,,,,,,
1465847398.84,2.941066,-0.027780,-1.621846,-0.030419,0.127964,0.016310,0.199109,0.027777,0.979584,0.012958,0.002802,0.116959,-32.081844,358.983276,7.571970,,,,,,
1465847398.85,2.940580,-0.028034,-1.621603,0.044953,-0.112994,-0.021488,0.199583,0.028030,0.979480,-0.001036,-0.023209,-0.052096,-32.034779,358.987488,7.570495,,,,,,
1465847398.86,2.941392,-0.027844,-1.621810,-0.028298,0.130072,0.021621,0.198789,0.027840,0.979647,0.020175,0.080741,0.030531,-32.034779,358.987488,7.570495,,,,,,
1465847398.87,2.941339,-0.028099,-1.621483,0.018469,-0.027999,-0.035885,0.198840,0.028095,0.979629,-0.026873,-0.015278,-0.008499,-32.034779,358.987488,7.570495,,,,,,
1465847398.88,2.939861,-0.027794,-1.621388,-0.023409,-0.248938,0.003779,0.200289,0.027790,0.979343,0.011625,0.133190,-0.139758,-32.054321,358.986389,7.540326,,,,,,
1465847398.89,2.939181,-0.026315,-1.621614,-0.065816,-0.032424,0.044957,0.200963,0.026312,0.979245,-0.016865,-0.047766,0.041033,-32.054321,358.986389,7.540326,,,,,,
1465847398.90,2.939552,-0.025872,-1.621853,-0.029468,0.046198,0.020018,0.200602,0.025869,0.979331,0.007101,0.052469,-0.018943,-32.054321,358.986389,7.540326,,,,,,
1465847398.91,2.940198,-0.025475,-1.621741,-0.041126,0.046277,-0.006605,0.199971,0.025472,0.979471,-0.015126,-0.057913,0.014517,-31.883329,358.985107,8.289575,,,,,,
1465847398.92,2.939965,-0.025028,-1.621739,-0.044463,-0.047195,0.006751,0.200202,0.025025,0.979435,0.007242,0.017303,0.015423,-31.883329,358.985107,8.289575,,,,,,
1465847398.93,2.939468,-0.024626,-1.621667,-0.012486,-0.028080,0.000276,0.200690,0.024623,0.979345,-0.004294,-0.013271,0.012171,-31.883329,358.985107,8.289575,,,,,,
1465847398.95,2.941435,-0.023855,-1.621814,-0.040024,0.085550,-0.001528,0.198767,0.023852,0.979756,-0.003683,0.015409,-0.016545,-31.866098,358.979797,8.581746,,,,,,
1465847398.94,2.940330,-0.024279,-1.621815,-0.031540,0.102458,0.026050,0.199847,0.024277,0.979526,0.008572,-0.004486,-0.005665,-31.866098,358.979797,8.581746,,,,,,
1465847398.96,2.941509,-0.023547,-1.621845,-0.040136,0.030277,0.020107,0.198696,0.023545,0.979778,0.015507,-0.040437,0.072285,-31.866098,358.979797,8.581746,,,,,,
1465847398.97,2.942003,-0.022890,-1.621904,-0.004949,0.047293,0.004069,0.198215,0.022888,0.979891,0.000561,-0.022934,0.004560,-31.736557,358.979858,9.045661,,,,,,
1465847398.98,2.942421,-0.022867,-1.621768,-0.003871,0.018691,-0.020232,0.197805,0.022865,0.979975,0.003443,0.084129,-0.033335,-31.736557,358.979858,9.045661,,,,,,
1465847398.99,2.942310,-0.022660,-1.621575,-0.040116,0.000629,-0.009511,0.197916,0.022658,0.979957,-0.005914,0.074571,-0.039909,-31.736557,358.979858,9.045661,,,,,,
1465847399.00,2.942623,-0.021840,-1.621615,-0.088058,0.039831,0.029580,0.197613,0.021839,0.980037,0.006016,0.080121,-0.046687,-31.723572,358.975494,9.261525,,,,,,
1465847399.01,2.943571,-0.021947,-1.621761,-0.100760,0.099289,0.032387,0.196682,0.021946,0.980222,0.004032,0.060009,-0.003247,-31.723572,358.975494,9.261525,,,,,,
1465847399.02,2.943936,-0.021139,-1.621857,-0.078472,0.035582,0.028551,0.196329,0.021137,0.980310,0.022040,0.047222,0.024099,-31.723572,358.975494,9.261525,,,,,,
1465847399.03,2.944407,-0.020239,-1.621946,-0.086968,0.046216,0.024218,0.195870,0.020238,0.980421,0.010489,0.044032,-0.001081,-31.584097,358.973053,9.815572,,,,,,
1465847399.04,2.945392,-0.019115,-1.622074,-0.119899,0.130074,0.038561,0.194909,0.019114,0.980635,0.027488,0.006460,0.062578,-31.584097,358.973053,9.815572,,,,,,
1465847399.05,2.946154,-0.018445,-1.622073,-0.091170,0.072791,0.013402,0.194164,0.018444,0.980796,0.009617,0.017552,-0.000586,-31.584097,358.973053,9.815572,,,,,,
1465847399.06,2.946224,-0.017622,-1.622052,-0.076395,-0.024914,0.018287,0.194098,0.017621,0.980824,0.007669,0.002979,-0.017598,-31.380501,358.972534,10.466608,,,,,,
1465847399.07,2.945691,-0.016609,-1.622158,-0.100969,-0.072718,0.031336,0.194624,0.016608,0.980737,0.001055,-0.015968,-0.006540,-31.380501,358.972534,10.466608,,,,,,
1465847399.08,2.944510,-0.015474,-1.622277,-0.111689,-0.128991,0.032743,0.195785,0.015473,0.980525,0.003906,-0.033692,0.025228,-31.380501,358.972534,10.466608,,,,,,
1465847399.09,2.942937,-0.013605,-1.622269,-0.088308,-0.194772,0.010826,0.197333,0.013604,0.980242,-0.004889,-0.041223,0.024503,-31.044121,358.961670,11.761766,,,,,,
1465847399.10,2.940369,-0.012916,-1.622179,-0.066034,-0.271218,0.006005,0.199851,0.012916,0.979741,-0.003181,-0.033195,0.010325,-31.044121,358.961670,11.761766,,,,,,
1465847399.11,2.937826,-0.012271,-1.622226,-0.060700,-0.239408,0.020714,0.202345,0.012270,0.979237,-0.007856,-0.051623,0.002742,-31.044121,358.961670,11.761766,,,,,,
1465847399.12,2.936003,-0.011699,-1.622310,-0.054210,-0.158714,0.020214,0.204130,0.011699,0.978874,-0.008192,-0.054134,-0.010200,-30.845961,358.943329,12.796748,,,,,,
1465847399.13,2.935395,-0.009805,-1.622358,-0.041280,-0.054662,0.011064,0.204730,0.009805,0.978769,-0.007602,-0.061929,-0.001230,-30.845961,358.943329,12.796748,,,,,,
1465847399.14,2.935067,-0.009574,-1.622280,-0.017795,-0.032332,-0.005019,0.205052,0.009574,0.978704,-0.016316,-0.059898,-0.017736,-30.654551,358.939606,13.349418,,,,,,
1465847399.15,2.934839,-0.009501,-1.622256,-0.003947,-0.015371,0.002340,0.205275,0.009501,0.978658,-0.015883,-0.056299,-0.031332,-30.654551,358.939606,13.349418,,,,,,
1465847399.16,2.935565,-0.009403,-1.622352,-0.011267,0.109893,0.013256,0.204564,0.009403,0.978808,-0.009465,-0.084263,0.014798,-30.654551,358.939606,13.349418,,,,,,
1465847399.17,2.937053,-0.009334,-1.622318,0.002654,0.135434,-0.010308,0.203108,0.009334,0.979112,-0.006254,-0.050197,0.027373,-30.654551,358.939606,13.349418,,,,,,
1465847399.18,2.937670,-0.009751,-1.622218,0.049397,0.036689,-0.019223,0.202502,0.009751,0.979233,-0.009448,-0.058548,0.021408,-30.465351,358.924408,14.166376,,,,,,
1465847399.19,2.937649,-0.010468,-1.622292,0.071680,0.002654,-0.001956,0.202522,0.010468,0.979222,-0.007744,-0.053726,-0.001484,-30.465351,358.924408,14.166376,,,,,,
1465847399.20,2.938236,-0.011038,-1.622473,0.053664,0.085457,0.007087,0.201946,0.011038,0.979335,-0.003307,-0.067266,0.008779,-30.567663,358.922668,13.989814,,,,,,
1465847399.21,2.939335,-0.011614,-1.622472,0.061200,0.108886,-0.019664,0.200868,0.011614,0.979550,-0.001725,-0.039491,0.006000,-30.567663,358.922668,13.989814,,,,,,
1465847399.22,2.940236,-0.012397,-1.622281,0.078228,0.073888,-0.037523,0.199983,0.012397,0.979721,-0.001299,-0.011283,0.021363,-30.567663,358.922668,13.989814,,,,,,
1465847399.23,2.940702,-0.014040,-1.622089,0.074946,0.009106,-0.031798,0.199523,0.014039,0.979793,-0.002349,0.033766,0.031407,-30.771280,358.943329,12.976054,,,,,,
1465847399.24,2.940156,-0.014792,-1.622068,0.073734,-0.078014,-0.012093,0.200056,0.014791,0.979673,-0.001920,0.070978,0.000674,-30.771280,358.943329,12.976054,,,,,,
1465847399.25,2.939548,-0.015457,-1.622232,0.064162,-0.038775,0.006811,0.200649,0.015456,0.979541,-0.001736,0.070375,-0.004322,-30.771280,358.943329,12.976054,,,,,,
1465847399.26,2.940029,-0.015805,-1.622356,0.029168,0.069555,0.002904,0.200177,0.015804,0.979632,0.000202,0.070729,-0.002673,-30.771280,358.943329,12.976054,,,,,,
1465847399.27,2.940969,-0.015948,-1.622343,0.008994,0.100381,-0.005825,0.199255,0.015947,0.979818,0.006052,0.054655,0.000422,-30.986923,358.966064,11.778682,,,,,,
1465847399.28,2.942149,-0.016059,-1.622304,0.011158,0.129046,-0.004939,0.198098,0.016058,0.980051,0.004645,0.049066,-0.004648,-30.986923,358.966064,11.778682,,,,,,
1465847399.29,2.944017,-0.016139,-1.622364,0.009104,0.200150,0.005261,0.196267,0.016139,0.980418,0.009269,0.010534,0.016973,-30.986923,358.966064,11.778682,,,,,,
1465847399.30,2.945684,-0.016308,-1.622416,0.016510,0.155562,0.001290,0.194632,0.016308,0.980741,0.005121,-0.012096,-0.023008,-31.048038,358.965729,11.627293,,,,,,
1465847399.31,2.946555,-0.016367,-1.622418,0.001493,0.062140,-0.001332,0.193777,0.016366,0.980909,0.006128,-0.028467,-0.018247,-31.048038,358.965729,11.627293,,,,,,
1465847399.32,2.946455,-0.016384,-1.622380,0.004571,-0.038718,-0.006019,0.193875,0.016383,0.980889,0.005694,-0.030421,0.002479,-31.067171,358.970673,11.421692,,,,,,
1465847399.34,2.943609,-0.017078,-1.622425,0.038463,-0.173599,0.000183,0.196664,0.017078,0.980322,0.002127,-0.039203,-0.000647,-31.067171,358.970673,11.421692,,,,,,
1465847399.33,2.945309,-0.016675,-1.622370,0.034266,-0.134292,-0.006454,0.194999,0.016675,0.980662,0.004586,-0.027722,-0.001749,-31.067171,358.970673,11.421692,,,,,,
1465847399.35,2.941691,-0.017404,-1.622461,0.033119,-0.196944,-0.003934,0.198543,0.017403,0.979938,0.000325,-0.017296,-0.008502,-31.094479,358.974823,11.214478,,,,,,
1465847399.37,2.939166,-0.018204,-1.622394,0.045005,-0.076934,-0.016384,0.201014,0.018203,0.979419,-0.001338,0.019333,0.007016,-31.094479,358.974823,11.214478,,,,,,
1465847399.36,2.940115,-0.017744,-1.622455,0.035325,-0.143840,-0.009587,0.200086,0.017743,0.979618,-0.000669,-0.013440,0.014721,-31.094479,358.974823,11.214478,,,,,,
1465847399.38,2.938769,-0.018617,-1.622309,0.035475,-0.033398,-0.015602,0.201401,0.018616,0.979332,-0.003357,0.037430,0.001167,-31.094479,358.974823,11.214478,,,,,,
1465847399.39,2.938426,-0.018871,-1.622251,0.018419,-0.035537,-0.007090,0.201736,0.018870,0.979258,-0.003967,0.056478,-0.014384,-31.191858,358.978088,10.832408,,,,,,
1465847399.40,2.938446,-0.018944,-1.622311,0.002500,0.023900,0.004231,0.201716,0.018943,0.979261,-0.002925,0.022744,0.007968,-31.191858,358.978088,10.832408,,,,,,
1465847399.41,2.939051,-0.019014,-1.622334,0.006838,0.082306,0.000675,0.201123,0.019013,0.979381,-0.002484,0.034820,-0.013241,-31.191858,358.978088,10.832408,,,,,,
1465847399.42,2.939998,-0.019829,-1.622304,0.008982,0.079140,-0.006755,0.200193,0.019828,0.979556,-0.001798,0.024972,-0.007128,-31.211506,358.979584,10.727321,,,,,,
1465847399.43,2.940730,-0.019824,-1.622321,-0.008073,0.083360,0.005975,0.199475,0.019823,0.979702,-0.001340,0.004225,-0.007412,-31.211506,358.979584,10.727321,,,,,,
1465847399.44,2.941632,-0.019669,-1.622388,-0.012331,0.089725,0.009124,0.198593,0.019667,0.979885,0.000412,0.002977,-0.001842,-31.211506,358.979584,10.727321,,,,,,
1465847399.45,2.942496,-0.019653,-1.622435,0.002590,0.083356,0.002794,0.197746,0.019652,0.980056,0.002526,-0.015257,0.009186,-31.270039,358.985046,10.367293,,,,,,
1465847399.46,2.942856,-0.019504,-1.622416,0.011058,0.032405,-0.004328,0.197393,0.019503,0.980130,0.001673,-0.009173,-0.004407,-31.270039,358.985046,10.367293,,,,,,
1465847399.48,2.942602,-0.019602,-1.622424,0.006712,-0.030251,0.000318,0.197642,0.019601,0.980078,0.002416,-0.007882,-0.002142,-31.261215,358.985321,10.384769,,,,,,
1465847399.47,2.942867,-0.019558,-1.622412,0.004608,-0.011134,-0.000868,0.197382,0.019557,0.980132,0.002264,-0.014002,-0.002516,-31.261215,358.985321,10.384769,,,,,,
1465847399.49,2.942336,-0.019711,-1.622438,0.012048,-0.023877,-0.001846,0.197902,0.019710,0.980024,0.001835,-0.007518,-0.002118,-31.261215,358.985321,10.384769,,,,,,
1465847399.50,2.942106,-0.019695,-1.622444,0.007797,-0.015383,-0.000839,0.198128,0.019693,0.979978,0.001472,-0.003717,0.001147,-31.262825,358.985931,10.357742,,,,,,
1465847399.51,2.941863,-0.019774,-1.622392,0.007793,-0.030228,-0.008197,0.198366,0.019773,0.979929,0.001555,0.009051,-0.003763,-31.262825,358.985931,10.357742,,,,,,
1465847399.52,2.941556,-0.019849,-1.622335,0.005658,-0.031294,-0.006063,0.198666,0.019847,0.979866,0.000446,0.020314,-0.003746,-31.262825,358.985931,10.357742,,,,,,
1465847399.53,2.941126,-0.020645,-1.622311,-0.000743,-0.036615,-0.000715,0.199084,0.020644,0.979765,-0.000415,0.025560,-0.010038,-31.300829,358.984009,10.310121,,,,,,
1465847399.54,2.940801,-0.020954,-1.622342,-0.009258,-0.027069,0.004539,0.199401,0.020952,0.979694,-0.000442,0.013136,-0.005344,-31.300829,358.984009,10.310121,,,,,,
1465847399.55,2.940629,-0.020867,-1.622380,-0.009240,-0.011145,0.005503,0.199570,0.020866,0.979661,-0.001084,0.000207,-0.001878,-31.300829,358.984009,10.310121,,,,,,
1465847399.56,2.940676,-0.020655,-1.622388,-0.006019,0.003730,0.001156,0.199525,0.020654,0.979675,-0.000672,-0.004937,0.005173,-31.300829,358.984009,10.310121,,,,,,
1465847399.57,2.940818,-0.020441,-1.622367,-0.002810,0.011170,-0.002081,0.199386,0.020440,0.979708,-0.000168,-0.006921,0.005049,-31.330929,358.988739,10.050242,,,,,,
1465847399.58,2.940811,-0.020467,-1.622336,0.000362,-0.007941,-0.003022,0.199394,0.020465,0.979706,-0.000617,0.000943,-0.000565,-31.330929,358.988739,10.050242,,,,,,
1465847399.59,2.940694,-0.020478,-1.622312,-0.003906,-0.012192,-0.000871,0.199508,0.020476,0.979682,-0.001144,0.001024,-0.004218,-31.330929,358.988739,10.050242,,,,,,
1465847399.60,2.940482,-0.020371,-1.622310,-0.004995,-0.028124,0.001357,0.199716,0.020370,0.979642,-0.001398,-0.002273,-0.000501,-31.337114,358.986359,10.115977,,,,,,
1465847399.61,2.940204,-0.020164,-1.622330,-0.001809,-0.030255,0.003502,0.199990,0.020163,0.979591,-0.001625,-0.007071,0.000375,-31.337114,358.986359,10.115977,,,,,,
1465847399.62,2.940119,-0.020004,-1.622348,0.001442,-0.007966,0.001232,0.200074,0.020003,0.979577,-0.000855,-0.006392,0.005851,-31.335831,358.985168,10.161660,,,,,,
1465847399.63,2.940299,-0.019950,-1.622341,0.005741,0.017527,-0.003181,0.199897,0.019949,0.979614,-0.001075,-0.004018,0.006821,-31.335831,358.985168,10.161660,,,,,,
1465847399.64,2.940537,-0.020211,-1.622308,0.002560,0.026026,-0.004302,0.199663,0.020210,0.979656,-0.000596,0.008370,-0.003353,-31.335831,358.985168,10.161660,,,,,,
1465847399.66,2.941181,-0.020738,-1.622268,-0.008090,0.031323,0.002040,0.199030,0.020736,0.979774,-0.000224,0.012452,-0.005699,-31.325903,358.984497,10.216414,,,,,,
1465847399.65,2.940877,-0.020503,-1.622273,-0.005952,0.032395,-0.002222,0.199329,0.020502,0.979718,-0.001118,0.013098,-0.003079,-31.325903,358.984497,10.216414,,,,,,
1465847399.67,2.941365,-0.020741,-1.622289,-0.004921,0.014326,0.004279,0.198850,0.020739,0.979811,-0.000302,0.002591,-0.003736,-31.325903,358.984497,10.216414,,,,,,
1465847399.68,2.941455,-0.020560,-1.622322,-0.008123,0.010078,0.005367,0.198762,0.020559,0.979832,-0.000001,-0.004232,-0.001423,-31.383831,358.985138,10.013931,,,,,,
1465847399.69,2.941561,-0.020263,-1.622333,-0.003859,0.007964,0.001127,0.198660,0.020262,0.979859,0.000284,-0.010100,0.004226,-31.383831,358.985138,10.013931,,,,,,
1465847399.70,2.941605,-0.020051,-1.622320,0.001464,0.003723,-0.002035,0.198617,0.020050,0.979872,0.000770,-0.009643,0.003984,-31.383831,358.985138,10.013931,,,,,,
1465847399.71,2.941549,-0.019949,-1.622294,0.002512,-0.011140,-0.003005,0.198672,0.019948,0.979863,-0.000033,-0.005559,0.001704,-31.383831,358.985138,10.013931,,,,,,
1465847399.72,2.941283,-0.019915,-1.622267,0.000360,-0.029190,-0.002893,0.198933,0.019914,0.979811,-0.000020,-0.002183,-0.001493,-31.321093,358.984283,10.238454,,,,,,
1465847399.73,2.940930,-0.020038,-1.622262,0.001413,-0.033446,0.000327,0.199278,0.020036,0.979738,-0.000716,0.004912,-0.003481,-31.321093,358.984283,10.238454,,,,,,
1465847399.74,2.940637,-0.020108,-1.622274,0.002480,-0.032385,0.000322,0.199566,0.020107,0.979678,-0.001140,0.002369,0.000440,-31.321093,358.984283,10.238454,,,,,,
1465847399.75,2.940364,-0.020114,-1.622289,0.001417,-0.027081,0.002416,0.199832,0.020113,0.979624,-0.001438,-0.000261,0.000204,-31.331417,358.983002,10.252021,,,,,,
1465847399.76,2.940285,-0.020051,-1.622303,0.000382,-0.006900,0.000160,0.199911,0.020050,0.979609,-0.001012,-0.003082,0.005483,-31.331417,358.983002,10.252021,,,,,,
1465847399.77,2.940373,-0.020106,-1.622286,0.003658,0.007966,-0.003138,0.199824,0.020105,0.979626,-0.000498,0.001456,0.002842,-31.313505,358.983734,10.281047,,,,,,
1465847399.78,2.940487,-0.020266,-1.622258,0.003662,0.009031,-0.004210,0.199711,0.020264,0.979645,-0.001134,0.005080,-0.001862,-31.313505,358.983734,10.281047,,,,,,
1465847399.79,2.940593,-0.020285,-1.622243,-0.000608,0.006898,0.000057,0.199608,0.020284,0.979666,-0.001060,0.000559,0.000437,-31.313505,358.983734,10.281047,,,,,,
1465847399.81,2.940573,-0.020058,-1.622268,0.006833,-0.001600,0.000118,0.199629,0.020057,0.979666,-0.000685,-0.008582,0.004068,-31.346678,358.983093,10.202419,,,,,,
1465847399.80,2.940575,-0.020194,-1.622252,-0.000625,-0.004785,0.001195,0.199626,0.020192,0.979664,-0.000942,-0.003698,-0.001255,-31.346678,358.983093,10.202419,,,,,,
1465847399.82,2.940606,-0.019931,-1.622275,0.007902,0.000526,-0.000958,0.199597,0.019930,0.979675,-0.000729,-0.010439,0.004455,-31.346678,358.983093,10.202419,,,,,,
1465847399.83,2.940631,-0.019855,-1.622269,0.010035,0.000531,-0.003085,0.199572,0.019854,0.979682,-0.000567,-0.008516,0.000741,-31.317789,358.982391,10.315149,,,,,,
1465847399.84,2.940700,-0.019885,-1.622253,0.010039,0.003717,-0.003105,0.199504,0.019883,0.979695,-0.000972,-0.003739,0.004008,-31.317789,358.982391,10.315149,,,,,,
1465847399.85,2.940696,-0.020039,-1.622234,0.014293,-0.003712,-0.005183,0.199508,0.020038,0.979691,-0.000731,0.000363,0.000701,-31.317789,358.982391,10.315149,,,,,,
1465847399.86,2.940647,-0.020211,-1.622229,0.012152,-0.007967,-0.001965,0.199555,0.020210,0.979678,-0.000718,0.001931,0.000409,-31.323399,358.981476,10.330240,,,,,,
1465847399.88,2.940522,-0.020537,-1.622257,0.005767,-0.000540,0.001175,0.199676,0.020536,0.979647,-0.000885,0.002200,-0.002092,-31.323399,358.981476,10.330240,,,,,,
1465847399.87,2.940541,-0.020425,-1.622237,0.006827,-0.007967,-0.000906,0.199659,0.020424,0.979653,-0.000760,0.006447,-0.005974,-31.323399,358.981476,10.330240,,,,,,
1465847399.89,2.940597,-0.020619,-1.622268,0.008976,0.007959,-0.001004,0.199603,0.020617,0.979660,-0.001162,-0.000216,-0.000488,-31.367016,358.984039,10.105962,,,,,,
1465847399.90,2.940692,-0.020643,-1.622274,0.008982,0.011147,-0.002088,0.199509,0.020642,0.979679,-0.000138,-0.004269,-0.001132,-31.367016,358.984039,10.105962,,,,,,
1465847399.91,2.940915,-0.020667,-1.622263,0.006864,0.018584,-0.003202,0.199291,0.020665,0.979722,0.000004,-0.001561,0.007140,-31.367016,358.984039,10.105962,,,,,,
1465847399.92,2.940942,-0.020927,-1.622236,0.016428,-0.001586,-0.006259,0.199264,0.020925,0.979722,0.000382,0.005335,-0.001207,-31.370014,358.984985,10.062119,,,,,,
1465847399.93,2.940920,-0.021201,-1.622238,0.007969,-0.000548,0.000092,0.199283,0.021200,0.979713,-0.000965,0.007945,-0.007407,-31.370014,358.984985,10.062119,,,,,,
1465847399.94,2.940861,-0.021305,-1.622253,0.000504,-0.007980,0.001196,0.199341,0.021304,0.979699,-0.000259,0.004560,-0.003762,-31.370014,358.984985,10.062119,,,,,,
1465847399.95,2.940801,-0.021443,-1.622260,0.004771,-0.003732,0.000109,0.199400,0.021441,0.979684,-0.000532,0.005658,-0.004205,-31.426622,358.986603,9.825411,,,,,,
1465847399.96,2.940894,-0.021625,-1.622260,0.004794,0.012198,-0.001056,0.199308,0.021623,0.979698,-0.000379,0.006469,-0.002983,-31.426622,358.986603,9.825411,,,,,,
1465847399.97,2.941034,-0.021729,-1.622262,-0.000530,0.013260,-0.000003,0.199170,0.021728,0.979724,-0.000348,0.004777,-0.004672,-31.426622,358.986603,9.825411,,,,,,
1465847399.98,2.941091,-0.021817,-1.622261,-0.003732,0.007949,0.001091,0.199114,0.021815,0.979734,0.000120,0.006429,-0.005719,-31.426622,358.986603,9.825411,,,,,,
1465847399.99,2.941142,-0.021904,-1.622253,-0.000538,0.003706,-0.001008,0.199063,0.021902,0.979742,0.000354,0.005350,-0.000341,-31.462700,358.988556,9.637719,,,,,,
1465847400.00,2.941150,-0.022013,-1.622245,0.001588,0.000520,-0.000986,0.199055,0.022012,0.979741,-0.000157,0.005332,-0.003041,-31.462700,358.988556,9.637719,,,,,,
1465847400.01,2.941070,-0.022039,-1.622250,-0.004815,-0.007977,0.001190,0.199133,0.022037,0.979725,0.000040,0.003094,-0.003589,-31.483086,358.988617,9.567817,,,,,,
1465847400.02,2.941002,-0.021924,-1.622258,-0.006944,-0.006914,0.001181,0.199201,0.021922,0.979713,-0.000119,-0.002223,-0.001549,-31.483086,358.988617,9.567817,,,,,,
1465847400.03,2.940900,-0.021868,-1.622249,-0.000556,-0.011159,-0.000915,0.199301,0.021866,0.979694,-0.000509,-0.001603,-0.000813,-31.483086,358.988617,9.567817,,,,,,
1465847400.05,2.940588,-0.021907,-1.622212,-0.006954,-0.017530,0.000183,0.199606,0.021905,0.979631,-0.000418,0.005973,-0.002687,-31.470423,358.988800,9.603011,,,,,,
1465847400.04,2.940763,-0.021846,-1.622231,-0.002688,-0.014340,-0.001962,0.199435,0.021844,0.979668,0.000196,-0.000177,0.000496,-31.470423,358.988800,9.603011,,,,,,
1465847400.06,2.940466,-0.021943,-1.622212,-0.008015,-0.013285,0.001220,0.199725,0.021941,0.979606,-0.001071,0.006379,-0.001686,-31.470423,358.988800,9.603011,,,,,,
1465847400.07,2.940368,-0.021968,-1.622209,-0.008008,-0.007976,0.001186,0.199822,0.021966,0.979586,-0.000847,0.005423,-0.004427,-31.470423,358.988800,9.603011,,,,,,
1465847400.08,2.940370,-0.021911,-1.622212,-0.009065,-0.000545,0.002203,0.199819,0.021909,0.979588,-0.001165,0.002062,0.000942,-31.482737,358.987366,9.616568,,,,,,
1465847400.09,2.940419,-0.021840,-1.622220,-0.007990,0.005828,0.001100,0.199772,0.021838,0.979599,-0.000446,0.000165,0.000809,-31.482737,358.987366,9.616568,,,,,,
1465847400.10,2.940522,-0.021747,-1.622212,-0.008980,0.009007,-0.000008,0.199671,0.021745,0.979622,-0.000452,-0.000062,0.001015,-31.479576,358.987244,9.630764,,,,,,
1465847400.11,2.940623,-0.021659,-1.622200,-0.007918,0.006883,0.000006,0.199573,0.021657,0.979644,-0.000705,-0.000142,0.000276,-31.479576,358.987244,9.630764,,,,,,
1465847400.12,2.940667,-0.021525,-1.622194,-0.007930,0.000506,0.002175,0.199531,0.021523,0.979655,-0.001288,-0.002892,-0.000194,-31.479576,358.987244,9.630764,,,,,,
1465847400.13,2.940651,-0.021371,-1.622192,-0.010064,-0.002678,0.002193,0.199547,0.021370,0.979655,-0.000984,-0.003288,0.001256,-31.461166,358.985413,9.758579,,,,,,
1465847400.14,2.940587,-0.021244,-1.622200,-0.003682,-0.009049,0.001175,0.199610,0.021243,0.979645,-0.000803,-0.004473,0.001052,-31.461166,358.985413,9.758579,,,,,,
1465847400.15,2.940531,-0.021118,-1.622201,-0.002614,-0.007985,0.000105,0.199665,0.021117,0.979637,-0.000889,-0.005690,0.004098,-31.461166,358.985413,9.758579,,,,,,
1465847400.16,2.940537,-0.021033,-1.622194,-0.004732,0.001573,0.000043,0.199659,0.021031,0.979640,-0.000624,-0.002690,0.000219,-31.438261,358.984680,9.859261,,,,,,
1465847400.17,2.940538,-0.020986,-1.622192,0.000588,-0.002674,-0.000990,0.199659,0.020985,0.979641,-0.000471,-0.001713,0.000920,-31.438261,358.984680,9.859261,,,,,,
1465847400.18,2.940565,-0.020956,-1.622176,-0.002600,0.001575,-0.001020,0.199633,0.020954,0.979647,-0.000536,-0.000324,0.001783,-31.438261,358.984680,9.859261,,,,,,
1465847400.19,2.940610,-0.020971,-1.622178,-0.000474,0.002630,0.001105,0.199589,0.020969,0.979655,-0.000873,0.001721,-0.000697,-31.425692,358.982910,9.963169,,,,,,
1465847400.20,2.940671,-0.020911,-1.622180,-0.001536,0.004754,0.001090,0.199528,0.020909,0.979669,-0.000722,-0.002355,0.003195,-31.425692,358.982910,9.963169,,,,,,
1465847400.21,2.940743,-0.020890,-1.622187,-0.000465,0.007942,0.000007,0.199459,0.020888,0.979684,-0.000759,-0.001433,0.001212,-31.425692,358.982910,9.963169,,,,,,
1465847400.22,2.940798,-0.020902,-1.622178,0.003794,0.004760,-0.002098,0.199405,0.020900,0.979694,-0.000507,-0.001308,0.000790,-31.422071,358.982880,9.975309,,,,,,
1465847400.23,2.940842,-0.020852,-1.622173,0.002723,0.001573,-0.001014,0.199362,0.020851,0.979704,-0.000799,-0.004463,-0.002089,-31.422071,358.982880,9.975309,,,,,,
1465847400.24,2.940881,-0.020806,-1.622171,0.002720,-0.000551,-0.001001,0.199323,0.020805,0.979713,-0.000562,-0.003577,0.000741,-31.422071,358.982880,9.975309,,,,,,
1465847400.26,2.940765,-0.020787,-1.622147,0.003836,-0.011172,-0.002019,0.199437,0.020785,0.979690,-0.000173,-0.001346,-0.000656,-31.419941,358.982178,10.006294,,,,,,
1465847400.25,2.940861,-0.020773,-1.622160,0.002780,-0.003739,-0.002066,0.199344,0.020772,0.979710,-0.000506,-0.000997,-0.000095,-31.419941,358.982178,10.006294,,,,,,
1465847400.27,2.940686,-0.020855,-1.622154,0.003833,-0.010116,0.000103,0.199515,0.020853,0.979673,-0.001044,0.001974,-0.001569,-31.419941,358.982178,10.006294,,,,,,
1465847400.28,2.940650,-0.020927,-1.622149,0.001715,-0.002680,-0.001010,0.199550,0.020926,0.979664,-0.000651,0.002756,-0.001240,-31.425898,358.981323,10.018432,,,,,,
1465847400.29,2.940666,-0.021039,-1.622149,0.000657,0.003689,0.000014,0.199533,0.021037,0.979665,-0.000803,0.006215,-0.003789,-31.425898,358.981323,10.018432,,,,,,
1465847400.30,2.940736,-0.021131,-1.622147,-0.001467,0.007937,-0.000015,0.199465,0.021129,0.979677,-0.000566,0.005772,-0.001284,-31.425898,358.981323,10.018432,,,,,,
1465847400.31,2.940829,-0.021216,-1.622148,-0.003596,0.008997,0.001040,0.199373,0.021214,0.979694,-0.000734,0.006023,-0.002765,-31.450119,358.982544,9.898449,,,,,,
1465847400.32,2.940905,-0.021231,-1.622141,-0.004661,0.006877,-0.000012,0.199298,0.021229,0.979709,-0.000369,0.002910,-0.000018,-31.450119,358.982544,9.898449,,,,,,
1465847400.33,2.940970,-0.021212,-1.622137,-0.004663,0.006874,0.001052,0.199235,0.021210,0.979722,-0.000428,0.001541,-0.003526,-31.450119,358.982544,9.898449,,,,,,
1465847400.34,2.940995,-0.021142,-1.622142,-0.001475,0.002625,0.001082,0.199210,0.021140,0.979729,-0.000266,-0.002494,-0.001473,-31.461243,358.982666,9.858361,,,,,,
1465847400.35,2.941006,-0.021044,-1.622146,-0.004672,0.001562,0.002150,0.199200,0.021043,0.979733,-0.000562,-0.003495,-0.002804,-31.461243,358.982666,9.858361,,,,,,
1465847400.36,2.940996,-0.020913,-1.622150,-0.005741,-0.002682,0.001111,0.199211,0.020911,0.979734,-0.000083,-0.004126,0.000033,-31.461243,358.982666,9.858361,,,,,,
1465847400.37,2.940935,-0.020886,-1.622148,0.000643,-0.007991,0.000087,0.199270,0.020885,0.979722,-0.000509,-0.000713,-0.001344,-31.436054,358.981903,9.966713,,,,,,
1465847400.38,2.940837,-0.020878,-1.622142,-0.000428,-0.013299,0.000119,0.199366,0.020877,0.979703,-0.000559,0.000028,-0.000043,-31.436054,358.981903,9.966713,,,,,,
1465847400.39,2.940673,-0.020853,-1.622140,-0.001502,-0.018611,0.001216,0.199527,0.020852,0.979670,-0.001056,-0.000558,0.000142,-31.436054,358.981903,9.966713,,,,,,
1465847400.40,2.940543,-0.020795,-1.622146,-0.001499,-0.014366,0.002253,0.199655,0.020793,0.979646,-0.001153,-0.001796,0.000106,-31.435020,358.981476,9.984456,,,,,,
1465847400.41,2.940470,-0.020777,-1.622149,0.000645,-0.006929,0.000080,0.199727,0.020775,0.979631,-0.000798,-0.000161,-0.001726,-31.435020,358.981476,9.984456,,,,,,
1465847400.42,2.940473,-0.020766,-1.622142,-0.001410,0.000502,-0.001055,0.199723,0.020764,0.979632,-0.001085,-0.000210,0.000272,-31.435020,358.981476,9.984456,,,,,,
1465847400.43,2.940531,-0.020712,-1.622138,-0.003540,0.003683,0.001051,0.199667,0.020710,0.979645,-0.000708,-0.000676,0.002502,-31.423288,358.981110,10.035507,,,,,,
1465847400.44,2.940594,-0.020724,-1.622130,-0.001403,0.005811,-0.001089,0.199605,0.020722,0.979657,-0.000737,0.001449,0.000918,-31.423288,358.981110,10.035507,,,,,,
1465847400.45,2.940676,-0.020691,-1.622128,-0.001403,0.007932,-0.000038,0.199525,0.020690,0.979674,-0.000794,-0.001708,-0.000365,-31.423288,358.981110,10.035507,,,,,,
1465847400.47,2.940812,-0.020564,-1.622136,-0.001407,0.004747,-0.000017,0.199393,0.020563,0.979704,-0.000510,-0.003229,-0.001326,-31.425737,358.980530,10.047267,,,,,,
1465847400.48,2.940857,-0.020515,-1.622145,-0.000347,0.002620,0.001061,0.199348,0.020514,0.979714,-0.000709,-0.002249,-0.000863,-31.425737,358.980530,10.047267,,,,,,
1465847400.46,2.940760,-0.020634,-1.622134,-0.001408,0.005806,0.001040,0.199443,0.020633,0.979692,-0.000758,-0.002078,0.000517,-31.425737,358.980530,10.047267,,,,,,
1465847400.49,2.940893,-0.020521,-1.622146,0.000719,0.002622,-0.000002,0.199313,0.020519,0.979721,-0.000583,-0.000103,-0.000198,-31.425737,358.980530,10.047267,,,,,,
1465847400.50,2.940918,-0.020497,-1.622146,0.000717,0.000499,0.000011,0.199289,0.020496,0.979726,-0.000452,-0.001437,0.001978,-31.408083,358.980286,10.111313,,,,,,
1465847400.51,2.940919,-0.020467,-1.622137,0.001779,-0.002684,-0.001032,0.199288,0.020466,0.979727,-0.000512,-0.002232,0.002588,-31.408083,358.980286,10.111313,,,,,,
1465847400.52,2.940890,-0.020480,-1.622118,0.000714,-0.004804,-0.002084,0.199316,0.020479,0.979721,-0.000647,0.000120,0.000931,-31.406923,358.980286,10.115633,,,,,,
1465847400.53,2.940847,-0.020460,-1.622114,0.000709,-0.005872,0.000051,0.199359,0.020459,0.979713,-0.001055,-0.001660,-0.000602,-31.406923,358.980286,10.115633,,,,,,
1465847400.54,2.940799,-0.020465,-1.622119,0.002839,-0.004811,0.000047,0.199405,0.020464,0.979703,-0.000720,-0.001085,-0.001630,-31.406923,358.980286,10.115633,,,,,,
1465847400.55,2.940731,-0.020466,-1.622111,0.004964,-0.012239,-0.002033,0.199472,0.020465,0.979690,-0.000742,-0.002063,-0.000045,-31.412939,358.979248,10.132620,,,,,,
1465847400.56,2.940669,-0.020468,-1.622095,0.001776,-0.006928,-0.002070,0.199532,0.020467,0.979677,-0.000344,-0.001485,-0.000841,-31.412939,358.979248,10.132620,,,,,,
1465847400.57,2.940585,-0.020517,-1.622078,0.001772,-0.010114,-0.002050,0.199615,0.020515,0.979660,-0.000701,0.001579,0.000061,-31.412939,358.979248,10.132620,,,,,,
1465847400.58,2.940544,-0.020525,-1.622066,0.001814,-0.004812,-0.001039,0.199655,0.020523,0.979651,-0.000436,-0.000733,0.001535,-31.420378,358.978455,10.137344,,,,,,
1465847400.60,2.940433,-0.020637,-1.622066,0.001815,-0.004812,-0.001040,0.199763,0.020636,0.979627,-0.000880,0.002146,-0.000592,-31.420378,358.978455,10.137344,,,,,,
1465847400.59,2.940474,-0.020582,-1.622063,0.003938,-0.008001,0.000047,0.199723,0.020581,0.979636,-0.000901,0.001209,-0.002723,-31.420378,358.978455,10.137344,,,,,,
1465847400.61,2.940446,-0.020683,-1.622072,0.000754,0.001554,0.001048,0.199750,0.020681,0.979629,-0.000959,0.002588,-0.000899,-31.440073,358.978180,10.087425,,,,,,
1465847400.62,2.940512,-0.020710,-1.622076,-0.000302,0.006866,-0.000051,0.199686,0.020709,0.979641,-0.000513,0.001844,-0.000332,-31.440073,358.978180,10.087425,,,,,,
1465847400.63,2.940613,-0.020763,-1.622073,-0.001365,0.007929,-0.000058,0.199586,0.020762,0.979660,-0.000490,0.003591,0.000671,-31.440073,358.978180,10.087425,,,,,,
1465847400.64,2.940708,-0.020804,-1.622065,-0.001362,0.010052,-0.000072,0.199493,0.020803,0.979678,-0.000549,0.003077,-0.001514,-31.442856,358.978760,10.058460,,,,,,
1465847400.66,2.940885,-0.020871,-1.622059,-0.002432,0.006865,0.001012,0.199319,0.020870,0.979712,-0.000619,0.002140,-0.000342,-31.442856,358.978760,10.058460,,,,,,
1465847400.65,2.940801,-0.020860,-1.622059,-0.002427,0.008991,-0.000066,0.199401,0.020858,0.979696,-0.000305,0.004609,-0.002264,-31.442856,358.978760,10.058460,,,,,,
1465847400.67,2.940947,-0.020822,-1.622068,-0.002435,0.004741,0.001025,0.199259,0.020820,0.979726,-0.000406,-0.001030,-0.000890,-31.464132,358.978760,9.991291,,,,,,
1465847400.68,2.940981,-0.020786,-1.622061,-0.003503,0.001556,0.001044,0.199225,0.020785,0.979733,-0.000388,-0.000048,0.000354,-31.464132,358.978760,9.991291,,,,,,
1465847400.69,2.940985,-0.020758,-1.622049,-0.002440,-0.001627,0.000000,0.199222,0.020757,0.979734,-0.000293,-0.000005,-0.000380,-31.464132,358.978760,9.991291,,,,,,
1465847400.70,2.940982,-0.020696,-1.622031,-0.003504,-0.002685,-0.001059,0.199225,0.020694,0.979735,-0.000800,-0.001743,0.001542,-31.464132,358.978760,9.991291,,,,,,
1465847400.72,2.940841,-0.020600,-1.622012,-0.002446,-0.007995,-0.001024,0.199363,0.020598,0.979709,-0.000496,-0.002104,0.000027,-31.462114,358.977234,10.052073,,,,,,
1465847400.71,2.940913,-0.020652,-1.622026,-0.002448,-0.007998,0.000040,0.199293,0.020651,0.979722,-0.000211,-0.000799,0.000914,-31.462114,358.977234,10.052073,,,,,,
1465847400.73,2.940745,-0.020580,-1.622005,-0.000284,-0.011183,-0.001020,0.199458,0.020578,0.979690,-0.000590,-0.000742,0.000260,-31.462114,358.977234,10.052073,,,,,,
1465847400.75,2.940564,-0.020529,-1.621986,0.000780,-0.010125,0.000039,0.199635,0.020527,0.979655,-0.001057,-0.001713,0.001470,-31.462114,358.977234,10.052073,,,,,,
1465847400.74,2.940649,-0.020556,-1.621986,-0.002411,-0.011179,-0.002086,0.199552,0.020554,0.979672,-0.000516,-0.000474,0.000782,-31.462114,358.977234,10.052073,,,,,,
1465847400.76,2.940480,-0.020483,-1.621988,0.000781,-0.009063,0.000033,0.199717,0.020482,0.979639,-0.000804,-0.003102,0.001485,-31.464766,358.975250,10.114985,,,,,,
1465847400.77,2.940398,-0.020448,-1.621983,0.002909,-0.013305,-0.002067,0.199798,0.020446,0.979624,-0.001739,-0.003890,0.002188,-31.464766,358.975250,10.114985,,,,,,
1465847400.78,2.940291,-0.020443,-1.621971,0.001844,-0.013304,-0.002068,0.199903,0.020442,0.979602,-0.001539,-0.001521,0.000164,-31.464766,358.975250,10.114985,,,,,,
1465847400.79,2.940206,-0.020472,-1.621967,0.002909,-0.010125,0.000042,0.199986,0.020471,0.979585,-0.001530,-0.000070,0.000808,-31.458197,358.974304,10.167011,,,,,,
1465847400.80,2.940175,-0.020493,-1.621963,0.003984,-0.003752,-0.001062,0.200017,0.020492,0.979578,-0.001271,-0.000900,0.000372,-31.458197,358.974304,10.167011,,,,,,
1465847400.81,2.940216,-0.020481,-1.621958,0.002927,0.002620,-0.001103,0.199976,0.020480,0.979587,-0.001520,-0.002825,0.003156,-31.463650,358.974213,10.153555,,,,,,
1465847400.82,2.940307,-0.020544,-1.621951,0.005061,0.006866,-0.001127,0.199887,0.020542,0.979604,-0.001584,0.000576,0.001765,-31.463650,358.974213,10.153555,,,,,,
1465847400.83,2.940436,-0.020580,-1.621947,0.006133,0.012175,-0.001159,0.199761,0.020579,0.979629,-0.001320,-0.001582,0.001390,-31.463650,358.974213,10.153555,,,,,,
1465847400.84,2.940574,-0.020652,-1.621942,0.006135,0.012178,-0.002224,0.199625,0.020651,0.979655,-0.001016,0.000498,0.001241,-31.472540,358.974060,10.132573,,,,,,
1465847400.85,2.940714,-0.020710,-1.621934,0.005068,0.012175,-0.001161,0.199487,0.020709,0.979682,-0.000848,0.000532,-0.000678,-31.472540,358.974060,10.132573,,,,,,
1465847400.86,2.940853,-0.020740,-1.621932,0.000810,0.014298,-0.000114,0.199351,0.020739,0.979709,-0.000758,0.000303,-0.000735,-31.472540,358.974060,10.132573,,,,,,
1465847400.87,2.940974,-0.020781,-1.621928,0.004002,0.011114,-0.001155,0.199233,0.020779,0.979732,-0.000548,0.000171,-0.001781,-31.498835,358.974121,10.047520,,,,,,
1465847400.88,2.941046,-0.020801,-1.621920,0.003998,0.005808,-0.002186,0.199162,0.020799,0.979746,-0.000233,-0.001375,-0.001719,-31.498835,358.974121,10.047520,,,,,,
1465847400.89,2.941103,-0.020831,-1.621917,0.004040,0.003681,-0.001126,0.199106,0.020830,0.979757,-0.000147,-0.000703,-0.001256,-31.498835,358.974121,10.047520,,,,,,
1465847400.90,2.941117,-0.020881,-1.621897,0.002974,-0.000560,-0.003229,0.199092,0.020879,0.979758,-0.000377,0.000560,0.000817,-31.509605,358.973907,10.021115,,,,,,
