timestamp,attitude_roll,attitude_pitch,attitude_yaw,rotation_rate_x,rotation_rate_y,rotation_rate_z,gravity_x,gravity_y,gravity_z,user_acc_x,user_acc_y,user_acc_z,magnetic_field_x,magnetic_field_y,magnetic_field_z,latitude(degree),longitude(degree),altitude(meter),speed(m/s),course(degree),timestamp
1465826721.28,-0.076005,0.004983,-0.034236,0.003753,-0.117112,0.004093,-0.075930,-0.004983,-0.997101,0.001513,-0.000846,0.003616,-46.385475,305.661652,-58.772118,,,,,,
1465826721.30,-0.078332,0.005093,-0.034123,0.007958,-0.156404,0.006472,-0.078251,-0.005093,-0.996921,0.018330,0.002422,0.000552,-46.385475,305.661652,-58.772118,,,,,,
1465826721.29,-0.077116,0.005055,-0.034187,0.005861,-0.131980,0.005252,-0.077038,-0.005055,-0.997015,0.009839,-0.002117,0.000098,-46.385475,305.661652,-58.772118,,,,,,
1465826721.31,-0.079615,0.005129,-0.034043,0.009003,-0.170209,0.007624,-0.079530,-0.005129,-0.996819,0.023531,0.002443,0.006554,-46.496307,305.656342,-58.712261,,,,,,
1465826721.32,-0.081269,0.005172,-0.033947,0.011065,-0.222239,0.009017,-0.081179,-0.005172,-0.996686,0.024706,0.003768,0.008069,-46.496307,305.656342,-58.712261,,,,,,
1465826721.33,-0.083840,0.005300,-0.033847,0.017320,-0.328421,0.009689,-0.083740,-0.005299,-0.996473,0.027451,0.000737,-0.005983,-46.496307,305.656342,-58.712261,,,,,,
,,,,,,,,,,,,,,,,29.719971,-95.399009,10.696703,-1.000000,-1.000000,1465826951.30
,,,,,,,,,,,,,,,,29.719971,-95.399009,10.696703,-1.000000,-1.000000,1465826951.30
1465826721.33,-0.087450,0.005511,-0.033708,0.023576,-0.427181,0.014573,-0.087338,-0.005511,-0.996164,0.029690,0.000353,-0.002097,-46.792648,305.655334,-58.481560,,,,,,
,,,,,,,,,,,,,,,,29.719971,-95.399009,10.696703,-1.000000,-1.000000,1465826951.31
1465826721.35,-0.091730,0.005758,-0.033567,0.024576,-0.484507,0.011740,-0.091600,-0.005758,-0.995779,0.030596,-0.000528,0.001318,-46.792648,305.655334,-58.481560,,,,,,
1465826721.36,-0.096588,0.005989,-0.033414,0.027702,-0.536538,0.013134,-0.096436,-0.005989,-0.995321,0.028184,0.001609,0.005163,-46.792648,305.655334,-58.481560,,,,,,
1465826721.37,-0.102126,0.006287,-0.033252,0.030813,-0.603432,0.013556,-0.101946,-0.006287,-0.994770,0.024462,-0.000320,-0.000790,-47.180023,305.638458,-58.258064,,,,,,
1465826721.38,-0.108521,0.006572,-0.033069,0.034988,-0.668206,0.015031,-0.108306,-0.006572,-0.994096,0.014449,0.002132,-0.000655,-47.180023,305.638458,-58.258064,,,,,,
1465826721.39,-0.115561,0.006922,-0.032882,0.037059,-0.717047,0.014275,-0.115301,-0.006922,-0.993306,0.008184,0.000513,-0.007182,-47.180023,305.638458,-58.258064,,,,,,
,,,,,,,,,,,,,,,,29.719971,-95.399010,10.655134,-1.000000,-1.000000,1465826951.36
,,,,,,,,,,,,,,,,29.719970,-95.399010,10.631566,-1.000000,-1.000000,1465826951.36
1465826721.39,-0.122969,0.007300,-0.032678,0.038106,-0.727672,0.016472,-0.122656,-0.007300,-0.992422,-0.009485,-0.002695,-0.007852,-48.387527,305.594177,-57.494862,,,,,,
1465826721.40,-0.130036,0.007644,-0.032485,0.036019,-0.696873,0.014148,-0.129667,-0.007644,-0.991528,-0.011966,-0.004655,-0.009662,-48.387527,305.594177,-57.494862,,,,,,
1465826721.41,-0.136695,0.007962,-0.032302,0.032876,-0.654402,0.014943,-0.136265,-0.007962,-0.990640,-0.015545,-0.000980,-0.003744,-48.387527,305.594177,-57.494862,,,,,,
1465826721.42,-0.142971,0.008274,-0.032119,0.033988,-0.620419,0.012602,-0.142479,-0.008274,-0.989763,-0.011055,0.000705,-0.001020,-49.123074,305.565216,-57.023102,,,,,,
1465826721.44,-0.149409,0.008584,-0.031945,0.033977,-0.627856,0.013713,-0.148848,-0.008584,-0.988823,-0.010011,0.000069,-0.005608,-49.123074,305.565216,-57.023102,,,,,,
1465826721.45,-0.155844,0.008920,-0.031759,0.036082,-0.646969,0.013835,-0.155208,-0.008920,-0.987842,-0.007558,0.000085,-0.008603,-49.123074,305.565216,-57.023102,,,,,,
1465826721.45,-0.162157,0.009245,-0.031568,0.035050,-0.621485,0.013674,-0.161441,-0.009245,-0.986839,-0.002744,-0.003725,-0.003044,-50.419094,305.514587,-56.156555,,,,,,
1465826721.47,-0.167855,0.009523,-0.031391,0.028753,-0.550339,0.012157,-0.167060,-0.009523,-0.985901,-0.000924,-0.000136,0.007126,-50.419094,305.514587,-56.156555,,,,,,
1465826721.48,-0.172697,0.009757,-0.031238,0.025671,-0.462204,0.010537,-0.171832,-0.009756,-0.985078,0.001299,0.000128,0.010484,-50.419094,305.514587,-56.156555,,,,,,
1465826721.48,-0.176838,0.009955,-0.031093,0.021487,-0.400621,0.011211,-0.175909,-0.009954,-0.984356,0.000952,0.002676,0.010784,-51.009838,305.491516,-55.747326,,,,,,
1465826721.50,-0.180650,0.010143,-0.030957,0.020455,-0.378316,0.008941,-0.179660,-0.010143,-0.983676,0.006808,0.001827,0.008716,-51.009838,305.491516,-55.747326,,,,,,
1465826721.51,-0.184626,0.010338,-0.030829,0.021484,-0.406986,0.009122,-0.183569,-0.010338,-0.982952,0.009085,-0.000404,0.000195,-51.009838,305.491516,-55.747326,,,,,,
1465826721.51,-0.188952,0.010554,-0.030680,0.023550,-0.453711,0.011546,-0.187819,-0.010554,-0.982147,0.008162,-0.000325,-0.005081,-51.814156,305.462616,-55.160698,,,,,,
1465826721.53,-0.193768,0.010769,-0.030524,0.024573,-0.487690,0.011760,-0.192546,-0.010769,-0.981229,0.009548,-0.001591,-0.003879,-51.814156,305.462616,-55.160698,,,,,,
1465826721.54,-0.198775,0.011007,-0.030351,0.026679,-0.504682,0.012933,-0.197457,-0.011007,-0.980250,0.014672,0.000310,0.002802,-51.814156,305.462616,-55.160698,,,,,,
1465826721.54,-0.203984,0.011241,-0.030164,0.026647,-0.528045,0.014144,-0.202560,-0.011241,-0.979205,0.024596,0.004222,0.009113,-52.250015,305.447571,-54.832058,,,,,,
1465826721.56,-0.209236,0.011427,-0.029970,0.029773,-0.582196,0.014487,-0.207699,-0.011427,-0.978126,0.029751,0.003584,0.005973,-52.250015,305.447571,-54.832058,,,,,,
1465826721.57,-0.215726,0.011724,-0.029737,0.034980,-0.672458,0.017187,-0.214042,-0.011724,-0.976754,0.035621,0.002538,0.003137,-52.250015,305.447571,-54.832058,,,,,,
1465826721.58,-0.222853,0.012036,-0.029470,0.040173,-0.778675,0.018922,-0.220997,-0.012035,-0.975200,0.040089,0.002300,0.002361,-53.268600,305.418365,-54.008476,,,,,,
1465826721.59,-0.231291,0.012420,-0.029161,0.047482,-0.890173,0.021758,-0.229216,-0.012420,-0.973296,0.047011,0.001342,0.004211,-53.268600,305.418365,-54.008476,,,,,,
1465826721.60,-0.241037,0.012841,-0.028791,0.051579,-1.012294,0.026785,-0.238690,-0.012841,-0.971011,0.053403,0.003335,0.008029,-53.268600,305.418365,-54.008476,,,,,,
1465826721.61,-0.252147,0.013337,-0.028400,0.060991,-1.150330,0.026596,-0.249461,-0.013336,-0.968293,0.059077,0.003189,0.006211,-53.979652,305.396912,-53.420406,,,,,,
1465826721.63,-0.278313,0.014483,-0.027367,0.072377,-1.391397,0.039828,-0.274705,-0.014483,-0.961419,0.069520,0.003115,0.014779,-53.979652,305.396912,-53.420406,,,,,,
1465826721.62,-0.264659,0.013904,-0.027924,0.067201,-1.284135,0.032764,-0.261555,-0.013904,-0.965088,0.054875,0.004123,0.005143,-53.979652,305.396912,-53.420406,,,,,,
1465826721.64,-0.293235,0.015078,-0.026737,0.077513,-1.535813,0.043932,-0.289018,-0.015078,-0.957205,0.113389,0.004198,0.036169,-56.076294,305.335236,-51.581638,,,,,,
1465826721.65,-0.310748,0.015769,-0.026003,0.092024,-1.842696,0.051194,-0.305733,-0.015768,-0.951987,0.157158,0.009329,0.042837,-56.076294,305.335236,-51.581638,,,,,,
1465826721.66,-0.332969,0.016626,-0.025107,0.117979,-2.359828,0.061914,-0.326805,-0.016625,-0.944945,0.178063,0.012460,0.026321,-56.076294,305.335236,-51.581638,,,,,,
1465826721.67,-0.361095,0.017726,-0.023958,0.151281,-2.959786,0.074226,-0.353243,-0.017725,-0.935364,0.187151,0.010080,0.014450,-57.441971,305.305359,-50.238277,,,,,,
1465826721.69,-0.433995,0.020495,-0.020790,0.211666,-4.016372,0.103266,-0.420411,-0.020493,-0.907102,0.214051,0.012940,0.046430,-57.441971,305.305359,-50.238277,,,,,,
1465826721.68,-0.394979,0.019021,-0.022530,0.180370,-3.521521,0.087358,-0.384719,-0.019020,-0.922838,0.200439,0.010338,0.020189,-57.441971,305.305359,-50.238277,,,,,,
1465826721.70,-0.477640,0.022015,-0.018799,0.225985,-4.478275,0.110435,-0.459573,-0.022013,-0.887867,0.243921,0.010645,0.077076,-62.341267,305.193726,-44.779297,,,,,,
1465826721.71,-0.526969,0.023690,-0.016591,0.264614,-5.088832,0.114302,-0.502775,-0.023688,-0.864093,0.258970,0.020347,0.082934,-62.341267,305.193726,-44.779297,,,,,,
1465826721.72,-0.582263,0.025407,-0.013894,0.292597,-5.654863,0.145556,-0.549738,-0.025404,-0.834951,0.206003,0.006560,0.055349,-62.341267,305.193726,-44.779297,,,,,,
1465826721.73,-0.643106,0.027147,-0.010936,0.321722,-6.210189,0.144810,-0.599463,-0.027143,-0.799942,0.235098,0.028394,0.095276,-65.608955,305.134216,-40.291367,,,,,,
1465826721.74,-0.708283,0.028846,-0.007577,0.347840,-6.588238,0.159980,-0.650260,-0.028842,-0.759164,0.183112,0.010211,0.076425,-65.608955,305.134216,-40.291367,,,,,,
1465826721.75,-0.776426,0.030335,-0.003940,0.358121,-6.860100,0.174469,-0.700412,-0.030330,-0.713094,0.186618,0.021816,0.125203,-65.608955,305.134216,-40.291367,,,,,,
1465826721.76,-0.846536,0.031530,-0.000086,0.365333,-7.051231,0.176739,-0.748617,-0.031525,-0.662252,0.197943,0.010956,0.166967,-72.184311,305.113159,-27.022045,,,,,,
1465826721.77,-0.920023,0.032565,0.003982,0.386130,-7.444115,0.181353,-0.795194,-0.032559,-0.605481,0.234235,0.024289,0.177716,-72.184311,305.113159,-27.022045,,,,,,
1465826721.78,-0.998677,0.033308,0.008407,0.414168,-7.995231,0.194417,-0.840289,-0.033302,-0.541115,0.210650,0.015968,0.183754,-72.184311,305.113159,-27.022045,,,,,,
1465826721.79,-1.084176,0.034010,0.013103,0.449520,-8.736276,0.158651,-0.883407,-0.034003,-0.467371,0.200714,0.021583,0.145761,-72.184311,305.113159,-27.022045,,,,,,
1465826721.80,-1.175620,0.034321,0.018509,0.518056,-9.151683,0.236901,-0.922385,-0.034315,-0.384745,-0.063165,0.018613,-0.011328,-75.534790,305.364410,-9.049347,,,,,,
1465826721.81,-1.262625,0.033849,0.023651,0.443401,-8.448650,0.202612,-0.952344,-0.033842,-0.303143,-0.141711,-0.025957,0.156506,-75.534790,305.364410,-9.049347,,,,,,
1465826721.82,-1.338466,0.033210,0.028072,0.395955,-7.258293,0.175940,-0.972596,-0.033203,-0.230119,-0.078033,0.010254,0.123200,-74.918793,305.646820,1.421041,,,,,,
1465826721.83,-1.403103,0.032215,0.031765,0.326989,-6.208150,0.174607,-0.985461,-0.032210,-0.166822,-0.197462,0.002089,0.280378,-74.918793,305.646820,1.421041,,,,,,
1465826721.84,-1.460367,0.031146,0.034888,0.289493,-5.598559,0.135620,-0.993427,-0.031141,-0.110152,-0.151883,-0.012804,0.113554,-74.918793,305.646820,1.421041,,,,,,
1465826721.85,-1.514384,0.029945,0.037865,0.285534,-5.337392,0.147815,-0.997962,-0.029940,-0.056357,-0.156717,0.006274,0.069831,-73.078270,305.947479,9.515378,,,,,,
1465826721.86,-1.566940,0.028597,0.040589,0.261199,-5.226932,0.139647,-0.999584,-0.028593,-0.003855,-0.098973,-0.016924,0.071741,-73.078270,305.947479,9.515378,,,,,,
1465826721.87,-1.618982,0.027211,0.043290,0.278309,-5.178080,0.132971,-0.998470,-0.027207,0.048149,-0.049931,0.014955,0.005089,-73.078270,305.947479,9.515378,,,,,,
1465826721.88,-1.670379,0.025605,0.045867,0.261333,-5.111210,0.144244,-0.994720,-0.025602,0.099386,-0.056901,-0.007952,0.074717,-67.990860,306.524384,21.327332,,,,,,
1465826721.90,-1.772193,0.022254,0.050748,0.274176,-5.068727,0.137604,-0.979545,-0.022253,0.199989,-0.034035,-0.019419,0.069298,-67.990860,306.524384,21.327332,,,,,,
1465826721.89,-1.721291,0.024019,0.048298,0.264605,-5.081425,0.123836,-0.988412,-0.024016,0.149884,0.003091,0.008407,0.042225,-67.990860,306.524384,21.327332,,,,,,
1465826721.91,-1.822078,0.020471,0.052979,0.250933,-4.966709,0.110329,-0.968392,-0.020470,0.248593,-0.093910,0.019371,0.064014,-64.722939,306.829285,26.486626,,,,,,
1465826721.92,-1.870444,0.018618,0.055176,0.262868,-4.770314,0.120818,-0.955275,-0.018617,0.295132,-0.127870,-0.013152,0.054477,-64.722939,306.829285,26.486626,,,,,,
1465826721.93,-1.915211,0.016753,0.057076,0.229324,-4.355123,0.114988,-0.941141,-0.016752,0.337598,-0.119253,-0.007570,0.093981,-64.722939,306.829285,26.486626,,,,,,
1465826721.94,-1.954611,0.015051,0.058627,0.198107,-3.802926,0.095527,-0.927138,-0.015051,0.374418,-0.117265,0.009878,0.068835,-57.221924,307.447784,35.161606,,,,,,
1465826721.95,-1.989428,0.013601,0.059978,0.174171,-3.382405,0.080092,-0.913562,-0.013601,0.406473,-0.180616,0.000738,0.009512,-57.221924,307.447784,35.161606,,,,,,
1465826721.96,-2.020257,0.012190,0.061100,0.157642,-2.968311,0.083865,-0.900615,-0.012189,0.434447,-0.180898,-0.001574,0.023744,-57.221924,307.447784,35.161606,,,,,,
1465826721.97,-2.046053,0.011034,0.062024,0.127476,-2.441571,0.054985,-0.889121,-0.011033,0.457539,-0.182290,-0.006652,0.016247,-53.935989,307.692108,38.096085,,,,,,
1465826721.98,-2.066041,0.010079,0.062704,0.093090,-1.853297,0.044874,-0.879808,-0.010079,0.475223,-0.171081,-0.001411,0.016217,-53.935989,307.692108,38.096085,,,,,,
1465826721.99,-2.080420,0.009432,0.063204,0.068243,-1.307489,0.030782,-0.872890,-0.009432,0.487827,-0.197820,-0.015684,0.006131,-53.935989,307.692108,38.096085,,,,,,
1465826722.00,-2.089549,0.008947,0.063488,0.041224,-0.780815,0.025323,-0.868404,-0.008947,0.495777,-0.162282,-0.009043,-0.009815,-49.616825,307.999390,41.344372,,,,,,
1465826722.01,-2.093270,0.008738,0.063555,0.009985,-0.239248,0.010186,-0.866554,-0.008738,0.499006,-0.127251,0.000010,0.036211,-49.616825,307.999390,41.344372,,,,,,
1465826722.02,-2.092333,0.008740,0.063455,-0.016083,0.192931,0.003192,-0.867022,-0.008740,0.498194,-0.075300,0.005276,0.004187,-49.616825,307.999390,41.344372,,,,,,
1465826722.03,-2.088239,0.008925,0.063201,-0.033827,0.472203,-0.001770,-0.869052,-0.008925,0.494640,-0.032345,0.001662,0.044469,-48.950333,308.047516,41.778240,,,,,,
1465826722.04,-2.082728,0.009173,0.062917,-0.035831,0.558233,-0.010828,-0.871763,-0.009173,0.489841,0.012678,0.008517,-0.004062,-48.950333,308.047516,41.778240,,,,,,
1465826722.05,-2.077694,0.009435,0.062652,-0.034875,0.473286,-0.009229,-0.874216,-0.009435,0.485446,0.014337,0.001256,0.001325,-48.950333,308.047516,41.778240,,,,,,
1465826722.06,-2.074116,0.009606,0.062486,-0.020163,0.321435,-0.006133,-0.875946,-0.009605,0.482314,0.029541,0.005791,-0.009826,-49.647331,307.992615,41.358528,,,,,,
1465826722.07,-2.071713,0.009749,0.062364,-0.016031,0.217382,-0.007606,-0.877101,-0.009749,0.480207,0.037364,0.005110,0.013186,-49.647331,307.992615,41.358528,,,,,,
1465826722.08,-2.069946,0.009830,0.062279,-0.009717,0.167456,-0.000900,-0.877947,-0.009830,0.478656,0.048373,0.001712,0.021939,-49.647331,307.992615,41.358528,,,,,,
1465826722.09,-2.068483,0.009889,0.062176,-0.012948,0.138789,-0.000723,-0.878646,-0.009889,0.477371,0.067153,0.008622,0.030030,-49.935905,307.969177,41.185238,,,,,,
1465826722.10,-2.067625,0.009915,0.062103,-0.005599,0.060203,0.002971,-0.879055,-0.009915,0.476617,0.073986,0.001370,0.029975,-49.935905,307.969177,41.185238,,,,,,
1465826722.11,-2.068069,0.009868,0.062036,-0.002595,-0.086336,0.007086,-0.878844,-0.009867,0.477007,0.102386,0.016948,0.020369,-49.935905,307.969177,41.185238,,,,,,
1465826722.12,-2.070579,0.009730,0.062062,0.012018,-0.311460,0.013835,-0.877645,-0.009730,0.479212,0.114797,0.008509,0.023382,-50.069500,307.957611,41.109318,,,,,,
1465826722.13,-2.075691,0.009452,0.062135,0.022315,-0.581181,0.021923,-0.875186,-0.009451,0.483694,0.149951,0.015708,0.029459,-50.069500,307.957611,41.109318,,,,,,
1465826722.14,-2.083991,0.009061,0.062309,0.038919,-0.919913,0.027257,-0.871145,-0.009061,0.490943,0.173696,0.013059,0.032251,-50.069500,307.957611,41.109318,,,,,,
1465826722.15,-2.096402,0.008473,0.062619,0.061782,-1.354225,0.038520,-0.864989,-0.008473,0.501719,0.183577,0.010182,0.029775,-49.657288,307.985260,41.401115,,,,,,
1465826722.16,-2.113610,0.007619,0.063061,0.088822,-1.844830,0.055461,-0.856234,-0.007619,0.516532,0.213564,0.011876,0.040704,-49.657288,307.985260,41.401115,,,,,,
1465826722.17,-2.136027,0.006477,0.063612,0.112616,-2.376843,0.072660,-0.844447,-0.006477,0.535600,0.245372,0.015663,0.064101,-49.657288,307.985260,41.401115,,,,,,
1465826722.18,-2.164361,0.005075,0.064308,0.142709,-3.000140,0.077663,-0.828942,-0.005075,0.559312,0.262993,0.024148,0.069884,-46.540977,308.190460,43.444279,,,,,,
1465826722.19,-2.200161,0.003367,0.065261,0.187504,-3.773181,0.092136,-0.808397,-0.003367,0.588628,0.218676,0.016673,0.032497,-46.540977,308.190460,43.444279,,,,,,
1465826722.20,-2.243431,0.001226,0.066326,0.222764,-4.501634,0.110578,-0.782183,-0.001226,0.623048,0.201525,0.016470,0.062743,-46.540977,308.190460,43.444279,,,,,,
1465826722.21,-2.293044,-0.001265,0.067499,0.259271,-5.101579,0.117570,-0.750321,0.001265,0.661072,0.160279,0.013933,0.074951,-43.185501,308.402496,45.362137,,,,,,
1465826722.23,-2.404646,-0.007155,0.069738,0.296735,-5.762092,0.140910,-0.672013,0.007155,0.740505,0.062272,0.006151,0.108509,-43.185501,308.402496,45.362137,,,,,,
1465826722.22,-2.347418,-0.004089,0.068691,0.285327,-5.538014,0.127784,-0.713280,0.004089,0.700868,0.105476,0.010941,0.086654,-43.185501,308.402496,45.362137,,,,,,
1465826722.24,-2.462478,-0.010331,0.070607,0.297784,-5.781194,0.136773,-0.628071,0.010331,0.778088,0.043720,0.012084,0.136921,-31.914249,309.081024,49.852119,,,,,,
1465826722.25,-2.519879,-0.013514,0.071307,0.295723,-5.721741,0.139591,-0.582376,0.013514,0.812807,-0.005774,0.004049,0.122007,-31.914249,309.081024,49.852119,,,,,,
1465826722.26,-2.576596,-0.016703,0.071804,0.289430,-5.655888,0.132785,-0.535338,0.016702,0.844473,-0.058396,0.008139,0.101923,-31.914249,309.081024,49.852119,,,,,,
1465826722.27,-2.632094,-0.019887,0.072094,0.286414,-5.498766,0.141377,-0.487643,0.019886,0.872816,-0.088940,-0.003803,0.083055,-25.218800,309.461029,51.309914,,,,,,
1465826722.29,-2.734484,-0.025762,0.072207,0.256376,-4.863734,0.116075,-0.395825,0.025759,0.917965,-0.143894,-0.004595,0.069294,-25.218800,309.461029,51.309914,,,,,,
1465826722.28,-2.684971,-0.022913,0.072190,0.267636,-5.208852,0.127831,-0.440802,0.022911,0.897312,-0.097787,0.004997,0.100415,-25.218800,309.461029,51.309914,,,,,,
1465826722.30,-2.780045,-0.028374,0.072015,0.227094,-4.440060,0.113389,-0.353580,0.028370,0.934974,-0.158002,-0.002629,0.058892,-12.465963,310.136841,51.909081,,,,,,
1465826722.31,-2.820812,-0.030650,0.071820,0.201128,-3.949444,0.092191,-0.315159,0.030645,0.948544,-0.185695,-0.005666,0.039325,-12.465963,310.136841,51.909081,,,,,,
1465826722.32,-2.856199,-0.032658,0.071475,0.174139,-3.394111,0.089745,-0.281385,0.032653,0.959039,-0.194232,-0.008574,0.033652,-12.465963,310.136841,51.909081,,,,,,
1465826722.33,-2.885844,-0.034324,0.071211,0.147217,-2.819606,0.065891,-0.252821,0.034317,0.966904,-0.216127,-0.009293,0.009231,-7.352198,310.386688,51.389309,,,,,,
1465826722.34,-2.909383,-0.035671,0.070908,0.116066,-2.195239,0.057686,-0.229982,0.035663,0.972541,-0.217009,-0.009754,0.001809,-7.352198,310.386688,51.389309,,,,,,
1465826722.35,-2.926498,-0.036636,0.070725,0.081781,-1.547469,0.034429,-0.213297,0.036628,0.976301,-0.235449,-0.006858,-0.015882,-7.352198,310.386688,51.389309,,,,,,
1465826722.36,-2.936748,-0.037212,0.070556,0.041127,-0.858329,0.026873,-0.203275,0.037204,0.978415,-0.232776,-0.008227,-0.017508,-1.163517,310.676666,50.134491,,,,,,
1465826722.37,-2.939971,-0.037361,0.070510,0.004798,-0.143662,0.002130,-0.200119,0.037352,0.979059,-0.224838,-0.008040,-0.016138,-1.163517,310.676666,50.134491,,,,,,
1465826722.38,-2.936102,-0.037111,0.070514,-0.034764,0.563533,-0.007667,-0.203907,0.037103,0.978287,-0.215603,-0.009408,-0.011490,-1.163517,310.676666,50.134491,,,,,,
1465826722.39,-2.925437,-0.036474,0.070641,-0.069027,1.229354,-0.031037,-0.214333,0.036466,0.976080,-0.197379,-0.008176,-0.010839,-0.377635,310.710236,49.938374,,,,,,
1465826722.41,-2.885900,-0.034177,0.071000,-0.126095,2.392103,-0.055417,-0.252768,0.034170,0.966923,-0.147302,-0.002844,0.008541,-0.377635,310.710236,49.938374,,,,,,
1465826722.40,-2.908516,-0.035486,0.070791,-0.100195,1.839918,-0.039155,-0.230827,0.035479,0.972348,-0.179574,-0.009386,-0.001050,-0.377635,310.710236,49.938374,,,,,,
1465826722.42,-2.858403,-0.032584,0.071225,-0.154240,2.859334,-0.066891,-0.279271,0.032579,0.959659,-0.128016,-0.003938,0.014675,-3.472620,310.557312,50.763535,,,,,,
1465826722.43,-2.826861,-0.030757,0.071443,-0.172904,3.246922,-0.076792,-0.309415,0.030752,0.950430,-0.104022,-0.000951,0.019923,-3.472620,310.557312,50.763535,,,,,,
1465826722.44,-2.791836,-0.028711,0.071606,-0.191638,3.580355,-0.085288,-0.342528,0.028707,0.939069,-0.081392,0.000224,0.040438,-3.472620,310.557312,50.763535,,,,,,
1465826722.45,-2.753877,-0.026529,0.071721,-0.202990,3.862809,-0.090264,-0.377942,0.026526,0.925449,-0.061618,-0.000251,0.052898,-6.920444,310.388641,51.437401,,,,,,
1465826722.46,-2.713398,-0.024142,0.071743,-0.220776,4.099624,-0.100283,-0.415108,0.024140,0.909452,-0.030509,0.003921,0.065463,-6.920444,310.388641,51.437401,,,,,,
1465826722.47,-2.670940,-0.021670,0.071681,-0.226929,4.290746,-0.099359,-0.453362,0.021668,0.891063,-0.011711,-0.000413,0.077458,-6.920444,310.388641,51.437401,,,,,,
1465826722.48,-2.627004,-0.019095,0.071445,-0.240605,4.419236,-0.102307,-0.492088,0.019094,0.870336,0.031913,0.007029,0.100992,-16.167507,309.914185,52.217216,,,,,,
1465826722.49,-2.582606,-0.016524,0.071145,-0.235255,4.435170,-0.105595,-0.530255,0.016523,0.847677,0.062283,0.009417,0.104166,-16.167507,309.914185,52.217216,,,,,,
1465826722.50,-2.539143,-0.014033,0.070766,-0.227960,4.308811,-0.104795,-0.566607,0.014032,0.823869,0.068865,0.007635,0.083236,-16.167507,309.914185,52.217216,,,,,,
1465826722.52,-2.456925,-0.009409,0.069607,-0.211364,3.973247,-0.093094,-0.632388,0.009409,0.774595,0.149538,0.014578,0.114107,-21.416288,309.627808,52.026718,,,,,,
1465826722.51,-2.497195,-0.011666,0.070215,-0.223917,4.160116,-0.088956,-0.600676,0.011665,0.799408,0.100203,0.006416,0.091278,-21.416288,309.627808,52.026718,,,,,,
1465826722.53,-2.419420,-0.007339,0.068998,-0.193662,3.667418,-0.083707,-0.660999,0.007339,0.750351,0.157535,0.015473,0.086807,-21.416288,309.627808,52.026718,,,,,,
1465826722.54,-2.385584,-0.005487,0.068346,-0.176056,3.283019,-0.074892,-0.686013,0.005487,0.727569,0.178276,0.016104,0.083420,-30.965281,309.084351,50.426449,,,,,,
1465826722.55,-2.356042,-0.003888,0.067749,-0.147879,2.834913,-0.067796,-0.707209,0.003888,0.706994,0.191935,0.013903,0.071128,-30.965281,309.084351,50.426449,,,,,,
1465826722.56,-2.331200,-0.002601,0.067223,-0.125060,2.376161,-0.049994,-0.724556,0.002601,0.689211,0.198082,0.013787,0.057767,-30.965281,309.084351,50.426449,,,,,,
1465826722.57,-2.310865,-0.001511,0.066748,-0.104345,1.915326,-0.046019,-0.738422,0.001511,0.674338,0.227451,0.013335,0.071542,-34.578575,308.868500,49.390373,,,,,,
1465826722.58,-2.295542,-0.000717,0.066389,-0.073070,1.400306,-0.032113,-0.748668,0.000717,0.662945,0.231044,0.017991,0.052143,-34.578575,308.868500,49.390373,,,,,,
1465826722.59,-2.285732,-0.000209,0.066152,-0.043973,0.839590,-0.018988,-0.755135,0.000209,0.655569,0.229470,0.018818,0.040766,-34.578575,308.868500,49.390373,,,,,,
1465826722.61,-2.282983,-0.000047,0.066084,0.014216,-0.279624,0.004057,-0.756935,0.000047,0.653491,0.222038,0.015807,0.026929,-38.497593,308.630798,47.956013,,,,,,
1465826722.60,-2.281572,-0.000001,0.066047,-0.013822,0.275731,-0.005841,-0.757856,0.000001,0.652422,0.227186,0.016372,0.029661,-38.497593,308.630798,47.956013,,,,,,
1465826722.62,-2.289667,-0.000375,0.066256,0.041233,-0.795700,0.016900,-0.752550,0.000375,0.658535,0.213228,0.014457,0.031070,-38.497593,308.630798,47.956013,,,,,,
1465826722.63,-2.301338,-0.000960,0.066539,0.067219,-1.288410,0.027467,-0.744813,0.000960,0.667273,0.203401,0.016511,0.028467,-38.653435,308.620239,47.898605,,,,,,
1465826722.64,-2.317718,-0.001794,0.066927,0.090046,-1.752450,0.037851,-0.733783,0.001794,0.679382,0.183337,0.011969,0.024964,-38.653435,308.620239,47.898605,,,,,,
1465826722.65,-2.338437,-0.002853,0.067358,0.107601,-2.171897,0.050080,-0.719548,0.002853,0.694436,0.166448,0.013505,0.024939,-38.653435,308.620239,47.898605,,,,,,
1465826722.66,-2.363089,-0.004104,0.067884,0.131604,-2.561588,0.051483,-0.702209,0.004104,0.711959,0.145904,0.011964,0.028992,-35.588947,308.802673,49.083031,,,,,,
1465826722.67,-2.391082,-0.005611,0.068440,0.151423,-2.865314,0.068310,-0.682002,0.005611,0.731329,0.111201,0.010457,0.015680,-35.588947,308.802673,49.083031,,,,,,
1465826722.68,-2.421404,-0.007203,0.068974,0.155418,-3.082974,0.065421,-0.659509,0.007203,0.751662,0.104089,0.009475,0.048127,-35.588947,308.802673,49.083031,,,,,,
1465826722.69,-2.453553,-0.008948,0.069524,0.173286,-3.259257,0.071867,-0.634999,0.008948,0.772461,0.081364,0.008660,0.036743,-32.620033,308.977448,50.036873,,,,,,
1465826722.70,-2.487172,-0.010773,0.069993,0.170979,-3.390937,0.079077,-0.608664,0.010773,0.793355,0.057822,0.008300,0.038646,-29.035793,309.183075,50.966423,,,,,,
1465826722.71,-2.521886,-0.012669,0.070412,0.179366,-3.497119,0.078687,-0.580750,0.012669,0.813983,0.039582,0.006512,0.039258,-29.035793,309.183075,50.966423,,,,,,
1465826722.72,-2.557506,-0.014618,0.070836,0.185659,-3.582052,0.073904,-0.551379,0.014617,0.834127,0.002566,0.006867,0.026515,-29.035793,309.183075,50.966423,,,,,,
1465826722.73,-2.593170,-0.016650,0.071140,0.186746,-3.543862,0.086439,-0.521270,0.016649,0.853229,-0.041566,-0.003405,0.011471,-29.035793,309.183075,50.966423,,,,,,
1465826722.74,-2.627214,-0.018562,0.071326,0.169975,-3.346335,0.076668,-0.491909,0.018561,0.870449,-0.035709,0.000314,0.041661,-29.035793,309.183075,50.966423,,,,,,
1465826722.75,-2.658929,-0.020361,0.071493,0.164953,-3.110604,0.071991,-0.464044,0.020359,0.885578,-0.058111,0.001842,0.042141,-20.843863,309.634766,52.217449,,,,,,
1465826722.76,-2.688277,-0.022026,0.071553,0.147152,-2.876989,0.067314,-0.437843,0.022025,0.898782,-0.076134,0.001993,0.022956,-20.843863,309.634766,52.217449,,,,,,
1465826722.77,-2.715288,-0.023552,0.071598,0.137880,-2.641244,0.058376,-0.413394,0.023550,0.910248,-0.102612,-0.001180,0.009095,-20.843863,309.634766,52.217449,,,,,,
1465826722.78,-2.739373,-0.024958,0.071579,0.122300,-2.325886,0.058511,-0.391340,0.024956,0.919908,-0.126788,-0.002998,-0.010270,-13.572205,310.014221,52.362106,,,,,,
1465826722.79,-2.759589,-0.026100,0.071542,0.098349,-1.918107,0.043156,-0.372653,0.026097,0.927604,-0.115735,-0.003209,0.013299,-13.572205,310.014221,52.362106,,,,,,
1465826722.80,-2.775562,-0.027030,0.071511,0.078670,-1.486990,0.035111,-0.357781,0.027027,0.933414,-0.130851,-0.003833,0.001324,-13.572205,310.014221,52.362106,,,,,,
1465826722.81,-2.787176,-0.027659,0.071452,0.050483,-1.051616,0.024901,-0.346911,0.027655,0.937490,-0.133574,-0.005622,-0.003271,-10.929546,310.148468,52.185135,,,,,,
1465826722.82,-2.794406,-0.028058,0.071415,0.032928,-0.626868,0.015833,-0.340120,0.028054,0.939964,-0.133666,-0.005563,-0.006355,-10.929546,310.148468,52.185135,,,,,,
1465826722.83,-2.797554,-0.028238,0.071395,0.008974,-0.210612,0.006812,-0.337157,0.028234,0.941025,-0.132172,-0.002279,-0.013687,-9.291935,310.229126,52.022930,,,,,,
1465826722.84,-2.796528,-0.028163,0.071379,-0.012848,0.205646,-0.003272,-0.338124,0.028159,0.940680,-0.124721,-0.001700,-0.010917,-9.291935,310.229126,52.022930,,,,,,
1465826722.85,-2.791417,-0.027874,0.071386,-0.031492,0.611282,-0.012221,-0.342929,0.027871,0.938948,-0.117917,-0.001595,-0.008299,-9.291935,310.229126,52.022930,,,,,,
1465826722.86,-2.778486,-0.027173,0.071492,-0.056531,1.011631,-0.021144,-0.355049,0.027170,0.934453,-0.102775,-0.003107,0.000957,-9.291935,310.229126,52.022930,,,,,,
1465826722.87,-2.765537,-0.026422,0.071493,-0.075216,1.386471,-0.028836,-0.367127,0.026419,0.929796,-0.083847,-0.000143,0.005766,-9.029203,310.239716,52.006008,,,,,,
1465826722.88,-2.749285,-0.025493,0.071508,-0.089714,1.699731,-0.038266,-0.382198,0.025490,0.923729,-0.064381,-0.000099,0.014305,-9.029203,310.239716,52.006008,,,,,,
1465826722.89,-2.730304,-0.024396,0.071489,-0.105353,1.960948,-0.042049,-0.399672,0.024393,0.916333,-0.054765,0.001135,0.012164,-9.029203,310.239716,52.006008,,,,,,
1465826722.90,-2.709087,-0.023154,0.071479,-0.116783,2.169096,-0.054010,-0.419035,0.023152,0.907675,-0.033174,0.000270,0.022715,-12.649000,310.058075,52.333714,,,,,,
1465826722.91,-2.686128,-0.021843,0.071457,-0.120833,2.338981,-0.052951,-0.439775,0.021842,0.897842,-0.038283,0.003137,0.013153,-12.649000,310.058075,52.333714,,,,,,
1465826722.92,-2.661265,-0.020402,0.071338,-0.137621,2.533305,-0.056315,-0.461974,0.020401,0.886659,-0.009111,0.002457,0.034514,-12.649000,310.058075,52.333714,,,,,,
1465826722.93,-2.634729,-0.018889,0.071215,-0.141676,2.690463,-0.060498,-0.485351,0.018888,0.874115,0.015090,0.007098,0.054885,-15.287035,309.921417,52.438934,,,,,,
1465826722.94,-2.607286,-0.017316,0.071014,-0.147985,2.754174,-0.060904,-0.509168,0.017316,0.860493,0.035443,0.006763,0.052288,-15.287035,309.921417,52.438934,,,,,,
1465826722.95,-2.579912,-0.015757,0.070770,-0.145878,2.736122,-0.060789,-0.532543,0.015756,0.846256,0.054378,0.005530,0.050838,-15.287035,309.921417,52.438934,,,,,,
1465826722.96,-2.553255,-0.014269,0.070537,-0.135351,2.638434,-0.061230,-0.554922,0.014269,0.831780,0.062094,0.006132,0.047081,-21.584877,309.581635,52.231556,,,,,,
1465826722.97,-2.527740,-0.012854,0.070290,-0.129113,2.521627,-0.058362,-0.575974,0.012854,0.817367,0.062729,0.004068,0.041352,-21.584877,309.581635,52.231556,,,,,,
1465826722.98,-2.502932,-0.011538,0.069950,-0.127065,2.471694,-0.048467,-0.596081,0.011538,0.802841,0.079495,0.003599,0.048782,-24.675817,309.414001,51.854561,,,,,,
1465826722.99,-2.479579,-0.010189,0.069602,-0.120775,2.389934,-0.050077,-0.614674,0.010188,0.788715,0.121403,-0.007015,0.086575,-24.675817,309.414001,51.854561,,,,,,
1465826723.00,-2.457219,-0.009088,0.069230,-0.105099,2.173286,-0.036994,-0.632162,0.009088,0.774783,0.128530,-0.015954,0.078046,-24.675817,309.414001,51.854561,,,,,,
1465826723.01,-2.437847,-0.008165,0.068932,-0.082078,1.850490,-0.036011,-0.647056,0.008165,0.762399,0.138603,0.016203,0.057349,-27.483089,309.255310,51.387333,,,,,,
1465826723.02,-2.422166,-0.007407,0.068687,-0.072974,1.475657,-0.029393,-0.658936,0.007407,0.752163,0.144699,0.035852,0.014805,-27.483089,309.255310,51.387333,,,,,,
1465826723.03,-2.409813,-0.006669,0.068455,-0.069096,1.159258,-0.034856,-0.668180,0.006669,0.743970,0.165479,0.078201,0.003009,-27.483089,309.255310,51.387333,,,,,,
1465826723.04,-2.400407,-0.005887,0.068277,-0.070515,0.868340,-0.038355,-0.675151,0.005887,0.737656,0.189235,0.074115,-0.009522,-27.483089,309.255310,51.387333,,,,,,
1465826723.05,-2.393847,-0.005265,0.068135,-0.046397,0.584806,-0.029102,-0.679978,0.005265,0.733213,0.157761,0.018036,0.037752,-31.462088,309.039703,50.392788,,,,,,
1465826723.06,-2.390149,-0.004995,0.068044,-0.021248,0.295924,-0.005976,-0.682686,0.004995,0.730695,0.135048,-0.056478,0.068438,-31.462088,309.039703,50.392788,,,,,,
1465826723.07,-2.389537,-0.005020,0.068013,0.007086,-0.017351,0.006662,-0.683133,0.005020,0.730277,0.141370,-0.040756,0.062494,-31.462088,309.039703,50.392788,,,,,,
1465826723.08,-2.392222,-0.005224,0.068097,0.022640,-0.352883,0.006653,-0.681169,0.005224,0.732108,0.151567,0.005061,0.026010,-32.725674,308.938263,50.209755,,,,,,
1465826723.10,-2.407908,-0.006008,0.068431,0.051575,-1.047325,0.014230,-0.669599,0.006008,0.742699,0.128980,0.050266,-0.009590,-32.725674,308.938263,50.209755,,,,,,
1465826723.09,-2.398326,-0.005539,0.068218,0.034971,-0.694813,0.017325,-0.676686,0.005539,0.736251,0.138844,0.023315,0.017488,-32.725674,308.938263,50.209755,,,,,,
1465826723.11,-2.420677,-0.006562,0.068580,0.054369,-1.346790,0.028884,-0.660059,0.006562,0.751185,0.113153,0.010650,-0.006068,-32.221260,308.970947,50.334591,,,,,,
1465826723.12,-2.435908,-0.007355,0.068890,0.088156,-1.575092,0.029285,-0.648537,0.007355,0.761147,0.105294,0.000732,0.021171,-32.221260,308.970947,50.334591,,,,,,
1465826723.13,-2.452690,-0.008289,0.069204,0.091178,-1.705707,0.034365,-0.635668,0.008289,0.771918,0.089312,-0.001422,0.021020,-30.963367,309.034760,50.730892,,,,,,
1465826723.14,-2.470354,-0.009219,0.069469,0.090004,-1.786415,0.039128,-0.621930,0.009219,0.783019,0.080670,0.002454,0.031267,-30.963367,309.034760,50.730892,,,,,,
1465826723.15,-2.488814,-0.010184,0.069720,0.090965,-1.867116,0.040700,-0.607365,0.010184,0.794358,0.076664,0.021783,0.018112,-30.963367,309.034760,50.730892,,,,,,
1465826723.16,-2.508319,-0.011126,0.069997,0.095099,-1.983887,0.030792,-0.591750,0.011126,0.806045,0.064452,0.033339,0.028001,-30.963367,309.034760,50.730892,,,,,,
1465826723.17,-2.528982,-0.012075,0.070267,0.092822,-2.094325,0.035740,-0.574963,0.012075,0.818090,0.045132,0.032313,-0.005102,-27.037125,309.256226,51.617973,,,,,,
1465826723.18,-2.550770,-0.013134,0.070580,0.108662,-2.200510,0.035357,-0.556996,0.013134,0.830411,0.009648,0.006184,0.000064,-27.037125,309.256226,51.617973,,,,,,
1465826723.19,-2.572628,-0.014292,0.070796,0.106549,-2.168687,0.046864,-0.538705,0.014291,0.842373,-0.032706,-0.019952,-0.008419,-27.037125,309.256226,51.617973,,,,,,
1465826723.20,-2.593222,-0.015416,0.070990,0.114201,-2.012603,0.044829,-0.521235,0.015415,0.853274,-0.023015,-0.030079,0.020078,-22.215902,309.499908,52.450615,,,,,,
1465826723.21,-2.611789,-0.016793,0.071153,0.126142,-1.799239,0.062662,-0.505293,0.016792,0.862785,-0.026980,-0.109917,0.051583,-22.215902,309.499908,52.450615,,,,,,
1465826723.22,-2.628550,-0.017898,0.071308,0.094461,-1.647289,0.026551,-0.490752,0.017897,0.871115,-0.043534,0.018983,0.100335,-22.215902,309.499908,52.450615,,,,,,
1465826723.23,-2.644596,-0.018502,0.071288,0.041261,-1.594213,0.041067,-0.476706,0.018501,0.878868,-0.010217,0.159981,-0.123558,-19.849236,309.642853,52.556145,,,,,,
1465826723.24,-2.660052,-0.019089,0.071282,0.060561,-1.518779,0.020389,-0.463060,0.019087,0.886121,-0.029493,0.033830,-0.059980,-19.849236,309.642853,52.556145,,,,,,
1465826723.25,-2.673718,-0.020137,0.071386,0.108694,-1.306507,0.042524,-0.450899,0.020135,0.892348,-0.109175,-0.122934,0.142930,-19.849236,309.642853,52.556145,,,,,,
1465826723.26,-2.684775,-0.020975,0.071540,0.063291,-1.039907,0.017388,-0.440998,0.020973,0.897263,-0.052182,0.010261,-0.020631,-16.155567,309.828491,52.727051,,,,,,
1465826723.27,-2.693256,-0.021314,0.071442,0.022074,-0.779772,0.025296,-0.433369,0.021313,0.900965,-0.059978,0.038731,0.000769,-16.155567,309.828491,52.727051,,,,,,
1465826723.28,-2.698781,-0.021613,0.071497,0.029948,-0.476044,0.003174,-0.428382,0.021611,0.903339,-0.053842,0.038188,-0.049793,-16.155567,309.828491,52.727051,,,,,,
1465826723.29,-2.701348,-0.021592,0.071515,-0.013328,-0.181891,-0.002971,-0.426061,0.021590,0.904437,-0.092967,-0.056594,0.027158,-14.979855,309.892761,52.696327,,,,,,
1465826723.30,-2.700780,-0.021516,0.071458,-0.001233,0.138741,0.004610,-0.426576,0.021514,0.904196,-0.099257,-0.071624,0.052225,-14.979855,309.892761,52.696327,,,,,,
1465826723.31,-2.696927,-0.021624,0.071493,0.008769,0.467903,-0.000638,-0.430055,0.021623,0.902544,-0.065199,-0.003648,0.020476,-14.979855,309.892761,52.696327,,,,,,
1465826723.32,-2.689985,-0.021344,0.071499,-0.037677,0.763152,-0.018503,-0.436314,0.021342,0.899542,-0.020886,0.125295,-0.081716,-14.759020,309.909943,52.657536,,,,,,
1465826723.33,-2.680633,-0.020580,0.071408,-0.081034,0.988296,-0.027409,-0.444714,0.020578,0.895436,-0.035846,0.002554,0.017512,-14.759020,309.909943,52.657536,,,,,,
1465826723.34,-2.669528,-0.019776,0.071324,-0.070191,1.142255,-0.029428,-0.454637,0.019774,0.890457,-0.030562,-0.007552,0.003860,-15.735523,309.852722,52.711628,,,,,,
1465826723.35,-2.657500,-0.019083,0.071241,-0.064781,1.222929,-0.022478,-0.465321,0.019082,0.884936,-0.012554,-0.058541,0.030164,-15.735523,309.852722,52.711628,,,,,,
1465826723.36,-2.644674,-0.018417,0.071193,-0.057222,1.302569,-0.026163,-0.476638,0.018416,0.878907,-0.021699,-0.023482,0.055694,-15.735523,309.852722,52.711628,,,,,,
1465826723.37,-2.631010,-0.017863,0.071112,-0.053925,1.384326,-0.026673,-0.488608,0.017862,0.872321,0.016714,0.000936,-0.002463,-15.735523,309.852722,52.711628,,,,,,
1465826723.38,-2.616953,-0.017163,0.071059,-0.065606,1.407695,-0.027895,-0.500828,0.017162,0.865377,-0.002941,0.004139,0.024974,-18.662430,309.701538,52.644981,,,,,,
1465826723.39,-2.602701,-0.016462,0.070872,-0.069838,1.432113,-0.025924,-0.513116,0.016461,0.858162,0.045785,0.019153,-0.007698,-18.662430,309.701538,52.644981,,,,,,
1465826723.40,-2.588155,-0.015693,0.070773,-0.069804,1.459720,-0.026097,-0.525550,0.015693,0.850618,0.035056,0.006570,0.033415,-18.662430,309.701538,52.644981,,,,,,
1465826723.41,-2.573573,-0.014980,0.070645,-0.067670,1.456545,-0.030333,-0.537903,0.014980,0.842873,0.041687,0.001988,0.030769,-48.380894,301.285217,-19.293972,,,,,,
1465826723.42,-2.559176,-0.014276,0.070536,-0.063453,1.431045,-0.024846,-0.549987,0.014275,0.835051,0.047973,0.033744,-0.003569,-48.380894,301.285217,-19.293972,,,,,,
1465826723.43,-2.545130,-0.013518,0.070422,-0.073055,1.394983,-0.037403,-0.561668,0.013517,0.827252,0.048210,0.018786,0.011020,-48.380894,301.285217,-19.293972,,,,,,
1465826723.44,-2.531477,-0.012693,0.070274,-0.074178,1.355685,-0.032900,-0.572916,0.012693,0.819515,0.044642,0.034289,-0.003399,-47.576511,301.282684,-21.236084,,,,,,
1465826723.45,-2.517867,-0.011873,0.070057,-0.082688,1.365240,-0.030839,-0.584022,0.011872,0.811651,0.081398,0.003997,0.047877,-47.576511,301.282684,-21.236084,,,,,,
1465826723.46,-2.504305,-0.010999,0.069814,-0.081648,1.341886,-0.032821,-0.594982,0.010999,0.803664,0.097820,0.004214,0.049104,-47.576511,301.282684,-21.236084,,,,,,
1465826723.47,-2.492000,-0.010263,0.069636,-0.065885,1.182596,-0.027548,-0.604830,0.010263,0.796288,0.093233,0.000296,0.026313,-47.179901,301.285950,-22.058664,,,,,,
1465826723.48,-2.481968,-0.009691,0.069470,-0.050231,0.938359,-0.020679,-0.612791,0.009691,0.790185,0.107481,0.004622,0.015616,-47.179901,301.285950,-22.058664,,,,,,
1465826723.49,-2.474586,-0.009285,0.069352,-0.034609,0.670759,-0.012598,-0.618610,0.009285,0.785643,0.109150,0.006264,0.018510,-47.179901,301.285950,-22.058664,,,,,,
1465826723.50,-2.469864,-0.009033,0.069297,-0.018968,0.407424,-0.010931,-0.622315,0.009033,0.782715,0.109131,-0.002517,0.019348,-46.496624,301.295959,-23.335709,,,,,,
1465826723.51,-2.467595,-0.008965,0.069253,-0.005448,0.169541,0.002283,-0.624090,0.008965,0.781301,0.111242,0.003669,0.023478,-46.496624,301.295959,-23.335709,,,,,,
1465826723.52,-2.467466,-0.009009,0.069253,0.004948,-0.034325,0.001443,-0.624190,0.009009,0.781220,0.116042,0.014108,0.017150,-46.496624,301.295959,-23.335709,,,,,,
1465826723.53,-2.476507,-0.009557,0.069227,0.016395,-0.235068,0.010166,-0.617098,0.009557,0.786828,0.098574,0.004772,0.022727,-46.369080,301.297668,-23.566456,,,,,,
1465826723.54,-2.480318,-0.009784,0.069277,0.023610,-0.430435,0.008205,-0.614094,0.009784,0.789172,0.100269,0.013852,0.008160,-46.369080,301.297668,-23.566456,,,,,,
1465826723.55,-2.486130,-0.010131,0.069376,0.036121,-0.630081,0.016921,-0.609494,0.010131,0.792726,0.087201,0.010499,0.012771,-46.369080,301.297668,-23.566456,,,,,,
1465826723.56,-2.493801,-0.010565,0.069497,0.044418,-0.809524,0.015925,-0.603393,0.010565,0.797374,0.083709,0.015268,0.005727,-46.613304,301.303406,-23.004072,,,,,,
1465826723.57,-2.503277,-0.011120,0.069640,0.049537,-0.967744,0.020116,-0.595807,0.011120,0.803051,0.068448,0.019184,-0.000530,-46.613304,301.303406,-23.004072,,,,,,
1465826723.58,-2.513810,-0.011659,0.069786,0.053660,-1.076050,0.020800,-0.587312,0.011659,0.809277,0.057725,0.011077,0.007389,-46.613304,301.303406,-23.004072,,,,,,
1465826723.60,-2.536602,-0.012821,0.070083,0.057810,-1.173783,0.019288,-0.568708,0.012821,0.822440,0.028532,0.000134,0.014688,-46.887222,301.299927,-22.487835,,,,,,
1465826723.59,-2.524986,-0.012240,0.069923,0.054663,-1.129197,0.023263,-0.578227,0.012239,0.815784,0.053828,0.007902,0.017102,-46.887222,301.299927,-22.487835,,,,,,
1465826723.61,-2.548718,-0.013494,0.070267,0.067326,-1.220519,0.023848,-0.558697,0.013494,0.829262,-0.000706,0.001597,-0.011361,-46.887222,301.299927,-22.487835,,,,,,
1465826723.62,-2.560616,-0.014155,0.070404,0.060997,-1.169555,0.025651,-0.548786,0.014155,0.835843,-0.006787,-0.000651,0.006869,-47.617554,301.290436,-21.033350,,,,,,
1465826723.63,-2.571277,-0.014750,0.070492,0.052657,-1.027269,0.024750,-0.539839,0.014750,0.841639,0.002760,0.001363,0.023184,-47.617554,301.290436,-21.033350,,,,,,
1465826723.64,-2.580451,-0.015242,0.070563,0.043263,-0.883909,0.019584,-0.532091,0.015242,0.846550,0.000811,0.002443,0.013588,-47.617554,301.290436,-21.033350,,,,,,
1465826723.65,-2.588620,-0.015708,0.070608,0.039115,-0.792598,0.021136,-0.525154,0.015707,0.850862,-0.004966,0.002283,0.010283,-47.932575,301.290161,-20.308868,,,,,,
1465826723.67,-2.603295,-0.016481,0.070692,0.031780,-0.708694,0.014216,-0.512606,0.016480,0.858466,-0.003858,0.003600,-0.002097,-47.932575,301.290161,-20.308868,,,,,,
1465826723.66,-2.596132,-0.016120,0.070653,0.037062,-0.739492,0.015479,-0.518744,0.016120,0.854778,-0.000100,0.011316,-0.007091,-47.932575,301.290161,-20.308868,,,,,,
1465826723.68,-2.610090,-0.016855,0.070737,0.037149,-0.670475,0.015046,-0.506757,0.016854,0.861924,-0.005969,0.004203,0.000579,-48.342545,301.294678,-19.242332,,,,,,
1465826723.69,-2.615846,-0.017272,0.070802,0.030842,-0.611000,0.011474,-0.501784,0.017272,0.864820,-0.008668,0.001222,-0.009153,-48.342545,301.294678,-19.242332,,,,,,
1465826723.70,-2.621283,-0.017574,0.070824,0.026695,-0.518627,0.013019,-0.497072,0.017573,0.867531,-0.011503,0.007192,-0.003136,-48.489513,301.295410,-18.857002,,,,,,
1465826723.71,-2.625678,-0.017784,0.070867,0.016194,-0.410303,0.007007,-0.493253,0.017783,0.869704,-0.019824,0.004357,-0.000136,-48.489513,301.295410,-18.857002,,,,,,
1465826723.72,-2.628704,-0.017911,0.070866,0.011058,-0.263766,0.003954,-0.490618,0.017910,0.871191,-0.014356,0.018009,-0.002447,-48.489513,301.295410,-18.857002,,,,,,
1465826723.73,-2.629149,-0.018707,0.070916,-0.001526,-0.117214,-0.001234,-0.490223,0.018706,0.871396,-0.019024,0.011629,0.000323,-48.489513,301.295410,-18.857002,,,,,,
1465826723.74,-2.629281,-0.018594,0.070892,-0.013060,0.020832,-0.004240,-0.490109,0.018593,0.871463,-0.022327,-0.002510,0.010648,-48.553951,301.300781,-18.603554,,,,,,
1465826723.75,-2.628234,-0.018477,0.070869,-0.011859,0.131256,-0.003867,-0.491022,0.018476,0.870951,-0.017431,-0.008084,-0.000651,-48.553951,301.300781,-18.603554,,,,,,
1465826723.76,-2.626210,-0.018272,0.070840,-0.019188,0.223649,-0.008711,-0.492786,0.018271,0.869959,-0.016019,-0.006507,0.008306,-48.553951,301.300781,-18.603554,,,,,,
1465826723.77,-2.622684,-0.018162,0.070805,-0.019071,0.323449,-0.005079,-0.495851,0.018161,0.868218,-0.007247,0.001340,-0.000984,-48.558624,301.301453,-18.580723,,,,,,
1465826723.79,-2.614351,-0.017884,0.070679,-0.031597,0.519892,-0.008452,-0.503071,0.017883,0.864060,0.009312,0.005326,0.007385,-48.558624,301.301453,-18.580723,,,,,,
1465826723.78,-2.618800,-0.017901,0.070768,-0.027452,0.425398,-0.009985,-0.499222,0.017900,0.866289,0.000412,0.000228,0.006971,-48.558624,301.301453,-18.580723,,,,,,
1465826723.80,-2.609523,-0.017949,0.070587,-0.036827,0.586795,-0.013134,-0.507237,0.017948,0.861620,0.015705,0.008724,0.012755,-48.336304,301.306641,-19.070131,,,,,,
1465826723.81,-2.603980,-0.017366,0.070519,-0.035756,0.595281,-0.011057,-0.512010,0.017365,0.858804,0.018983,-0.006150,-0.004144,-48.336304,301.306641,-19.070131,,,,,,
1465826723.82,-2.599371,-0.017565,0.070419,-0.034698,0.585724,-0.013124,-0.515960,0.017564,0.856432,0.024032,0.011931,0.015302,-48.336304,301.306641,-19.070131,,,,,,
1465826723.83,-2.594414,-0.017227,0.070351,-0.027292,0.554913,-0.008666,-0.520203,0.017226,0.853869,0.026474,-0.001494,-0.001605,-48.336304,301.306641,-19.070131,,,,,,
1465826723.84,-2.590205,-0.016834,0.070323,-0.029434,0.526272,-0.020197,-0.523796,0.016833,0.851678,0.027107,-0.000888,0.009269,-48.336304,301.306641,-19.070131,,,,,,
1465826723.85,-2.585933,-0.017020,0.070236,-0.024149,0.519850,-0.004184,-0.527427,0.017019,0.849430,0.025901,0.010462,0.004635,-48.336304,301.306641,-19.070131,,,,,,
1465826723.87,-2.576832,-0.017451,0.070163,-0.035831,0.532608,-0.010660,-0.535133,0.017450,0.844588,0.034049,0.028601,-0.018111,-47.798702,301.322479,-20.144653,,,,,,
1465826723.86,-2.581672,-0.016968,0.070255,-0.031548,0.530523,-0.024482,-0.531043,0.016967,0.847175,0.031790,0.007676,0.003029,-47.798702,301.322479,-20.144653,,,,,,
1465826723.88,-2.572540,-0.016308,0.070119,-0.037945,0.530507,-0.020230,-0.538763,0.016307,0.842300,0.018224,-0.022289,0.036606,-47.525307,301.329651,-20.676899,,,,,,
1465826723.89,-2.567900,-0.016212,0.070073,-0.023054,0.529414,-0.012757,-0.542666,0.016212,0.839792,0.034899,0.005608,-0.008966,-47.525307,301.329651,-20.676899,,,,,,
1465826723.90,-2.563526,-0.015506,0.070028,-0.029456,0.520916,-0.011646,-0.546340,0.015506,0.837420,0.017195,-0.010806,0.025525,-47.525307,301.329651,-20.676899,,,,,,
1465826723.91,-2.559116,-0.015453,0.069985,-0.027334,0.506061,-0.016873,-0.550029,0.015452,0.835003,0.025660,0.007161,0.001530,-47.518620,301.324158,-20.772429,,,,,,
1465826723.93,-2.549669,-0.015302,0.069874,-0.030584,0.468884,-0.011319,-0.557893,0.015301,0.829772,0.015367,0.001590,0.006242,-47.518620,301.324158,-20.772429,,,,,,
1465826723.92,-2.554389,-0.015639,0.069949,-0.028429,0.482698,-0.015662,-0.553967,0.015638,0.832391,0.023129,0.016955,-0.020212,-47.518620,301.324158,-20.772429,,,,,,
1465826723.94,-2.545028,-0.015018,0.069786,-0.029525,0.467816,-0.009183,-0.561740,0.015017,0.827177,0.025486,-0.019015,0.020098,-47.235050,301.326660,-21.374191,,,,,,
1465826723.96,-2.537584,-0.014456,0.069621,-0.025315,0.435939,-0.004721,-0.567887,0.014456,0.822980,0.058945,-0.004186,0.014789,-47.235050,301.326660,-21.374191,,,,,,
1465826723.95,-2.540276,-0.014809,0.069729,-0.016747,0.474171,-0.006017,-0.565667,0.014808,0.824501,0.036004,-0.012580,0.035744,-47.235050,301.326660,-21.374191,,,,,,
1465826723.97,-2.534032,-0.014226,0.069526,-0.022260,0.323389,-0.005077,-0.570808,0.014225,0.820960,0.070427,0.038509,-0.007224,-47.080292,301.329742,-21.669775,,,,,,
1465826723.98,-2.531961,-0.014048,0.069500,-0.010744,0.163057,-0.006189,-0.572509,0.014048,0.819778,0.061721,-0.018122,0.010056,-47.080292,301.329742,-21.669775,,,,,,
1465826723.99,-2.531658,-0.014126,0.069477,0.009237,-0.013250,0.008775,-0.572756,0.014126,0.819604,0.049349,-0.027950,0.023170,-47.080292,301.329742,-21.669775,,,,,,
1465826724.00,-2.534894,-0.013997,0.069491,0.022857,-0.186346,0.012002,-0.570103,0.013997,0.821454,0.053425,-0.009709,-0.000562,-46.947403,301.336517,-21.862804,,,,,,
1465826724.01,-2.537766,-0.014237,0.069535,0.022705,-0.319050,0.005383,-0.567739,0.014236,0.823085,0.069555,0.038712,-0.026058,-46.947403,301.336517,-21.862804,,,,,,
1465826724.02,-2.541721,-0.014502,0.069594,0.026823,-0.417824,0.014522,-0.564477,0.014502,0.825321,0.039758,0.006418,0.007305,-46.947403,301.336517,-21.862804,,,,,,
1465826724.03,-2.546329,-0.014773,0.069683,0.028908,-0.471944,0.003155,-0.560666,0.014772,0.827910,0.041318,0.023192,-0.018111,-47.075455,301.334534,-21.612965,,,,,,
1465826724.04,-2.551787,-0.014923,0.069743,0.027800,-0.487906,0.014962,-0.556137,0.014922,0.830956,0.009415,-0.004317,0.004264,-47.075455,301.334534,-21.612965,,,,,,
1465826724.05,-2.556368,-0.015155,0.069848,0.023628,-0.444326,-0.001282,-0.552323,0.015155,0.833492,0.012086,0.016065,-0.011791,-47.471302,299.858368,-21.605343,,,,,,
1465826724.06,-2.560238,-0.015354,0.069890,0.017317,-0.366837,0.007806,-0.549092,0.015353,0.835621,-0.000255,0.009320,-0.013966,-47.471302,299.858368,-21.605343,,,,,,
1465826724.07,-2.563185,-0.015454,0.069919,0.008928,-0.271259,0.002940,-0.546626,0.015453,0.837234,-0.010457,-0.002239,0.013962,-47.471302,299.858368,-21.605343,,,,,,
1465826724.08,-2.564889,-0.015532,0.069941,0.006900,-0.190559,0.002432,-0.545198,0.015531,0.838163,-0.005888,-0.000577,-0.013609,-47.471302,299.858368,-21.605343,,,,,,
1465826724.09,-2.566264,-0.015607,0.069933,0.006978,-0.121554,0.006257,-0.544044,0.015606,0.838911,-0.018562,-0.021649,0.028169,-47.471302,299.858368,-21.605343,,,,,,
1465826724.10,-2.567049,-0.015686,0.069951,0.005993,-0.066325,0.000588,-0.543385,0.015685,0.839337,-0.001506,0.004991,-0.015759,-47.819427,299.852692,-20.905283,,,,,,
1465826724.12,-2.567031,-0.015424,0.069926,-0.004563,0.012247,0.003277,-0.543403,0.015423,0.839330,-0.006600,-0.006726,-0.006094,-47.819427,299.852692,-20.905283,,,,,,
1465826724.11,-2.567383,-0.015692,0.069944,-0.000345,-0.024914,0.001386,-0.543104,0.015691,0.839519,-0.005648,0.006571,0.001042,-47.819427,299.852692,-20.905283,,,,,,
1465826724.13,-2.566627,-0.015412,0.069900,-0.002379,0.050479,-0.000154,-0.543741,0.015412,0.839111,0.003489,0.007599,-0.009216,-47.831715,299.852844,-20.874969,,,,,,
1465826724.15,-2.564290,-0.015314,0.069889,-0.008621,0.159860,-0.005104,-0.545702,0.015314,0.837839,0.002977,0.011465,-0.007899,-47.831715,299.852844,-20.874969,,,,,,
1465826724.14,-2.565751,-0.015398,0.069889,-0.002318,0.102502,0.001649,-0.544477,0.015397,0.838635,-0.003283,0.000930,0.007969,-47.831715,299.852844,-20.874969,,,,,,
1465826724.16,-2.562312,-0.015730,0.069864,-0.016019,0.203398,-0.005383,-0.547354,0.015729,0.836753,0.003073,0.014697,-0.004096,-47.814713,299.852509,-20.918835,,,,,,
1465826724.17,-2.560034,-0.015523,0.069839,-0.019164,0.235265,-0.009844,-0.549261,0.015523,0.835507,0.006048,0.009899,-0.001309,-47.814713,299.852509,-20.918835,,,,,,
1465826724.18,-2.557629,-0.015261,0.069779,-0.018088,0.253300,-0.004634,-0.551271,0.015260,0.834187,0.008912,-0.001863,-0.004032,-47.814713,299.852509,-20.918835,,,,,,
1465826724.19,-2.555371,-0.014225,0.069722,-0.013824,0.263905,-0.001505,-0.553162,0.014224,0.832952,0.002960,-0.025119,0.018442,-47.678417,299.856842,-21.166336,,,,,,
1465826724.20,-2.553269,-0.013621,0.069680,-0.003174,0.270262,0.000593,-0.554915,0.013620,0.831795,0.015197,-0.016153,0.012351,-47.678417,299.856842,-21.166336,,,,,,
1465826724.21,-2.551375,-0.013415,0.069628,-0.007431,0.271322,0.000582,-0.556491,0.013415,0.830745,0.022190,-0.004549,0.015935,-47.678417,299.856842,-21.166336,,,,,,
1465826724.22,-2.549507,-0.013967,0.069581,-0.007467,0.240530,-0.000288,-0.558038,0.013966,0.829698,0.032174,0.018062,-0.009355,-47.792606,299.849091,-21.018129,,,,,,
1465826724.23,-2.548425,-0.014664,0.069520,-0.013927,0.176829,-0.003086,-0.558931,0.014663,0.829085,0.041764,0.024048,-0.011626,-47.792606,299.849091,-21.018129,,,,,,
1465826724.24,-2.548133,-0.015188,0.069469,-0.011897,0.094006,-0.003628,-0.559168,0.015188,0.828915,0.042200,0.019495,-0.012661,-47.494228,299.865784,-21.451515,,,,,,
1465826724.25,-2.548824,-0.015233,0.069437,-0.003493,0.004803,-0.001995,-0.558595,0.015232,0.829301,0.038240,0.002910,-0.002015,-47.494228,299.865784,-21.451515,,,,,,
1465826724.26,-2.550254,-0.015105,0.069435,0.003845,-0.080161,0.002803,-0.557409,0.015105,0.830101,0.030371,-0.005141,0.000969,-47.386581,299.875000,-21.560169,,,,,,
1465826724.27,-2.552386,-0.015189,0.069444,0.008027,-0.144931,0.001084,-0.555637,0.015189,0.831286,0.035069,0.000116,-0.005709,-47.386581,299.875000,-21.560169,,,,,,
1465826724.28,-2.554788,-0.015313,0.069470,0.011158,-0.190602,0.004567,-0.553638,0.015312,0.832617,0.024753,0.000313,-0.004781,-47.386581,299.875000,-21.560169,,,,,,
1465826724.29,-2.557283,-0.015534,0.069497,0.010060,-0.220328,0.002624,-0.551557,0.015533,0.833993,0.018171,0.003571,-0.008751,-47.472301,299.874237,-21.381687,,,,,,
1465826724.30,-2.559768,-0.015803,0.069526,0.010036,-0.238382,0.003802,-0.549481,0.015802,0.835357,0.011090,0.005255,-0.012572,-47.472301,299.874237,-21.381687,,,,,,
1465826724.31,-2.562154,-0.015807,0.069564,0.013239,-0.230951,0.003758,-0.547486,0.015807,0.836666,-0.000961,-0.004469,-0.000209,-47.472301,299.874237,-21.381687,,,,,,
1465826724.32,-2.564169,-0.015980,0.069625,0.014345,-0.200156,0.002502,-0.545797,0.015979,0.837765,-0.002207,0.001034,-0.005917,-47.472301,299.874237,-21.381687,,,,,,
1465826724.33,-2.565624,-0.015977,0.069649,0.010151,-0.144946,0.004280,-0.544578,0.015976,0.838558,-0.007668,-0.004365,-0.000622,-47.607437,299.873383,-21.091511,,,,,,
1465826724.34,-2.566378,-0.016253,0.069673,0.004914,-0.079104,0.001733,-0.543943,0.016253,0.838965,-0.003389,0.007231,-0.010473,-47.607437,299.873383,-21.091511,,,,,,
1465826724.35,-2.566525,-0.016531,0.069686,-0.002452,-0.017504,-0.002918,-0.543817,0.016530,0.839041,-0.003439,0.011088,-0.006903,-47.607437,299.873383,-21.091511,,,,,,
1465826724.36,-2.566040,-0.016504,0.069683,-0.005575,0.040895,-0.002222,-0.544225,0.016503,0.838777,-0.006618,0.000907,-0.004274,-47.611912,299.873108,-21.085144,,,,,,
1465826724.37,-2.565189,-0.016400,0.069662,-0.005534,0.075933,-0.001378,-0.544939,0.016399,0.838316,-0.006758,-0.002026,-0.001997,-47.611912,299.873108,-21.085144,,,,,,
1465826724.38,-2.564017,-0.016110,0.069629,-0.006563,0.107782,0.000550,-0.545924,0.016109,0.837680,-0.007345,-0.009304,0.000165,-47.611912,299.873108,-21.085144,,,,,,
1465826724.39,-2.562626,-0.016001,0.069629,-0.004389,0.136462,-0.003886,-0.547089,0.016000,0.836921,-0.000946,-0.002298,-0.002434,-47.599068,299.873260,-21.112000,,,,,,
1465826724.40,-2.561089,-0.016022,0.069606,-0.005434,0.157690,-0.000827,-0.548375,0.016021,0.836079,0.004918,0.002839,-0.004948,-47.599068,299.873260,-21.112000,,,,,,
1465826724.41,-2.559485,-0.016144,0.069569,-0.012853,0.178938,-0.004160,-0.549714,0.016143,0.835197,0.013764,0.009767,-0.005790,-47.599068,299.873260,-21.112000,,,,,,
1465826724.42,-2.557911,-0.016176,0.069525,-0.012854,0.177875,-0.004153,-0.551027,0.016175,0.834330,0.016848,0.006515,-0.005977,-47.496803,299.875916,-21.303612,,,,,,
1465826724.43,-2.556575,-0.016018,0.069480,-0.010752,0.157695,-0.002960,-0.552143,0.016018,0.833595,0.015751,-0.001720,0.002907,-47.496803,299.875916,-21.303612,,,,,,
1465826724.44,-2.555641,-0.015894,0.069442,-0.007611,0.118399,-0.000582,-0.552922,0.015893,0.833081,0.019994,-0.002389,0.000537,-47.496803,299.875916,-21.303612,,,,,,
1465826724.45,-2.555273,-0.015840,0.069421,-0.002360,0.058936,-0.001268,-0.553230,0.015839,0.832878,0.021507,-0.000824,-0.001091,-47.433048,299.879456,-21.395775,,,,,,
1465826724.46,-2.555480,-0.015993,0.069431,0.001826,0.000533,-0.000897,-0.553056,0.015992,0.832991,0.024857,0.006011,-0.008909,-47.433048,299.879456,-21.395775,,,,,,
1465826724.48,-2.557439,-0.016196,0.069415,0.001703,-0.095038,0.001832,-0.551421,0.016195,0.834070,0.020690,0.001398,-0.006296,-47.420090,299.880981,-21.403160,,,,,,
1465826724.47,-2.556247,-0.016141,0.069424,-0.000374,-0.054684,0.000512,-0.552415,0.016141,0.833413,0.025148,0.006198,-0.011803,-47.420090,299.880981,-21.403160,,,,,,
1465826724.49,-2.558932,-0.016293,0.069429,0.006987,-0.126897,0.002037,-0.550174,0.016292,0.834891,0.017810,0.001164,-0.005377,-47.420090,299.880981,-21.403160,,,,,,
1465826724.50,-2.560496,-0.016298,0.069456,0.008037,-0.136457,0.003162,-0.548868,0.016297,0.835750,0.010523,-0.003663,-0.002056,-47.420090,299.880981,-21.403160,,,,,,
1465826724.51,-2.561984,-0.016442,0.069473,0.008037,-0.138578,0.002111,-0.547623,0.016442,0.836564,0.008926,0.002784,-0.007188,-47.425377,299.884308,-21.344246,,,,,,
1465826724.52,-2.563292,-0.016647,0.069504,0.006985,-0.130080,0.000992,-0.546526,0.016646,0.837277,0.004763,0.005540,-0.011715,-47.425377,299.884308,-21.344246,,,,,,
1465826724.53,-2.564413,-0.016832,0.069523,0.003815,-0.113087,-0.000181,-0.545586,0.016832,0.837886,0.002815,0.006698,-0.012233,-47.476677,299.883331,-21.244125,,,,,,
1465826724.54,-2.565211,-0.016809,0.069535,0.004917,-0.080177,0.001742,-0.544917,0.016808,0.838322,-0.004797,-0.002969,-0.003285,-47.476677,299.883331,-21.244125,,,,,,
1465826724.55,-2.565593,-0.016708,0.069549,0.002835,-0.041950,0.001500,-0.544597,0.016707,0.838531,-0.003666,-0.006087,-0.007843,-47.476677,299.883331,-21.244125,,,,,,
1465826724.56,-2.565555,-0.016591,0.069552,0.000766,0.006894,0.001191,-0.544630,0.016591,0.838512,-0.007295,-0.006779,0.002568,-47.476677,299.883331,-21.244125,,,,,,
1465826724.57,-2.565129,-0.016563,0.069550,-0.002374,0.046189,-0.001187,-0.544988,0.016562,0.838280,0.000509,-0.001105,-0.005395,-47.528713,299.881592,-21.151800,,,,,,
1465826724.58,-2.564345,-0.016630,0.069535,-0.004459,0.073745,-0.001362,-0.545644,0.016629,0.837852,-0.001322,0.005542,-0.005958,-47.528713,299.881592,-21.151800,,,,,,
1465826724.59,-2.563394,-0.016703,0.069514,-0.008695,0.089677,-0.002531,-0.546440,0.016703,0.837332,0.002281,0.006826,-0.009069,-47.542866,299.880402,-21.137482,,,,,,
1465826724.60,-2.562354,-0.016650,0.069498,-0.007617,0.100295,-0.002596,-0.547311,0.016650,0.836764,0.001916,0.001905,-0.006335,-47.542866,299.880402,-21.137482,,,,,,
1465826724.61,-2.561370,-0.016505,0.069485,-0.005484,0.104538,-0.001556,-0.548136,0.016505,0.836227,0.004648,-0.004298,-0.001174,-47.542866,299.880402,-21.137482,,,,,,
1465826724.62,-2.560424,-0.016347,0.069474,-0.004421,0.103475,-0.001549,-0.548928,0.016346,0.835710,0.007867,-0.005222,-0.001161,-47.542866,299.880402,-21.137482,,,,,,
1465826724.63,-2.559606,-0.016255,0.069454,-0.004428,0.098165,-0.001516,-0.549612,0.016254,0.835262,0.012716,-0.002491,0.000233,-47.456284,299.883209,-21.291040,,,,,,
1465826724.64,-2.558905,-0.016285,0.069429,-0.006582,0.080112,-0.000340,-0.550197,0.016284,0.834876,0.014980,0.003812,-0.008384,-47.456284,299.883209,-21.291040,,,,,,
1465826724.65,-2.558800,-0.016401,0.069401,-0.004498,0.041887,-0.001162,-0.550284,0.016400,0.834816,0.018500,0.002048,-0.008660,-47.452320,299.882721,-21.306938,,,,,,
1465826724.66,-2.558890,-0.016360,0.069379,-0.002424,-0.000590,0.000171,-0.550209,0.016360,0.834867,0.014809,-0.000399,-0.004331,-47.452320,299.882721,-21.306938,,,,,,
1465826724.67,-2.559385,-0.016328,0.069386,0.001788,-0.039877,-0.000643,-0.549796,0.016327,0.835140,0.014059,-0.001953,-0.004299,-47.452320,299.882721,-21.306938,,,,,,
1465826724.68,-2.560149,-0.016389,0.069403,0.004948,-0.065365,0.000584,-0.549158,0.016388,0.835558,0.012796,0.000900,-0.004305,-47.452320,299.882721,-21.306938,,,,,,
1465826724.69,-2.561048,-0.016502,0.069414,0.005995,-0.080232,0.000679,-0.548405,0.016501,0.836050,0.012974,0.002969,-0.008368,-47.418438,299.886810,-21.324413,,,,,,
1465826724.70,-2.561915,-0.016589,0.069416,0.001731,-0.082356,0.001752,-0.547679,0.016588,0.836524,0.007350,0.002363,-0.008338,-47.418438,299.886810,-21.324413,,,,,,
1465826724.72,-2.563490,-0.016565,0.069432,0.004931,-0.078111,0.001729,-0.546361,0.016564,0.837386,0.000722,-0.003106,-0.005752,-47.432030,299.886871,-21.293831,,,,,,
1465826724.71,-2.562734,-0.016580,0.069425,0.001738,-0.080227,-0.000390,-0.546994,0.016579,0.836972,0.003339,-0.001397,-0.006314,-47.432030,299.886871,-21.293831,,,,,,
1465826724.73,-2.564166,-0.016556,0.069448,0.003881,-0.066430,0.001654,-0.545795,0.016555,0.837755,-0.000699,-0.002410,-0.001986,-47.432030,299.886871,-21.293831,,,,,,
1465826724.74,-2.564615,-0.016624,0.069452,0.003903,-0.048379,0.001541,-0.545418,0.016623,0.837999,0.000267,0.001764,-0.007860,-47.432030,299.886871,-21.293831,,,,,,
1465826724.75,-2.564794,-0.016734,0.069464,0.000745,-0.021829,0.000307,-0.545267,0.016734,0.838095,-0.000372,0.004522,-0.010153,-47.498241,299.885559,-21.164925,,,,,,
1465826724.76,-2.564817,-0.016770,0.069461,-0.002414,0.004721,-0.000927,-0.545248,0.016769,0.838107,0.003225,0.002899,-0.004794,-47.498241,299.885559,-21.164925,,,,,,
1465826724.77,-2.564522,-0.016704,0.069463,-0.003444,0.030208,-0.002152,-0.545495,0.016703,0.837948,-0.000816,-0.001628,-0.003948,-47.498241,299.885559,-21.164925,,,,,,
1465826724.78,-2.563957,-0.016582,0.069461,-0.003415,0.055688,-0.001248,-0.545970,0.016581,0.837641,-0.001637,-0.004542,-0.004145,-47.485249,299.885986,-21.187748,,,,,,
1465826724.79,-2.563293,-0.016533,0.069450,-0.002338,0.067365,-0.000256,-0.546526,0.016533,0.837279,0.002779,-0.001549,-0.004774,-47.485249,299.885986,-21.187748,,,,,,
1465826724.80,-2.562589,-0.016520,0.069438,-0.003393,0.072677,-0.001354,-0.547115,0.016519,0.836894,0.005504,0.000937,-0.005977,-47.485249,299.885986,-21.187748,,,,,,
1465826724.81,-2.561875,-0.016593,0.069425,-0.004463,0.068430,-0.001328,-0.547712,0.016592,0.836502,0.007353,0.006082,-0.011994,-47.483749,299.885254,-21.201069,,,,,,
1465826724.82,-2.561331,-0.016589,0.069409,-0.005536,0.059939,-0.002341,-0.548167,0.016588,0.836204,0.010203,0.002653,-0.007454,-47.483749,299.885254,-21.201069,,,,,,
1465826724.83,-2.560958,-0.016546,0.069392,-0.004489,0.047193,-0.001195,-0.548480,0.016545,0.836000,0.012011,-0.000096,-0.005067,-47.483749,299.885254,-21.201069,,,,,,
1465826724.84,-2.560801,-0.016467,0.069392,-0.001311,0.034449,-0.001112,-0.548612,0.016466,0.835915,0.014127,-0.003084,-0.001061,-47.417519,299.888336,-21.305508,,,,,,
1465826724.85,-2.560728,-0.016434,0.069400,0.000793,0.016394,0.000067,-0.548673,0.016433,0.835876,0.011594,-0.001754,-0.004241,-47.417519,299.888336,-21.305508,,,,,,
1465826724.86,-2.560808,-0.016498,0.069404,0.000768,-0.003781,0.000194,-0.548606,0.016498,0.835918,0.011588,0.002652,-0.008266,-47.433140,299.886963,-21.289635,,,,,,
1465826724.87,-2.561110,-0.016604,0.069403,-0.000320,-0.025014,-0.000738,-0.548352,0.016603,0.836083,0.013547,0.005660,-0.010475,-47.433140,299.886963,-21.289635,,,,,,
1465826724.88,-2.561578,-0.016635,0.069400,-0.000352,-0.048377,0.000473,-0.547961,0.016634,0.836339,0.008227,0.001295,-0.009282,-47.433140,299.886963,-21.289635,,,,,,
1465826724.89,-2.562215,-0.016613,0.069404,0.002829,-0.058997,0.000543,-0.547428,0.016612,0.836688,0.007801,-0.002330,-0.005603,-47.433140,299.886963,-21.289635,,,,,,
1465826724.90,-2.562865,-0.016623,0.069408,0.004955,-0.060063,0.001616,-0.546883,0.016623,0.837044,0.005761,-0.001608,-0.004326,-47.436188,299.888306,-21.264725,,,,,,
1465826724.91,-2.563422,-0.016650,0.069414,0.004965,-0.050510,0.002620,-0.546417,0.016649,0.837348,0.004501,-0.001375,-0.005362,-47.436188,299.888306,-21.264725,,,,,,
1465826724.92,-2.563834,-0.016730,0.069432,0.002857,-0.036699,0.000403,-0.546072,0.016729,0.837571,0.004919,0.002344,-0.007112,-47.458450,299.888062,-21.218246,,,,,,
1465826724.93,-2.564077,-0.016817,0.069437,0.000744,-0.026077,-0.000730,-0.545867,0.016816,0.837703,0.002517,0.003966,-0.008571,-47.458450,299.888062,-21.218246,,,,,,
1465826724.94,-2.564217,-0.016847,0.069444,-0.001374,-0.016519,-0.000792,-0.545749,0.016847,0.837779,0.001712,0.002334,-0.008510,-47.458450,299.888062,-21.218246,,,,,,
1465826724.95,-2.564273,-0.016790,0.069451,-0.000297,-0.006964,-0.000851,-0.545703,0.016789,0.837810,-0.000058,-0.002461,-0.004146,-47.450539,299.888245,-21.232937,,,,,,
1465826724.96,-2.564187,-0.016717,0.069448,-0.002408,0.010024,0.000105,-0.545776,0.016716,0.837764,0.000793,-0.003365,-0.004024,-47.450539,299.888245,-21.232937,,,,,,
1465826724.97,-2.563987,-0.016690,0.069449,-0.000260,0.024888,0.000013,-0.545943,0.016689,0.837656,0.003844,-0.001736,-0.004419,-47.462891,299.887299,-21.219227,,,,,,
1465826724.98,-2.563613,-0.016705,0.069442,-0.001305,0.039753,-0.000081,-0.546256,0.016704,0.837451,0.004249,0.001347,-0.006458,-47.462891,299.887299,-21.219227,,,,,,
1465826724.99,-2.563149,-0.016775,0.069432,-0.002356,0.049313,-0.001206,-0.546645,0.016774,0.837197,0.005721,0.005320,-0.007027,-47.462891,299.887299,-21.219227,,,,,,
1465826725.00,-2.562669,-0.016779,0.069407,-0.005552,0.049312,-0.000145,-0.547046,0.016778,0.836934,0.005924,0.002906,-0.006154,-47.436508,299.888153,-21.265648,,,,,,
1465826725.02,-2.562089,-0.016627,0.069372,-0.002386,0.027011,-0.000002,-0.547533,0.016626,0.836619,0.008303,-0.002375,-0.002711,-47.436508,299.888153,-21.265648,,,,,,
1465826725.01,-2.562296,-0.016695,0.069385,-0.004500,0.040813,0.000974,-0.547359,0.016694,0.836731,0.007305,-0.002931,-0.005036,-47.436508,299.888153,-21.265648,,,,,,
1465826725.03,-2.561937,-0.016595,0.069364,-0.001332,0.018516,0.000052,-0.547660,0.016595,0.836536,0.009269,-0.001351,-0.007892,-47.436508,299.888153,-21.265648,,,,,,
1465826725.04,-2.561897,-0.016615,0.069351,-0.002410,0.008957,0.001176,-0.547694,0.016614,0.836514,0.010051,0.001773,-0.006970,-47.423096,299.890198,-21.266825,,,,,,
1465826725.05,-2.561973,-0.016664,0.069341,-0.001357,-0.001659,0.000179,-0.547629,0.016663,0.836555,0.011207,0.003143,-0.007179,-47.423096,299.890198,-21.266825,,,,,,
1465826725.06,-2.562136,-0.016670,0.069341,-0.000304,-0.011216,0.000240,-0.547493,0.016670,0.836644,0.009255,0.000435,-0.006871,-47.423096,299.890198,-21.266825,,,,,,
1465826725.08,-2.562720,-0.016686,0.069336,-0.000327,-0.030329,0.000360,-0.547005,0.016685,0.836963,0.006752,0.000099,-0.005786,-47.406914,299.891937,-21.278585,,,,,,
1465826725.07,-2.562391,-0.016681,0.069334,-0.000314,-0.019711,0.000294,-0.547280,0.016681,0.836783,0.008202,0.000119,-0.005088,-47.406914,299.891937,-21.278585,,,,,,
1465826725.09,-2.563054,-0.016712,0.069338,0.001797,-0.034577,0.000389,-0.546725,0.016711,0.837145,0.004260,0.000180,-0.007525,-47.411121,299.892426,-21.262018,,,,,,
1465826725.10,-2.563397,-0.016792,0.069339,0.001794,-0.035642,0.001460,-0.546437,0.016791,0.837332,0.004979,0.002756,-0.008780,-47.411121,299.892426,-21.262018,,,,,,
1465826725.11,-2.563719,-0.016866,0.069342,0.000739,-0.029268,0.000355,-0.546167,0.016865,0.837507,0.005762,0.003307,-0.008268,-47.411121,299.892426,-21.262018,,,,,,
1465826725.13,-2.563979,-0.016790,0.069353,-0.000293,-0.004843,-0.000864,-0.545950,0.016789,0.837650,0.000356,-0.002476,-0.003253,-47.411251,299.893494,-21.246754,,,,,,
1465826725.12,-2.563919,-0.016842,0.069342,-0.000311,-0.017588,0.000280,-0.545999,0.016842,0.837616,0.003870,-0.001217,-0.005783,-47.411251,299.893494,-21.246754,,,,,,
1465826725.14,-2.563970,-0.016757,0.069372,0.000781,0.002589,-0.000910,-0.545957,0.016756,0.837646,0.001905,-0.002168,-0.004363,-47.411251,299.893494,-21.246754,,,,,,
1465826725.16,-2.563723,-0.016841,0.069379,-0.000270,0.013208,-0.000977,-0.546163,0.016840,0.837509,0.002462,0.003683,-0.009476,-47.431835,299.892365,-21.217110,,,,,,
1465826725.15,-2.563900,-0.016779,0.069375,0.000786,0.007895,0.000122,-0.546015,0.016778,0.837607,0.004405,0.000693,-0.007407,-47.431835,299.892365,-21.217110,,,,,,
1465826725.17,-2.563550,-0.016838,0.069381,-0.002393,0.016398,-0.002064,-0.546308,0.016837,0.837415,0.005598,0.001000,-0.009366,-47.431835,299.892365,-21.217110,,,,,,
1465826725.18,-2.563382,-0.016778,0.069361,-0.003456,0.022760,0.001089,-0.546449,0.016777,0.837324,0.006837,-0.001915,-0.006254,-47.431835,299.892365,-21.217110,,,,,,
1465826725.19,-2.563174,-0.016730,0.069346,-0.001319,0.027009,-0.000000,-0.546624,0.016729,0.837211,0.006463,-0.002142,-0.004340,-47.422050,299.891266,-21.254135,,,,,,
1465826725.20,-2.562934,-0.016705,0.069338,-0.001317,0.029132,-0.000014,-0.546825,0.016704,0.837080,0.005550,-0.000911,-0.003401,-47.422050,299.891266,-21.254135,,,,,,
1465826725.21,-2.562741,-0.016696,0.069330,-0.001321,0.025946,0.000006,-0.546987,0.016696,0.836975,0.009877,-0.000018,-0.007385,-47.422050,299.891266,-21.254135,,,,,,
1465826725.23,-2.562579,-0.016809,0.069327,-0.000287,0.000462,0.000167,-0.547122,0.016808,0.836884,0.007464,0.002692,-0.007874,-47.415051,299.892761,-21.248552,,,,,,
1465826725.22,-2.562592,-0.016773,0.069332,-0.000265,0.015334,-0.002055,-0.547111,0.016772,0.836892,0.009040,0.004392,-0.010476,-47.415051,299.892761,-21.248552,,,,,,
1465826725.24,-2.562681,-0.016806,0.069335,0.000769,-0.008030,-0.000843,-0.547036,0.016805,0.836941,0.009255,-0.000234,-0.008007,-47.415051,299.892761,-21.248552,,,,,,
1465826725.25,-2.562861,-0.016759,0.069334,-0.000305,-0.013342,0.000254,-0.546886,0.016758,0.837040,0.006496,-0.002567,-0.003513,-47.392429,299.893829,-21.284132,,,,,,
1465826725.26,-2.563041,-0.016737,0.069338,0.000761,-0.012281,0.000248,-0.546735,0.016736,0.837138,0.006925,-0.002118,-0.005229,-47.392429,299.893829,-21.284132,,,,,,
1465826725.27,-2.563215,-0.016755,0.069335,0.000761,-0.012281,0.000248,-0.546589,0.016755,0.837233,0.007115,0.000320,-0.005065,-47.465157,298.083832,-21.551895,,,,,,
1465826725.28,-2.563322,-0.016806,0.069342,-0.000302,-0.013339,-0.000811,-0.546499,0.016806,0.837291,0.004675,0.002482,-0.009547,-47.465157,298.083832,-21.551895,,,,,,
1465826725.29,-2.563479,-0.016824,0.069344,0.000755,-0.017590,0.000282,-0.546368,0.016823,0.837376,0.005169,0.000373,-0.009480,-47.465157,298.083832,-21.551895,,,,,,
1465826725.30,-2.563643,-0.016823,0.069339,0.001814,-0.020779,0.001367,-0.546231,0.016823,0.837466,0.003186,-0.000557,-0.008074,-47.470299,298.083862,-21.540361,,,,,,
1465826725.31,-2.563817,-0.016794,0.069333,-0.000308,-0.016527,0.000274,-0.546085,0.016793,0.837561,0.004459,-0.002221,-0.008857,-47.470299,298.083862,-21.540361,,,,,,
1465826725.32,-2.563937,-0.016779,0.069329,0.000766,-0.009095,0.000228,-0.545985,0.016779,0.837627,0.005305,-0.000909,-0.005764,-47.470299,298.083862,-21.540361,,,,,,
1465826725.33,-2.563955,-0.016802,0.069329,-0.000286,0.001523,0.000161,-0.545969,0.016801,0.837637,0.003733,0.001052,-0.004934,-47.479797,298.084167,-21.515118,,,,,,
1465826725.34,-2.563885,-0.016841,0.069322,-0.000277,0.010014,0.001172,-0.546028,0.016840,0.837598,0.005684,0.002035,-0.006543,-47.479797,298.084167,-21.515118,,,,,,
1465826725.35,-2.563722,-0.016876,0.069316,-0.002397,0.014269,-0.000986,-0.546164,0.016875,0.837508,0.007025,0.002870,-0.012649,-47.479797,298.084167,-21.515118,,,,,,
1465826725.36,-2.563610,-0.016835,0.069300,-0.002404,0.013198,0.002214,-0.546258,0.016834,0.837448,0.003030,-0.001758,-0.004013,-47.479797,298.084167,-21.515118,,,,,,
1465826725.38,-2.563426,-0.016822,0.069302,-0.002404,0.010018,0.000105,-0.546412,0.016821,0.837347,0.003108,-0.000662,-0.003394,-47.460060,298.085693,-21.537191,,,,,,
1465826725.37,-2.563504,-0.016841,0.069303,0.000793,0.012140,0.000095,-0.546347,0.016840,0.837390,0.007147,-0.000254,-0.008517,-47.460060,298.085693,-21.537191,,,,,,
1465826725.39,-2.563330,-0.016859,0.069301,0.000793,0.012140,0.000095,-0.546492,0.016858,0.837294,0.005828,0.001422,-0.006575,-47.460060,298.085693,-21.537191,,,,,,
1465826725.40,-2.563241,-0.016901,0.069304,-0.001333,0.013206,-0.000978,-0.546567,0.016900,0.837245,0.006634,0.003043,-0.005305,-47.450695,298.086304,-21.549181,,,,,,
1465826725.41,-2.563160,-0.016897,0.069301,0.000792,0.011078,0.000102,-0.546634,0.016897,0.837201,0.007434,-0.000265,-0.007382,-47.450695,298.086304,-21.549181,,,,,,
1465826725.42,-2.563117,-0.016866,0.069297,-0.003471,0.007895,0.000118,-0.546670,0.016865,0.837178,0.005426,-0.001164,-0.004933,-47.450695,298.086304,-21.549181,,,,,,
1465826725.44,-2.563294,-0.016806,0.069284,-0.000298,-0.009096,0.000227,-0.546523,0.016805,0.837276,0.008254,-0.001043,-0.006847,-47.440781,298.086639,-21.566910,,,,,,
1465826725.43,-2.563164,-0.016825,0.069284,-0.000290,-0.000605,0.001238,-0.546632,0.016824,0.837204,0.008759,-0.002817,-0.006821,-47.440781,298.086639,-21.566910,,,,,,
1465826725.45,-2.563419,-0.016868,0.069283,0.001828,-0.010162,0.001301,-0.546418,0.016867,0.837343,0.006653,0.002130,-0.007936,-47.440781,298.086639,-21.566910,,,,,,
1465826725.46,-2.563525,-0.016865,0.069277,-0.002429,-0.012278,-0.000819,-0.546329,0.016864,0.837401,0.005771,0.001111,-0.009703,-47.446526,298.087341,-21.544304,,,,,,
1465826725.47,-2.563691,-0.016850,0.069274,0.000764,-0.011221,0.000242,-0.546190,0.016849,0.837492,0.004885,-0.000461,-0.003690,-47.446526,298.087341,-21.544304,,,,,,
1465826725.48,-2.563780,-0.016854,0.069273,-0.000298,-0.009097,0.000227,-0.546116,0.016853,0.837540,0.006260,-0.000145,-0.009400,-47.446526,298.087341,-21.544304,,,,,,
1465826725.50,-2.563887,-0.016835,0.069274,0.000775,-0.002727,0.000188,-0.546026,0.016834,0.837599,0.005438,-0.000064,-0.009749,-47.453022,298.087677,-21.525469,,,,,,
1465826725.49,-2.563861,-0.016825,0.069271,-0.000291,-0.003788,0.000194,-0.546048,0.016824,0.837585,0.004177,-0.001291,-0.003525,-47.453022,298.087677,-21.525469,,,,,,
1465826725.51,-2.563924,-0.016861,0.069287,-0.000290,-0.004847,-0.000864,-0.545994,0.016860,0.837619,0.003178,0.001786,-0.004932,-47.453022,298.087677,-21.525469,,,,,,
1465826725.52,-2.563968,-0.016875,0.069285,-0.001355,-0.003787,0.000193,-0.545958,0.016875,0.837643,0.006331,0.001161,-0.009747,-47.459534,298.087097,-21.519207,,,,,,
1465826725.53,-2.563999,-0.016845,0.069274,-0.002411,0.001525,-0.000906,-0.545932,0.016844,0.837660,0.005878,-0.000608,-0.005247,-47.459534,298.087097,-21.519207,,,,,,
1465826725.54,-2.563967,-0.016800,0.069280,0.000787,0.004709,-0.000923,-0.545959,0.016799,0.837643,0.004898,-0.002303,-0.006314,-47.459534,298.087097,-21.519207,,,,,,
1465826725.55,-2.563874,-0.016759,0.069279,-0.001333,0.012142,-0.000971,-0.546037,0.016758,0.837593,0.004076,-0.001957,-0.004173,-47.460709,298.087585,-21.509571,,,,,,
1465826725.56,-2.563771,-0.016747,0.069283,-0.000267,0.013203,-0.000977,-0.546124,0.016746,0.837537,0.006863,-0.000145,-0.007215,-47.460709,298.087585,-21.509571,,,,,,
1465826725.57,-2.563693,-0.016740,0.069265,-0.003469,0.008955,0.000111,-0.546189,0.016740,0.837495,0.006333,0.000884,-0.006532,-47.460709,298.087585,-21.509571,,,,,,
1465826725.58,-2.563642,-0.016759,0.069264,-0.001329,0.005700,0.000133,-0.546232,0.016759,0.837466,0.006956,0.001430,-0.009952,-47.468842,298.087219,-21.496574,,,,,,
1465826725.59,-2.563596,-0.016749,0.069263,-0.001332,0.003577,0.000146,-0.546271,0.016748,0.837441,0.005805,-0.000254,-0.008797,-47.468842,298.087219,-21.496574,,,,,,
1465826725.60,-2.563620,-0.016694,0.069261,-0.001334,0.000394,-0.000898,-0.546251,0.016693,0.837455,0.005968,-0.002869,-0.006706,-47.468842,298.087219,-21.496574,,,,,,
1465826725.61,-2.563647,-0.016645,0.069265,0.000798,0.002517,-0.000909,-0.546229,0.016644,0.837471,0.006556,-0.002988,-0.004417,-47.464775,298.087402,-21.503019,,,,,,
1465826725.62,-2.563617,-0.016651,0.069274,-0.002392,0.005704,-0.000933,-0.546253,0.016650,0.837454,0.004673,0.000379,-0.006980,-47.464775,298.087402,-21.503019,,,,,,
1465826725.63,-2.563621,-0.016672,0.069275,-0.000268,-0.000666,-0.001955,-0.546251,0.016671,0.837456,0.006364,0.001289,-0.007836,-47.483322,298.086487,-21.474930,,,,,,
1465826725.64,-2.563677,-0.016694,0.069276,0.000787,-0.004919,0.000202,-0.546203,0.016693,0.837486,0.006805,0.001404,-0.007469,-47.483322,298.086487,-21.474930,,,,,,
1465826725.65,-2.563765,-0.016697,0.069288,0.000787,-0.007040,-0.000849,-0.546129,0.016696,0.837535,0.005632,-0.000095,-0.006800,-47.483322,298.086487,-21.474930,,,,,,
1465826725.66,-2.563848,-0.016675,0.069290,0.000782,-0.009167,0.000228,-0.546060,0.016674,0.837580,0.003061,-0.001873,-0.005259,-47.483322,298.086487,-21.474930,,,,,,
1465826725.68,-2.563949,-0.016645,0.069285,-0.000272,-0.001731,-0.000884,-0.545976,0.016644,0.837636,0.004808,-0.000241,-0.007771,-47.483013,298.085754,-21.485931,,,,,,
1465826725.67,-2.563929,-0.016648,0.069288,0.000783,-0.005984,0.001273,-0.545992,0.016647,0.837625,0.004397,-0.002334,-0.005105,-47.483013,298.085754,-21.485931,,,,,,
1465826725.69,-2.563916,-0.016642,0.069280,-0.002397,0.001456,-0.000906,-0.546003,0.016642,0.837618,0.003874,0.001196,-0.008455,-47.494621,298.085327,-21.465864,,,,,,
1465826725.70,-2.563867,-0.016634,0.069276,-0.000263,0.004640,-0.000924,-0.546045,0.016634,0.837591,0.005609,0.000136,-0.008825,-47.494621,298.085327,-21.465864,,,,,,
1465826725.71,-2.563827,-0.016642,0.069285,0.000797,0.001455,-0.000903,-0.546078,0.016641,0.837569,0.004269,0.000449,-0.008681,-47.494621,298.085327,-21.465864,,,,,,
1465826725.72,-2.563826,-0.016558,0.069284,-0.001331,0.002517,-0.000912,-0.546079,0.016557,0.837570,0.004331,-0.004548,-0.005661,-47.494621,298.085327,-21.465864,,,,,,
1465826725.73,-2.563784,-0.016517,0.069280,0.000793,0.001449,0.001226,-0.546115,0.016516,0.837547,0.003543,-0.002890,-0.008949,-47.492699,298.085449,-21.468866,,,,,,
1465826725.74,-2.563754,-0.016531,0.069276,-0.001332,0.003576,0.000146,-0.546140,0.016530,0.837531,0.005430,0.001430,-0.008246,-47.492699,298.085449,-21.468866,,,,,,
1465826725.75,-2.563736,-0.016550,0.069267,-0.002397,0.004636,0.001203,-0.546155,0.016549,0.837521,0.006024,0.001624,-0.006085,-47.492699,298.085449,-21.468866,,,,,,
1465826725.76,-2.563687,-0.016550,0.069252,-0.001329,0.005700,0.000133,-0.546196,0.016549,0.837494,0.006783,0.000968,-0.008392,-47.501129,298.085632,-21.447281,,,,,,
1465826725.77,-2.563629,-0.016533,0.069260,-0.000262,0.005702,-0.000931,-0.546245,0.016532,0.837463,0.005519,-0.000282,-0.007796,-47.501129,298.085632,-21.447281,,,,,,
1465826725.78,-2.563624,-0.016473,0.069247,-0.000269,0.003572,0.001211,-0.546249,0.016473,0.837461,0.005478,-0.003167,-0.003904,-47.501129,298.085632,-21.447281,,,,,,
1465826725.79,-2.563652,-0.016471,0.069251,0.000795,-0.000670,-0.000890,-0.546226,0.016470,0.837476,0.005867,-0.000266,-0.005643,-47.499989,298.085876,-21.447033,,,,,,
1465826725.80,-2.563701,-0.016468,0.069247,-0.000275,-0.002796,0.000187,-0.546185,0.016467,0.837502,0.006742,-0.000277,-0.006997,-47.499989,298.085876,-21.447033,,,,,,
1465826725.81,-2.563732,-0.016477,0.069235,-0.001339,-0.002795,0.000186,-0.546159,0.016476,0.837519,0.005388,0.001255,-0.007380,-47.499989,298.085876,-21.447033,,,,,,
1465826725.82,-2.563751,-0.016461,0.069228,-0.002399,0.001452,0.000158,-0.546143,0.016460,0.837530,0.005173,-0.000026,-0.006643,-47.505081,298.086700,-21.424074,,,,,,
1465826725.83,-2.563759,-0.016450,0.069214,-0.002399,0.001452,0.000158,-0.546137,0.016450,0.837535,0.004618,-0.000291,-0.005244,-47.505081,298.086700,-21.424074,,,,,,
1465826725.84,-2.563754,-0.016413,0.069201,-0.000273,0.000386,0.001231,-0.546142,0.016412,0.837532,0.004302,-0.001885,-0.005043,-47.505081,298.086700,-21.424074,,,,,,
1465826725.85,-2.563750,-0.016396,0.069197,-0.000273,0.000386,0.001231,-0.546145,0.016396,0.837530,0.004793,-0.001442,-0.007330,-47.504784,298.087585,-21.412796,,,,,,
1465826725.86,-2.563710,-0.016413,0.069186,-0.001339,-0.000675,0.001237,-0.546178,0.016413,0.837508,0.003301,0.000570,-0.009475,-47.504784,298.087585,-21.412796,,,,,,
1465826725.87,-2.563714,-0.016439,0.069177,-0.001325,-0.002861,0.000186,-0.546175,0.016438,0.837510,0.003313,0.001964,-0.007829,-47.504784,298.087585,-21.412796,,,,,,
1465826725.88,-2.563762,-0.016439,0.069177,-0.001323,-0.002858,-0.000878,-0.546134,0.016438,0.837536,0.006751,0.000789,-0.007168,-47.496334,298.089386,-21.406086,,,,,,
1465826725.89,-2.563791,-0.016422,0.069181,0.000807,0.001382,0.001226,-0.546110,0.016421,0.837552,0.006956,-0.001178,-0.007230,-47.496334,298.089386,-21.406086,,,,,,
1465826725.90,-2.563728,-0.016370,0.069179,-0.001314,0.007754,0.001184,-0.546163,0.016369,0.837519,0.004324,-0.003124,-0.007792,-47.496334,298.089386,-21.406086,,,,,,
1465826725.91,-2.563681,-0.016386,0.069176,-0.000253,0.003509,0.000147,-0.546203,0.016385,0.837493,0.004745,0.000857,-0.007918,-47.501686,298.089081,-21.398794,,,,,,
1465826725.92,-2.563685,-0.016406,0.069183,0.000807,-0.000739,0.000175,-0.546199,0.016405,0.837495,0.005718,0.000716,-0.007996,-47.501686,298.089081,-21.398794,,,,,,
1465826725.93,-2.563668,-0.016417,0.069175,-0.002386,0.000325,0.000165,-0.546213,0.016416,0.837485,0.004252,0.001131,-0.008567,-47.501686,298.089081,-21.398794,,,,,,
1465826725.94,-2.563721,-0.016404,0.069173,0.000804,-0.004983,-0.000863,-0.546169,0.016403,0.837514,0.007122,-0.000442,-0.007787,-47.498398,298.089294,-21.402491,,,,,,
1465826725.95,-2.563764,-0.016425,0.069168,0.000806,-0.001801,0.000181,-0.546132,0.016424,0.837538,0.005498,0.000742,-0.005735,-47.498398,298.089294,-21.402491,,,,,,
1465826725.96,-2.563755,-0.016386,0.069169,0.000810,0.001385,0.000161,-0.546140,0.016385,0.837533,0.004148,-0.002622,-0.006402,-47.498398,298.089294,-21.402491,,,,,,
1465826725.97,-2.563734,-0.016375,0.069164,-0.000252,0.003509,0.000147,-0.546158,0.016374,0.837522,0.005845,-0.001161,-0.007429,-47.497505,298.089722,-21.398743,,,,,,
1465826725.98,-2.563711,-0.016393,0.069166,0.000809,0.000323,0.000168,-0.546177,0.016393,0.837509,0.004841,0.001201,-0.007782,-47.497505,298.089722,-21.398743,,,,,,
1465826725.99,-2.563719,-0.016412,0.069150,-0.002389,-0.000740,0.001236,-0.546171,0.016411,0.837513,0.005216,0.001625,-0.006870,-47.497505,298.089722,-21.398743,,,,,,
1465826726.01,-2.563787,-0.016400,0.069157,-0.000259,-0.001800,0.000180,-0.546114,0.016400,0.837550,0.004412,-0.000363,-0.007335,-47.494049,298.090546,-21.394585,,,,,,
1465826726.00,-2.563736,-0.016418,0.069154,0.000806,-0.003921,-0.000870,-0.546156,0.016417,0.837523,0.005995,0.000154,-0.009825,-47.494049,298.090546,-21.394585,,,,,,
1465826726.02,-2.563818,-0.016370,0.069165,-0.000247,0.001348,0.000160,-0.546088,0.016370,0.837568,0.005973,-0.001767,-0.005994,-47.494049,298.090546,-21.394585,,,,,,
1465826726.03,-2.563814,-0.016388,0.069167,-0.000245,0.002410,0.000154,-0.546091,0.016387,0.837565,0.006358,0.001130,-0.008128,-47.499077,298.090118,-21.389641,,,,,,
1465826726.04,-2.563738,-0.016405,0.069147,-0.003435,0.005597,0.000131,-0.546155,0.016405,0.837524,0.004284,0.002547,-0.008102,-47.499077,298.090118,-21.389641,,,,,,
1465826726.05,-2.563716,-0.016399,0.069146,-0.001309,0.001352,-0.000905,-0.546173,0.016399,0.837512,0.005340,0.000005,-0.008502,-47.499077,298.090118,-21.389641,,,,,,
1465826726.07,-2.563730,-0.016403,0.069139,-0.000249,-0.000775,0.000174,-0.546161,0.016402,0.837519,0.005832,-0.000258,-0.006739,-47.495090,298.090637,-21.391052,,,,,,
1465826726.06,-2.563707,-0.016406,0.069142,-0.001311,-0.000772,-0.000892,-0.546180,0.016405,0.837507,0.003547,0.001051,-0.006712,-47.495090,298.090637,-21.391052,,,,,,
1465826726.08,-2.563742,-0.016424,0.069135,-0.000248,0.001345,0.001225,-0.546151,0.016423,0.837526,0.004845,0.000743,-0.006929,-47.495090,298.090637,-21.391052,,,,,,
1465826726.09,-2.563765,-0.016442,0.069136,-0.000247,0.000286,0.000167,-0.546132,0.016441,0.837538,0.005940,0.001137,-0.006376,-47.493031,298.091064,-21.390158,,,,,,
1465826726.10,-2.563699,-0.016417,0.069130,-0.002370,0.005597,0.000132,-0.546187,0.016417,0.837502,0.004591,-0.000548,-0.008599,-47.493031,298.091064,-21.390158,,,,,,
1465826726.11,-2.563684,-0.016396,0.069118,-0.001308,0.003472,0.000146,-0.546200,0.016396,0.837494,0.004803,-0.000496,-0.005219,-47.486694,298.091522,-21.397648,,,,,,
1465826726.12,-2.563668,-0.016383,0.069112,-0.000244,0.002410,0.000154,-0.546213,0.016382,0.837486,0.004862,-0.000574,-0.005974,-47.486694,298.091522,-21.397648,,,,,,
1465826726.13,-2.563663,-0.016371,0.069112,0.000818,0.000286,0.000168,-0.546218,0.016370,0.837483,0.005156,-0.001051,-0.007588,-47.486694,298.091522,-21.397648,,,,,,
1465826726.14,-2.563684,-0.016384,0.069117,-0.000247,0.000286,0.000167,-0.546200,0.016383,0.837495,0.006603,0.000554,-0.008698,-47.490097,298.092163,-21.381031,,,,,,
1465826726.15,-2.563714,-0.016390,0.069118,-0.000246,-0.000773,-0.000891,-0.546175,0.016389,0.837511,0.006731,0.000426,-0.007906,-47.490097,298.092163,-21.381031,,,,,,
1465826726.16,-2.563736,-0.016385,0.069113,0.000815,-0.000779,0.001239,-0.546156,0.016384,0.837523,0.005919,-0.000821,-0.008147,-47.490097,298.092163,-21.381031,,,,,,
1465826726.17,-2.563749,-0.016382,0.069100,-0.002375,0.001349,0.000158,-0.546146,0.016382,0.837530,0.005847,0.000128,-0.006704,-47.490097,298.092163,-21.381031,,,,,,
1465826726.19,-2.563745,-0.016362,0.069100,-0.000238,0.000251,0.000167,-0.546149,0.016361,0.837528,0.003654,-0.000858,-0.006733,-47.487019,298.092896,-21.377798,,,,,,
1465826726.18,-2.563768,-0.016368,0.069104,0.000831,0.002377,-0.000909,-0.546130,0.016368,0.837541,0.007494,-0.001032,-0.007386,-47.487019,298.092896,-21.377798,,,,,,
1465826726.20,-2.563728,-0.016384,0.069105,0.000824,-0.001873,0.000182,-0.546163,0.016383,0.837518,0.003851,0.001103,-0.009180,-47.487019,298.092896,-21.377798,,,,,,
1465826726.21,-2.563751,-0.016407,0.069090,-0.000242,-0.000814,0.001239,-0.546144,0.016407,0.837531,0.006394,0.001187,-0.008200,-47.490269,298.092712,-21.372927,,,,,,
1465826726.22,-2.563773,-0.016416,0.069092,0.000825,-0.000811,0.000175,-0.546125,0.016415,0.837543,0.006941,0.000507,-0.009753,-47.490269,298.092712,-21.372927,,,,,,
1465826726.23,-2.563779,-0.016409,0.069095,-0.001301,0.000254,-0.000898,-0.546121,0.016409,0.837546,0.005257,0.000163,-0.007163,-47.480576,298.093628,-21.382355,,,,,,
1465826726.24,-2.563815,-0.016402,0.069099,-0.000235,0.001316,-0.000904,-0.546090,0.016401,0.837566,0.005533,-0.000593,-0.006038,-47.480576,298.093628,-21.382355,,,,,,
1465826726.25,-2.563806,-0.016411,0.069104,0.000830,0.002374,0.000155,-0.546098,0.016410,0.837561,0.004792,0.000360,-0.005667,-47.480576,298.093628,-21.382355,,,,,,
1465826726.26,-2.563761,-0.016404,0.069097,-0.000235,0.002374,0.000154,-0.546135,0.016404,0.837536,0.004753,0.000518,-0.007840,-47.484608,298.092926,-21.382702,,,,,,
1465826726.27,-2.563753,-0.016429,0.069092,-0.001302,0.000251,0.000167,-0.546142,0.016429,0.837532,0.004699,0.001653,-0.007805,-47.484608,298.092926,-21.382702,,,,,,
1465826726.28,-2.563756,-0.016450,0.069094,-0.000238,-0.001870,-0.000883,-0.546139,0.016449,0.837533,0.003705,0.001282,-0.008004,-47.484608,298.092926,-21.382702,,,,,,
1465826726.29,-2.563824,-0.016442,0.069087,-0.002369,-0.001872,0.000179,-0.546082,0.016441,0.837570,0.005951,-0.000251,-0.004944,-47.477375,298.093689,-21.387943,,,,,,
1465826726.30,-2.563837,-0.016428,0.069081,0.000825,-0.001873,0.000182,-0.546072,0.016427,0.837577,0.005071,-0.000634,-0.007316,-47.477375,298.093689,-21.387943,,,,,,
1465826726.31,-2.563824,-0.016430,0.069083,-0.000234,0.001315,-0.000903,-0.546082,0.016430,0.837570,0.004014,0.000233,-0.007248,-47.477375,298.093689,-21.387943,,,,,,
1465826726.32,-2.563804,-0.016421,0.069075,-0.002363,0.004496,0.001203,-0.546099,0.016420,0.837560,0.004961,-0.000093,-0.006017,-47.477375,298.093689,-21.387943,,,,,,
1465826726.33,-2.563770,-0.016423,0.069067,-0.001300,0.001313,0.000160,-0.546128,0.016423,0.837541,0.005692,0.000561,-0.009919,-47.476677,298.094147,-21.383457,,,,,,
1465826726.34,-2.563767,-0.016384,0.069060,-0.002367,0.000252,0.000165,-0.546131,0.016383,0.837540,0.002857,-0.001369,-0.004990,-47.476677,298.094147,-21.383457,,,,,,
1465826726.35,-2.563774,-0.016408,0.069065,0.000833,-0.004027,-0.000869,-0.546124,0.016407,0.837543,0.005261,0.001171,-0.009922,-47.476677,298.094147,-21.383457,,,,,,
1465826726.36,-2.563831,-0.016384,0.069072,0.000832,-0.002969,0.000189,-0.546077,0.016383,0.837575,0.003657,-0.001796,-0.003789,-47.474545,298.094940,-21.377192,,,,,,
1465826726.37,-2.563847,-0.016431,0.069073,0.001902,0.001278,0.000164,-0.546063,0.016430,0.837583,0.006024,0.001697,-0.007276,-47.474545,298.094940,-21.377192,,,,,,
1465826726.38,-2.563827,-0.016464,0.069066,-0.002350,0.004468,-0.000925,-0.546080,0.016463,0.837571,0.004713,0.002885,-0.005204,-47.474445,298.094666,-21.380844,,,,,,
1465826726.39,-2.563785,-0.016478,0.069061,-0.000226,0.002341,0.000155,-0.546115,0.016477,0.837548,0.005572,0.000933,-0.010461,-47.474445,298.094666,-21.380844,,,,,,
1465826726.40,-2.563763,-0.016476,0.069060,-0.003418,0.003404,0.000145,-0.546133,0.016475,0.837536,0.003271,0.000264,-0.005429,-47.474445,298.094666,-21.380844,,,,,,
1465826726.42,-2.563795,-0.016437,0.069050,-0.001296,-0.001906,0.000180,-0.546106,0.016436,0.837555,0.005320,-0.000200,-0.007339,-47.462440,298.095642,-21.393551,,,,,,
1465826726.41,-2.563784,-0.016455,0.069057,-0.000228,0.000217,0.000168,-0.546115,0.016454,0.837548,0.005832,-0.001302,-0.006402,-47.462440,298.095642,-21.393551,,,,,,
1465826726.43,-2.563804,-0.016421,0.069044,-0.001294,-0.000844,0.000174,-0.546099,0.016420,0.837560,0.005007,-0.000734,-0.007665,-47.462440,298.095642,-21.393551,,,,,,
1465826726.44,-2.563814,-0.016417,0.069047,-0.001293,0.000217,0.000167,-0.546091,0.016416,0.837565,0.006235,0.000261,-0.008326,-47.467926,298.096069,-21.375772,,,,,,
1465826726.45,-2.563778,-0.016427,0.069038,-0.002355,0.002342,0.000153,-0.546121,0.016426,0.837546,0.004342,0.001701,-0.008474,-47.467926,298.096069,-21.375772,,,,,,
1465826726.46,-2.563732,-0.016420,0.069033,-0.001290,0.002341,0.000154,-0.546160,0.016419,0.837520,0.005053,-0.000260,-0.009670,-47.467926,298.096069,-21.375772,,,,,,
1465826726.48,-2.563690,-0.016376,0.069034,-0.000226,0.001279,0.000162,-0.546196,0.016375,0.837498,0.004997,-0.001208,-0.007450,-47.464893,298.096436,-21.377388,,,,,,
1465826726.47,-2.563711,-0.016402,0.069035,0.000839,0.000220,-0.000895,-0.546177,0.016402,0.837509,0.003300,-0.000929,-0.007034,-47.464893,298.096436,-21.377388,,,,,,
1465826726.49,-2.563687,-0.016388,0.069028,-0.001295,-0.001906,0.000180,-0.546198,0.016387,0.837496,0.005197,0.000885,-0.008638,-47.464893,298.096436,-21.377388,,,,,,
1465826726.50,-2.563707,-0.016399,0.069020,-0.001283,0.000191,-0.000897,-0.546180,0.016399,0.837507,0.005394,0.001103,-0.006986,-47.466843,298.096619,-21.370579,,,,,,
1465826726.51,-2.563745,-0.016417,0.069012,-0.001282,0.000191,-0.000897,-0.546148,0.016417,0.837528,0.006445,0.001940,-0.006183,-47.466843,298.096619,-21.370579,,,,,,
1465826726.52,-2.563756,-0.016423,0.069010,-0.000218,0.001249,0.000162,-0.546139,0.016422,0.837533,0.004575,0.000256,-0.006234,-47.466843,298.096619,-21.370579,,,,,,
1465826726.53,-2.563756,-0.016431,0.069007,-0.000217,0.002311,0.000156,-0.546140,0.016430,0.837533,0.004682,0.000401,-0.004723,-47.459290,298.097687,-21.372486,,,,,,
1465826726.54,-2.563722,-0.016425,0.068999,-0.001283,0.001250,0.000161,-0.546168,0.016425,0.837515,0.004603,0.000116,-0.008169,-47.459290,298.097687,-21.372486,,,,,,
1465826726.55,-2.563708,-0.016446,0.068993,-0.000221,-0.000874,0.000176,-0.546179,0.016446,0.837507,0.005087,0.001377,-0.009641,-47.459290,298.097687,-21.372486,,,,,,
1465826726.56,-2.563757,-0.016482,0.068994,-0.000220,-0.001933,-0.000882,-0.546138,0.016481,0.837533,0.008235,0.002104,-0.008355,-47.449032,298.098877,-21.378378,,,,,,
1465826726.57,-2.563783,-0.016506,0.068996,-0.001285,-0.000874,0.000175,-0.546116,0.016506,0.837547,0.005620,0.001515,-0.007972,-47.449032,298.098877,-21.378378,,,,,,
1465826726.58,-2.563797,-0.016528,0.069007,0.001908,-0.001937,0.000185,-0.546104,0.016527,0.837554,0.005363,0.000502,-0.009292,-47.449032,298.098877,-21.378378,,,,,,
1465826726.59,-2.563801,-0.016514,0.069001,-0.000216,0.002311,0.000156,-0.546101,0.016513,0.837557,0.004734,-0.000598,-0.003771,-47.441551,298.099243,-21.390270,,,,,,
1465826726.60,-2.563776,-0.016493,0.068989,-0.001282,0.001250,0.000161,-0.546122,0.016493,0.837543,0.005091,-0.000501,-0.007465,-47.441551,298.099243,-21.390270,,,,,,
1465826726.61,-2.563760,-0.016491,0.068995,0.000846,0.000187,0.000170,-0.546136,0.016490,0.837534,0.003182,-0.000331,-0.007563,-47.441551,298.099243,-21.390270,,,,,,
1465826726.62,-2.563770,-0.016493,0.068986,-0.002349,-0.000873,0.000174,-0.546127,0.016492,0.837540,0.005416,0.000537,-0.008133,-47.441551,298.099243,-21.390270,,,,,,
1465826726.64,-2.563764,-0.016458,0.068972,-0.002345,0.002312,0.000154,-0.546133,0.016458,0.837537,0.004919,-0.000955,-0.008771,-47.443249,298.099182,-21.387215,,,,,,
1465826726.63,-2.563782,-0.016486,0.068983,-0.000221,-0.001936,0.000182,-0.546117,0.016486,0.837547,0.004750,-0.000464,-0.007515,-47.443249,298.099182,-21.387215,,,,,,
1465826726.65,-2.563768,-0.016466,0.068964,-0.000215,0.001252,-0.000902,-0.546129,0.016465,0.837539,0.005312,0.000899,-0.006408,-47.443249,298.099182,-21.387215,,,,,,
1465826726.66,-2.563771,-0.016496,0.068959,-0.001271,0.004404,0.001206,-0.546127,0.016496,0.837540,0.005111,0.001281,-0.005585,-47.439693,298.100586,-21.375698,,,,,,
1465826726.67,-2.563742,-0.016508,0.068958,-0.001268,0.003348,-0.000916,-0.546150,0.016507,0.837525,0.005119,0.000995,-0.007828,-47.439693,298.100586,-21.375698,,,,,,
1465826726.68,-2.563694,-0.016489,0.068945,-0.001272,0.002284,0.000155,-0.546191,0.016488,0.837499,0.005236,-0.000146,-0.009023,-47.431099,298.101166,-21.386395,,,,,,
1465826726.69,-2.563687,-0.016468,0.068947,-0.000212,-0.001964,0.000183,-0.546197,0.016468,0.837495,0.003442,-0.001148,-0.007691,-47.431099,298.101166,-21.386395,,,,,,
1465826726.70,-2.563722,-0.016437,0.068951,-0.000213,-0.004085,-0.000868,-0.546168,0.016436,0.837514,0.005244,-0.002078,-0.008138,-47.431099,298.101166,-21.386395,,,,,,
1465826726.72,-2.563663,-0.016365,0.068946,-0.001271,0.001225,-0.000903,-0.546218,0.016365,0.837484,0.002547,-0.000648,-0.007405,-47.433369,298.101471,-21.377373,,,,,,
1465826726.71,-2.563713,-0.016392,0.068952,0.001920,-0.000900,-0.000886,-0.546175,0.016391,0.837510,0.003863,-0.003055,-0.007249,-47.433369,298.101471,-21.377373,,,,,,
1465826726.73,-2.563666,-0.016379,0.068952,-0.000208,0.000163,-0.000895,-0.546215,0.016379,0.837485,0.004879,0.001108,-0.006445,-47.433369,298.101471,-21.377373,,,,,,
1465826726.75,-2.563675,-0.016404,0.068944,-0.000210,0.000160,0.000170,-0.546207,0.016404,0.837490,0.004963,0.000808,-0.005641,-47.448696,298.100494,-21.356985,,,,,,
1465826726.74,-2.563659,-0.016387,0.068951,-0.000208,0.001221,0.000163,-0.546221,0.016386,0.837481,0.004855,0.000780,-0.006853,-47.448696,298.100494,-21.356985,,,,,,
1465826726.76,-2.563707,-0.016401,0.068942,-0.000209,-0.000899,-0.000888,-0.546180,0.016401,0.837507,0.004936,0.000201,-0.005094,-47.448696,298.100494,-21.356985,,,,,,
1465826726.77,-2.563721,-0.016367,0.068944,-0.000210,0.000159,0.000169,-0.546169,0.016367,0.837515,0.003673,-0.001901,-0.005118,-47.442768,298.101105,-21.361374,,,,,,
1465826726.78,-2.563718,-0.016348,0.068941,-0.000210,0.000159,0.000169,-0.546172,0.016347,0.837513,0.005080,-0.001271,-0.008000,-47.442768,298.101105,-21.361374,,,,,,
1465826726.79,-2.563721,-0.016343,0.068928,-0.001276,0.000157,0.001233,-0.546169,0.016342,0.837515,0.005978,-0.000046,-0.008643,-47.442768,298.101105,-21.361374,,,,,,
1465826726.80,-2.563705,-0.016345,0.068917,-0.001273,0.001222,0.000162,-0.546183,0.016344,0.837506,0.003642,0.000853,-0.006650,-47.449978,298.101379,-21.341385,,,,,,
1465826726.81,-2.563706,-0.016350,0.068909,-0.001274,0.000160,0.000168,-0.546182,0.016349,0.837507,0.005914,0.000741,-0.007551,-47.449978,298.101379,-21.341385,,,,,,
1465826726.82,-2.563674,-0.016336,0.068883,-0.003400,0.004405,0.001204,-0.546209,0.016336,0.837490,0.003988,0.000144,-0.005382,-47.449978,298.101379,-21.341385,,,,,,
1465826726.83,-2.563648,-0.016327,0.068876,-0.000201,0.000132,0.000170,-0.546231,0.016326,0.837476,0.002957,-0.000823,-0.007214,-47.443584,298.102448,-21.340710,,,,,,
1465826726.84,-2.563629,-0.016317,0.068873,-0.000200,0.000132,0.000170,-0.546247,0.016316,0.837465,0.003553,0.000041,-0.006212,-47.443584,298.102448,-21.340710,,,,,,
1465826726.85,-2.563621,-0.016376,0.068869,-0.000200,0.000132,0.000170,-0.546253,0.016375,0.837460,0.004398,0.002958,-0.008069,-47.443584,298.102448,-21.340710,,,,,,
1465826726.86,-2.563586,-0.016370,0.068861,-0.001265,0.000133,0.000169,-0.546282,0.016370,0.837441,0.003771,0.000095,-0.008813,-47.427494,298.104706,-21.344778,,,,,,
1465826726.87,-2.563580,-0.016343,0.068860,-0.000197,0.001197,-0.000901,-0.546288,0.016342,0.837438,0.005882,-0.001312,-0.008382,-47.427494,298.104706,-21.344778,,,,,,
1465826726.88,-2.563558,-0.016318,0.068862,-0.002323,0.003322,-0.000917,-0.546306,0.016317,0.837427,0.004482,-0.000219,-0.006128,-47.427494,298.104706,-21.344778,,,,,,
1465826726.89,-2.563535,-0.016323,0.068857,-0.000199,0.001194,0.000163,-0.546325,0.016322,0.837414,0.004791,0.000478,-0.007961,-47.429840,298.104889,-21.336987,,,,,,
1465826726.91,-2.563525,-0.016337,0.068851,-0.001268,-0.000931,0.001240,-0.546333,0.016337,0.837409,0.004570,0.001364,-0.009955,-47.429840,298.104889,-21.336987,,,,,,
1465826726.90,-2.563543,-0.016313,0.068860,0.000863,-0.000930,0.000178,-0.546319,0.016313,0.837419,0.005486,-0.001222,-0.007951,-47.429840,298.104889,-21.336987,,,,,,
1465826726.92,-2.563559,-0.016323,0.068858,0.001926,-0.003054,0.000192,-0.546305,0.016323,0.837427,0.006312,-0.001308,-0.007669,-47.427238,298.105377,-21.336685,,,,,,
1465826726.93,-2.563583,-0.016305,0.068855,-0.000201,-0.000929,0.000177,-0.546286,0.016304,0.837440,0.005712,-0.001198,-0.007774,-47.427238,298.105377,-21.336685,,,,,,
1465826726.94,-2.563614,-0.016318,0.068859,0.001929,0.001190,0.001230,-0.546260,0.016318,0.837457,0.005198,-0.000510,-0.004510,-47.427238,298.105377,-21.336685,,,,,,
1465826726.95,-2.563611,-0.016298,0.068854,-0.001262,0.002256,0.000155,-0.546262,0.016297,0.837456,0.005094,-0.001038,-0.006188,-47.434887,298.104858,-21.326622,,,,,,
1465826726.97,-2.563563,-0.016343,0.068860,-0.001263,-0.000926,-0.000889,-0.546302,0.016342,0.837429,0.002937,0.000382,-0.007290,-47.434887,298.104858,-21.326622,,,,,,
1465826726.96,-2.563584,-0.016350,0.068859,0.000865,0.000132,0.000171,-0.546284,0.016349,0.837441,0.003956,0.002862,-0.008782,-47.434887,298.104858,-21.326622,,,,,,
1465826726.98,-2.563575,-0.016343,0.068860,-0.000199,0.000133,0.000170,-0.546292,0.016342,0.837436,0.005581,-0.000351,-0.007632,-47.429512,298.104889,-21.337782,,,,,,
1465826726.99,-2.563593,-0.016320,0.068859,-0.000191,-0.002013,-0.000881,-0.546277,0.016319,0.837445,0.005475,-0.001045,-0.008710,-47.429512,298.104889,-21.337782,,,,,,
1465826727.00,-2.563620,-0.016306,0.068851,-0.000194,-0.000958,0.001241,-0.546255,0.016305,0.837460,0.005148,-0.000405,-0.006040,-47.429512,298.104889,-21.337782,,,,,,
1465826727.01,-2.563609,-0.016308,0.068851,-0.000188,0.002231,0.000157,-0.546264,0.016307,0.837454,0.004211,-0.000209,-0.006339,-47.433632,298.104767,-21.330589,,,,,,
1465826727.02,-2.563595,-0.016301,0.068834,-0.002318,0.003291,0.001213,-0.546275,0.016300,0.837447,0.005473,-0.000324,-0.006896,-47.433632,298.104767,-21.330589,,,,,,
1465826727.03,-2.563566,-0.016329,0.068821,-0.001255,0.000108,0.000169,-0.546299,0.016329,0.837431,0.003742,0.001936,-0.007566,-47.433632,298.104767,-21.330589,,,,,,
1465826727.04,-2.563580,-0.016343,0.068818,-0.001257,-0.003075,-0.000875,-0.546287,0.016342,0.837438,0.005043,0.001374,-0.008428,-47.422104,298.106781,-21.328030,,,,,,
1465826727.06,-2.563616,-0.016306,0.068826,0.000874,-0.002014,-0.000880,-0.546257,0.016305,0.837459,0.003762,-0.000909,-0.005260,-47.422104,298.106781,-21.328030,,,,,,
1465826727.05,-2.563591,-0.016324,0.068812,-0.001256,-0.000954,0.000176,-0.546278,0.016324,0.837445,0.004515,-0.000912,-0.007367,-47.422104,298.106781,-21.328030,,,,,,
1465826727.07,-2.563603,-0.016306,0.068814,-0.000190,0.002228,0.001221,-0.546269,0.016305,0.837451,0.004841,-0.000466,-0.007632,-47.421120,298.107208,-21.324125,,,,,,
1465826727.08,-2.563607,-0.016310,0.068819,-0.000188,0.000110,-0.000894,-0.546265,0.016309,0.837453,0.005784,0.000033,-0.007146,-47.421120,298.107208,-21.324125,,,,,,
1465826727.09,-2.563579,-0.016314,0.068817,0.000876,0.001168,0.000165,-0.546288,0.016313,0.837438,0.004144,0.000151,-0.008611,-47.424999,298.106934,-21.319283,,,,,,
1465826727.10,-2.563562,-0.016305,0.068821,0.003004,0.000106,0.000173,-0.546303,0.016305,0.837429,0.002831,-0.001107,-0.004330,-47.424999,298.106934,-21.319283,,,,,,
1465826727.11,-2.563565,-0.016287,0.068817,-0.002322,-0.002015,0.000181,-0.546301,0.016287,0.837431,0.006506,-0.000509,-0.010145,-47.424999,298.106934,-21.319283,,,,,,
1465826727.12,-2.563573,-0.016236,0.068807,-0.001258,0.001164,0.002291,-0.546294,0.016235,0.837436,0.003081,-0.002960,-0.003681,-47.424999,298.106934,-21.319283,,,,,,
1465826727.13,-2.563589,-0.016242,0.068802,-0.000192,-0.000955,0.000177,-0.546281,0.016241,0.837445,0.005738,-0.000204,-0.007031,-47.427750,298.106720,-21.316845,,,,,,
1465826727.14,-2.563577,-0.016240,0.068791,-0.003372,0.003273,0.000147,-0.546291,0.016239,0.837438,0.004574,0.000561,-0.007070,-47.427750,298.106720,-21.316845,,,,,,
1465826727.15,-2.563576,-0.016259,0.068801,0.000886,0.001150,-0.000899,-0.546292,0.016258,0.837437,0.006176,0.001061,-0.008870,-47.427750,298.106720,-21.316845,,,,,,
1465826727.16,-2.563559,-0.016238,0.068797,-0.000182,0.000086,0.000171,-0.546306,0.016238,0.837428,0.004421,-0.000582,-0.007320,-47.428642,298.107300,-21.306583,,,,,,
1465826727.18,-2.563540,-0.016212,0.068792,-0.001245,0.000089,-0.000895,-0.546322,0.016211,0.837418,0.004452,0.000009,-0.007157,-47.428642,298.107300,-21.306583,,,,,,
1465826727.17,-2.563549,-0.016217,0.068793,0.000885,0.002209,0.000158,-0.546314,0.016217,0.837423,0.003498,-0.001751,-0.004583,-47.428642,298.107300,-21.306583,,,,,,
1465826727.19,-2.563572,-0.016223,0.068788,0.000878,-0.002042,0.001249,-0.546295,0.016222,0.837436,0.005524,0.000120,-0.007251,-47.432915,298.107330,-21.296265,,,,,,
1465826727.20,-2.563599,-0.016216,0.068799,0.001944,-0.004160,-0.000865,-0.546273,0.016216,0.837450,0.006509,-0.001171,-0.009356,-47.432915,298.107330,-21.296265,,,,,,
1465826727.21,-2.563617,-0.016208,0.068797,-0.000181,-0.000973,-0.000887,-0.546258,0.016208,0.837460,0.003381,-0.000094,-0.004300,-47.431179,298.107666,-21.295822,,,,,,
1465826727.22,-2.563608,-0.016211,0.068795,0.000879,-0.000980,0.001243,-0.546266,0.016210,0.837455,0.004869,0.000040,-0.008354,-47.431179,298.107666,-21.295822,,,,,,
1465826727.23,-2.563599,-0.016175,0.068800,0.000885,0.000088,-0.000893,-0.546273,0.016174,0.837451,0.004190,-0.002334,-0.006701,-47.431179,298.107666,-21.295822,,,,,,
1465826727.24,-2.563582,-0.016131,0.068794,-0.001243,0.003271,0.000149,-0.546288,0.016130,0.837442,0.004647,-0.001665,-0.005960,-47.431179,298.107666,-21.295822,,,,,,
1465826727.25,-2.563570,-0.016115,0.068793,-0.000178,0.001150,-0.000901,-0.546298,0.016114,0.837436,0.005404,-0.000612,-0.007663,-47.442711,298.106628,-21.284420,,,,,,
1465826727.26,-2.563580,-0.016132,0.068781,-0.000188,-0.003103,0.001255,-0.546289,0.016132,0.837441,0.005029,0.000516,-0.009454,-47.442711,298.106628,-21.284420,,,,,,
1465826727.27,-2.563570,-0.016123,0.068784,-0.000180,0.000089,-0.000894,-0.546298,0.016123,0.837436,0.004214,-0.000467,-0.008060,-47.442711,298.106628,-21.284420,,,,,,
1465826727.28,-2.563569,-0.016104,0.068772,-0.002307,0.003272,0.000148,-0.546299,0.016103,0.837436,0.005130,-0.000417,-0.006701,-47.446327,298.107056,-21.270285,,,,,,
1465826727.29,-2.563568,-0.016104,0.068768,-0.000180,0.001147,0.000163,-0.546300,0.016103,0.837435,0.005406,-0.000555,-0.007189,-47.446327,298.107056,-21.270285,,,,,,
1465826727.30,-2.563545,-0.016074,0.068763,-0.000183,-0.000976,0.000177,-0.546320,0.016073,0.837423,0.004022,-0.001623,-0.008016,-47.446327,298.107056,-21.270285,,,,,,
1465826727.31,-2.563530,-0.016081,0.068763,-0.001236,0.000067,-0.000895,-0.546332,0.016080,0.837415,0.004660,0.000720,-0.008618,-47.445568,298.107697,-21.263111,,,,,,
1465826727.33,-2.563464,-0.016111,0.068749,-0.000176,-0.001001,0.001242,-0.546387,0.016111,0.837378,0.003586,0.001040,-0.007987,-47.445568,298.107697,-21.263111,,,,,,
1465826727.32,-2.563482,-0.016093,0.068758,-0.000173,0.000064,0.000171,-0.546371,0.016093,0.837388,0.003448,0.000875,-0.010331,-47.445568,298.107697,-21.263111,,,,,,
1465826727.34,-2.563487,-0.016114,0.068754,0.000893,-0.000996,-0.000886,-0.546367,0.016113,0.837391,0.005245,-0.000061,-0.008365,-47.437290,298.108765,-21.266697,,,,,,
1465826727.36,-2.563480,-0.016137,0.068762,0.000898,0.003252,-0.000913,-0.546373,0.016137,0.837386,0.005418,0.002128,-0.006530,-47.437290,298.108765,-21.266697,,,,,,
1465826727.35,-2.563486,-0.016098,0.068757,-0.001233,0.002191,-0.000908,-0.546368,0.016097,0.837390,0.004208,-0.000411,-0.004779,-47.437290,298.108765,-21.266697,,,,,,
1465826727.37,-2.563502,-0.016186,0.068762,-0.000171,0.001125,0.000164,-0.546354,0.016185,0.837398,0.004697,0.002019,-0.005748,-47.442039,298.108215,-21.263657,,,,,,
1465826727.39,-2.563490,-0.016168,0.068758,-0.000172,0.000064,0.000171,-0.546365,0.016168,0.837391,0.004708,-0.001580,-0.006733,-47.442039,298.108215,-21.263657,,,,,,
1465826727.38,-2.563486,-0.016199,0.068770,0.000891,-0.000999,0.000179,-0.546368,0.016198,0.837389,0.004238,0.000312,-0.008806,-47.442039,298.108215,-21.263657,,,,,,
1465826727.40,-2.563525,-0.016152,0.068762,0.000893,-0.000996,-0.000886,-0.546335,0.016151,0.837411,0.005350,-0.001182,-0.005410,-47.430752,298.108765,-21.281101,,,,,,
1465826727.41,-2.563521,-0.016176,0.068773,0.000896,0.001128,-0.000899,-0.546339,0.016175,0.837408,0.004850,0.000731,-0.007284,-47.430752,298.108765,-21.281101,,,,,,
1465826727.42,-2.563494,-0.016189,0.068771,-0.000168,0.003249,0.000151,-0.546361,0.016188,0.837394,0.005574,0.000612,-0.008399,-47.433949,298.108063,-21.284109,,,,,,
1465826727.43,-2.563466,-0.016203,0.068776,-0.000170,0.001125,0.000164,-0.546384,0.016202,0.837378,0.004697,0.000628,-0.008994,-47.433949,298.108063,-21.284109,,,,,,
1465826727.44,-2.563471,-0.016205,0.068778,-0.000172,0.000064,0.000171,-0.546380,0.016204,0.837381,0.005151,0.000168,-0.007867,-47.433949,298.108063,-21.284109,,,,,,
1465826727.45,-2.563458,-0.016190,0.068764,-0.001241,-0.002062,0.001248,-0.546391,0.016189,0.837374,0.003224,-0.001113,-0.008608,-47.433949,298.108063,-21.284109,,,,,,
1465826727.47,-2.563469,-0.016145,0.068748,-0.001231,-0.002079,0.000183,-0.546382,0.016144,0.837380,0.005062,-0.001023,-0.006997,-47.428288,298.108582,-21.289009,,,,,,
1465826727.46,-2.563451,-0.016169,0.068756,-0.001228,0.000045,0.000170,-0.546397,0.016169,0.837370,0.004511,-0.000773,-0.007048,-47.428288,298.108582,-21.289009,,,,,,
1465826727.48,-2.563463,-0.016125,0.068746,-0.000162,0.000047,-0.000893,-0.546388,0.016124,0.837377,0.005372,-0.000209,-0.008840,-47.428288,298.108582,-21.289009,,,,,,
1465826727.49,-2.563448,-0.016103,0.068742,-0.001225,0.001110,-0.000901,-0.546400,0.016103,0.837370,0.004103,-0.000646,-0.006651,-47.431656,298.109100,-21.274725,,,,,,
1465826727.50,-2.563441,-0.016091,0.068747,-0.000164,0.000045,0.000171,-0.546406,0.016090,0.837366,0.004628,-0.000969,-0.007837,-47.431656,298.109100,-21.274725,,,,,,
1465826727.51,-2.563442,-0.016095,0.068747,-0.000163,-0.001014,-0.000887,-0.546405,0.016094,0.837366,0.003482,0.000599,-0.006296,-47.431656,298.109100,-21.274725,,,,,,
1465826727.52,-2.563420,-0.016107,0.068736,-0.001228,0.000045,0.000170,-0.546424,0.016106,0.837354,0.003668,0.001396,-0.006849,-47.438976,298.108734,-21.263300,,,,,,
1465826727.53,-2.563426,-0.016119,0.068748,-0.000161,0.000047,-0.000893,-0.546418,0.016119,0.837357,0.005876,0.000437,-0.008241,-47.438976,298.108734,-21.263300,,,,,,
1465826727.54,-2.563424,-0.016120,0.068755,-0.001227,-0.001014,-0.000888,-0.546420,0.016120,0.837356,0.004748,0.000268,-0.008606,-47.438976,298.108734,-21.263300,,,,,,
1465826727.55,-2.563431,-0.016131,0.068761,0.000902,0.000044,0.000172,-0.546414,0.016130,0.837360,0.005765,0.000837,-0.008060,-47.435020,298.108856,-21.270412,,,,,,
1465826727.56,-2.563456,-0.016113,0.068756,-0.001228,0.000045,0.000170,-0.546393,0.016112,0.837374,0.005790,-0.000929,-0.006121,-47.435020,298.108856,-21.270412,,,,,,
1465826727.57,-2.563453,-0.016101,0.068762,-0.000158,0.002171,-0.000907,-0.546396,0.016100,0.837372,0.005274,-0.000475,-0.006623,-47.435020,298.108856,-21.270412,,,,,,
1465826727.58,-2.563404,-0.016093,0.068758,-0.000159,0.003230,0.000151,-0.546437,0.016092,0.837346,0.004735,-0.000330,-0.009007,-47.442173,298.108002,-21.266729,,,,,,
1465826727.59,-2.563381,-0.016102,0.068760,-0.000162,0.001106,0.000165,-0.546456,0.016101,0.837333,0.004418,0.000607,-0.007468,-47.442173,298.108002,-21.266729,,,,,,
1465826727.60,-2.563364,-0.016119,0.068752,-0.001227,0.000045,0.000170,-0.546470,0.016118,0.837323,0.004600,0.001384,-0.008283,-47.442173,298.108002,-21.266729,,,,,,
1465826727.61,-2.563366,-0.016099,0.068744,-0.000167,-0.003141,0.000191,-0.546469,0.016099,0.837324,0.003012,-0.000718,-0.007307,-47.439800,298.108124,-21.270103,,,,,,
1465826727.62,-2.563387,-0.016114,0.068736,-0.002295,-0.002078,0.000182,-0.546451,0.016113,0.837336,0.004840,0.001282,-0.006770,-47.439800,298.108124,-21.270103,,,,,,
1465826727.63,-2.563431,-0.016091,0.068734,-0.000153,-0.001033,-0.000886,-0.546414,0.016091,0.837361,0.006894,-0.001030,-0.006947,-47.439800,298.108124,-21.270103,,,,,,
1465826727.64,-2.563414,-0.016061,0.068735,0.001975,0.001083,0.001232,-0.546429,0.016060,0.837351,0.004849,-0.002190,-0.007578,-47.436264,298.109344,-21.260885,,,,,,
1465826727.65,-2.563386,-0.016073,0.068733,-0.001218,0.000026,0.000171,-0.546452,0.016073,0.837336,0.004567,0.000605,-0.009348,-47.436264,298.109344,-21.260885,,,,,,
1465826727.66,-2.563405,-0.016079,0.068728,-0.000155,-0.001036,0.000179,-0.546437,0.016078,0.837346,0.007054,0.000402,-0.008840,-47.436264,298.109344,-21.260885,,,,,,
1465826727.67,-2.563404,-0.016081,0.068736,-0.001214,0.000032,-0.001958,-0.546437,0.016080,0.837346,0.001210,0.000888,-0.002995,-47.437908,298.109253,-21.258404,,,,,,
1465826727.68,-2.563412,-0.016086,0.068731,0.000913,0.001087,0.000166,-0.546430,0.016085,0.837350,0.006666,0.000395,-0.008203,-47.437908,298.109253,-21.258404,,,,,,
1465826727.69,-2.563404,-0.016064,0.068742,-0.000151,0.000029,-0.000893,-0.546437,0.016063,0.837346,0.003438,-0.000865,-0.006612,-47.437908,298.109253,-21.258404,,,,,,
1465826727.71,-2.563389,-0.016065,0.068754,0.000913,0.000028,-0.000892,-0.546450,0.016064,0.837338,0.005190,0.000095,-0.011456,-47.442039,298.108734,-21.256542,,,,,,
1465826727.70,-2.563422,-0.016054,0.068745,0.001971,-0.002102,0.001252,-0.546422,0.016054,0.837356,0.004781,-0.001222,-0.007675,-47.442039,298.108734,-21.256542,,,,,,
1465826727.72,-2.563410,-0.016024,0.068748,-0.001218,0.000026,0.000171,-0.546433,0.016023,0.837350,0.003525,-0.002229,-0.003686,-47.442039,298.108734,-21.256542,,,,,,
1465826727.73,-2.563397,-0.016037,0.068752,0.001976,0.000025,0.000174,-0.546443,0.016036,0.837343,0.007854,0.000031,-0.011689,-47.444504,298.108154,-21.259527,,,,,,
1465826727.75,-2.563413,-0.015986,0.068748,-0.000149,0.000032,-0.001957,-0.546431,0.015986,0.837352,0.005903,-0.000666,-0.010035,-47.444504,298.108154,-21.259527,,,,,,
1465826727.74,-2.563417,-0.015999,0.068733,-0.002286,-0.001038,0.001241,-0.546427,0.015998,0.837354,0.002909,-0.001396,-0.002897,-47.444504,298.108154,-21.259527,,,,,,
1465826727.77,-2.563470,-0.015982,0.068753,-0.000155,-0.003157,-0.000873,-0.546383,0.015981,0.837383,0.006283,-0.000326,-0.007229,-47.456249,298.107788,-21.237703,,,,,,
1465826727.78,-2.563492,-0.015995,0.068750,-0.000152,0.001087,0.000165,-0.546364,0.015994,0.837395,0.006112,0.000623,-0.006966,-47.456249,298.107788,-21.237703,,,,,,
1465826727.76,-2.563416,-0.015995,0.068750,-0.001219,-0.001036,0.000177,-0.546428,0.015995,0.837353,0.003856,0.000607,-0.006695,-47.456249,298.107788,-21.237703,,,,,,
1465826727.79,-2.563468,-0.015958,0.068749,-0.002279,0.001091,-0.000902,-0.546385,0.015957,0.837382,0.003187,-0.001126,-0.006877,-47.459549,298.107452,-21.234755,,,,,,
1465826727.80,-2.563429,-0.015968,0.068748,-0.000151,0.000029,-0.000893,-0.546417,0.015968,0.837361,0.003158,0.000939,-0.008351,-47.459549,298.107452,-21.234755,,,,,,
1465826727.81,-2.563415,-0.015990,0.068754,-0.000150,0.002149,0.000158,-0.546429,0.015989,0.837353,0.003323,0.001085,-0.007183,-47.459549,298.107452,-21.234755,,,,,,
,,,,,,,,,,,,,,,,29.719974,-95.399018,10.585026,-1.000000,-1.000000,1465826957.80
1465826727.82,-2.563386,-0.015957,0.068761,0.001987,-0.001054,-0.000883,-0.546454,0.015956,0.837337,0.003119,-0.001735,-0.008465,-47.457253,298.107513,-21.239553,,,,,,
1465826727.83,-2.563385,-0.015974,0.068756,-0.001208,0.000006,0.000171,-0.546454,0.015973,0.837337,0.005225,0.001102,-0.008098,-47.457253,298.107513,-21.239553,,,,,,
1465826727.84,-2.563390,-0.015996,0.068753,-0.000141,0.001068,0.000166,-0.546450,0.015996,0.837339,0.005144,0.001247,-0.005628,-47.457253,298.107513,-21.239553,,,,,,
1465826727.85,-2.563358,-0.015985,0.068743,-0.002269,0.002131,0.000157,-0.546477,0.015984,0.837322,0.004119,0.000007,-0.007472,-47.459827,298.107269,-21.237202,,,,,,
1465826727.86,-2.563366,-0.015982,0.068733,-0.000145,0.000003,0.001237,-0.546470,0.015981,0.837326,0.004844,-0.000189,-0.005966,-47.459827,298.107269,-21.237202,,,,,,
1465826727.87,-2.563340,-0.015986,0.068744,0.001986,-0.002116,-0.000877,-0.546491,0.015986,0.837312,0.004270,-0.000528,-0.009294,-47.459827,298.107269,-21.237202,,,,,,
1465826727.88,-2.563342,-0.015973,0.068746,0.001984,-0.002119,0.000188,-0.546490,0.015973,0.837313,0.003949,-0.001843,-0.006487,-47.453938,298.107941,-21.240614,,,,,,
1465826727.89,-2.563335,-0.015981,0.068744,-0.001206,0.001068,0.000165,-0.546496,0.015980,0.837309,0.004870,0.000331,-0.008207,-47.453938,298.107941,-21.240614,,,,,,
1465826727.90,-2.563333,-0.015962,0.068727,-0.001208,0.001065,0.001229,-0.546498,0.015961,0.837308,0.005101,-0.001054,-0.006879,-47.453938,298.107941,-21.240614,,,,,,
1465826727.91,-2.563317,-0.015984,0.068719,-0.000145,0.000003,0.001237,-0.546511,0.015984,0.837299,0.004595,0.000572,-0.008167,-47.453938,298.107941,-21.240614,,,,,,
1465826727.92,-2.563358,-0.015974,0.068712,0.000921,-0.001057,0.000180,-0.546477,0.015973,0.837322,0.005324,-0.000897,-0.003826,-47.453938,298.107941,-21.240614,,,,,,
1465826727.93,-2.563348,-0.015968,0.068707,-0.001203,0.003192,0.000151,-0.546485,0.015967,0.837317,0.005836,-0.000205,-0.008230,-47.453938,298.107941,-21.240614,,,,,,
1465826727.94,-2.563335,-0.015977,0.068714,-0.001202,0.002133,-0.000907,-0.546496,0.015977,0.837309,0.004458,0.000778,-0.007033,-47.447674,298.109772,-21.229603,,,,,,
1465826727.95,-2.563350,-0.015997,0.068720,-0.001207,-0.002114,-0.000880,-0.546483,0.015997,0.837317,0.005742,0.001383,-0.007728,-47.447674,298.109772,-21.229603,,,,,,
1465826727.96,-2.563349,-0.015998,0.068720,-0.001205,0.000009,-0.000893,-0.546484,0.015998,0.837317,0.006171,0.001474,-0.008490,-47.447674,298.109772,-21.229603,,,,,,
1465826727.97,-2.563370,-0.016008,0.068720,0.000920,-0.002118,0.000187,-0.546467,0.016008,0.837328,0.004917,0.000197,-0.007570,-47.446289,298.109283,-21.238949,,,,,,
1465826727.98,-2.563363,-0.016025,0.068733,0.000924,-0.001054,-0.000884,-0.546472,0.016024,0.837324,0.002985,0.000684,-0.006452,-47.446289,298.109283,-21.238949,,,,,,
1465826727.99,-2.563328,-0.016014,0.068721,-0.004393,0.006379,0.000128,-0.546502,0.016013,0.837305,0.005486,0.000726,-0.006952,-47.446289,298.109283,-21.238949,,,,,,
1465826728.00,-2.563297,-0.016011,0.068705,-0.001201,0.004253,0.000145,-0.546528,0.016011,0.837288,0.004749,0.000362,-0.006630,-47.443268,298.109406,-21.244219,,,,,,
1465826728.01,-2.563282,-0.016007,0.068700,-0.001193,0.001052,-0.000899,-0.546540,0.016006,0.837280,0.005585,-0.000152,-0.008942,-47.443268,298.109406,-21.244219,,,,,,
1465826728.02,-2.563278,-0.016012,0.068689,-0.001195,0.001049,0.000165,-0.546543,0.016012,0.837278,0.004795,0.001032,-0.005537,-47.443268,298.109406,-21.244219,,,,,,
1465826728.03,-2.563341,-0.016039,0.068712,0.000933,-0.002135,-0.000877,-0.546490,0.016038,0.837312,0.004788,-0.000230,-0.006303,-47.438385,298.110382,-21.241329,,,,,,
1465826728.05,-2.563400,-0.016039,0.068723,0.000935,0.001048,0.000168,-0.546441,0.016038,0.837344,0.005913,-0.001466,-0.007236,-47.438385,298.110382,-21.241329,,,,,,
1465826728.04,-2.563394,-0.016057,0.068722,-0.001195,-0.001072,-0.000886,-0.546446,0.016056,0.837340,0.004667,0.000347,-0.005477,-47.438385,298.110382,-21.241329,,,,,,
1465826728.07,-2.563382,-0.016071,0.068730,0.000931,-0.000017,0.001239,-0.546456,0.016071,0.837334,0.005227,0.001034,-0.006538,-47.441147,298.109528,-21.247452,,,,,,
1465826728.06,-2.563379,-0.016047,0.068730,-0.000128,0.001051,-0.000898,-0.546459,0.016047,0.837332,0.004909,0.000707,-0.008078,-47.441147,298.109528,-21.247452,,,,,,
1465826728.08,-2.563400,-0.016059,0.068717,-0.001197,-0.001075,0.000179,-0.546441,0.016058,0.837344,0.005227,-0.000524,-0.006625,-47.441147,298.109528,-21.247452,,,,,,
1465826728.09,-2.563418,-0.016081,0.068715,-0.000130,0.001048,0.000167,-0.546425,0.016080,0.837354,0.005272,0.001193,-0.006131,-47.437378,298.109375,-21.257616,,,,,,
1465826728.10,-2.563428,-0.016117,0.068738,0.004120,-0.006387,0.000217,-0.546417,0.016116,0.837358,0.003601,0.000287,-0.007952,-47.437378,298.109375,-21.257616,,,,,,
1465826728.11,-2.563401,-0.016144,0.068743,-0.000125,0.001040,0.000167,-0.546439,0.016144,0.837343,0.004264,0.001389,-0.009508,-47.437378,298.109375,-21.257616,,,,,,
1465826728.13,-2.563366,-0.016184,0.068750,-0.000129,-0.001087,0.001245,-0.546468,0.016183,0.837324,0.002904,0.001257,-0.008268,-47.429245,298.109283,-21.277061,,,,,,
1465826728.14,-2.563343,-0.016177,0.068750,-0.002254,0.001041,0.000165,-0.546488,0.016176,0.837311,0.004343,-0.000124,-0.008621,-47.429245,298.109283,-21.277061,,,,,,
1465826728.12,-2.563396,-0.016153,0.068753,0.000939,-0.001081,-0.000883,-0.546444,0.016153,0.837340,0.003551,0.000495,-0.007170,-47.429245,298.109283,-21.277061,,,,,,
1465826728.15,-2.563320,-0.016146,0.068745,-0.000129,-0.001086,0.001245,-0.546507,0.016145,0.837299,0.002898,-0.001695,-0.007526,-47.429245,298.109283,-21.277061,,,,,,
1465826728.16,-2.563347,-0.016153,0.068739,-0.001193,-0.002145,0.000186,-0.546485,0.016152,0.837313,0.004889,0.000083,-0.007556,-47.429245,298.109283,-21.277061,,,,,,
1465826728.17,-2.563366,-0.016158,0.068732,-0.001191,0.001038,0.001230,-0.546468,0.016158,0.837324,0.005285,0.000032,-0.005995,-47.429245,298.109283,-21.277061,,,,,,
1465826728.18,-2.563356,-0.016168,0.068722,-0.001193,-0.000024,0.001237,-0.546477,0.016167,0.837318,0.004851,0.000496,-0.008003,-47.423252,298.110016,-21.280289,,,,,,
1465826728.19,-2.563364,-0.016165,0.068726,-0.000124,-0.000019,-0.000891,-0.546470,0.016164,0.837323,0.004371,0.000331,-0.006390,-47.423252,298.110016,-21.280289,,,,,,
1465826728.20,-2.563385,-0.016152,0.068731,-0.000125,-0.003201,-0.001935,-0.546453,0.016151,0.837334,0.004842,0.000176,-0.006371,-47.423252,298.110016,-21.280289,,,,,,
1465826728.21,-2.563372,-0.016161,0.068737,-0.000124,0.001040,0.000167,-0.546463,0.016160,0.837327,0.005814,0.000243,-0.009721,-47.423252,298.110016,-21.280289,,,,,,
1465826728.22,-2.563368,-0.016128,0.068738,-0.002250,0.002106,-0.000906,-0.546467,0.016127,0.837325,0.004521,-0.001173,-0.006270,-47.424267,298.109772,-21.281372,,,,,,
1465826728.23,-2.563354,-0.016123,0.068739,0.000938,-0.001084,0.000181,-0.546479,0.016122,0.837318,0.004991,-0.000711,-0.009193,-47.424267,298.109772,-21.281372,,,,,,
1465826728.24,-2.563402,-0.016131,0.068745,0.000940,-0.001081,-0.000883,-0.546439,0.016130,0.837344,0.006369,0.000685,-0.005755,-47.424267,298.109772,-21.281372,,,,,,
1465826728.25,-2.563390,-0.016114,0.068746,-0.001188,-0.000018,-0.000892,-0.546448,0.016113,0.837338,0.003998,-0.000259,-0.006756,-47.424267,298.109772,-21.281372,,,,,,
1465826728.26,-2.563393,-0.016127,0.068745,-0.001193,-0.002145,0.000186,-0.546446,0.016126,0.837339,0.003965,0.001101,-0.007551,-47.424267,298.109772,-21.281372,,,,,,
1465826728.27,-2.563383,-0.016107,0.068743,-0.000116,0.001026,0.000168,-0.546455,0.016107,0.837334,0.003990,-0.001290,-0.006721,-47.434608,298.108917,-21.270254,,,,,,
1465826728.29,-2.563351,-0.016139,0.068733,0.000947,-0.000036,0.000176,-0.546481,0.016139,0.837316,0.001605,0.000570,-0.004614,-47.434608,298.108917,-21.270254,,,,,,
1465826728.28,-2.563382,-0.016125,0.068740,-0.003306,0.004213,0.000145,-0.546456,0.016125,0.837333,0.006783,0.001637,-0.007041,-47.434608,298.108917,-21.270254,,,,,,
1465826728.30,-2.563352,-0.016131,0.068733,-0.002242,0.002092,-0.000905,-0.546481,0.016130,0.837316,0.006060,-0.000200,-0.008123,-47.426506,298.109772,-21.276501,,,,,,
1465826728.31,-2.563350,-0.016157,0.068726,-0.000121,-0.001100,0.001246,-0.546482,0.016156,0.837315,0.004139,0.001193,-0.007756,-47.426506,298.109772,-21.276501,,,,,,
1465826728.32,-2.563352,-0.016129,0.068732,0.000947,-0.002157,-0.000875,-0.546481,0.016129,0.837316,0.003573,-0.001831,-0.007055,-47.421871,298.110260,-21.279762,,,,,,
1465826728.33,-2.563369,-0.016107,0.068724,-0.001184,-0.000038,0.001238,-0.546466,0.016106,0.837326,0.005267,-0.000909,-0.006241,-47.421871,298.110260,-21.279762,,,,,,
1465826728.34,-2.563362,-0.016110,0.068736,0.000950,-0.000033,-0.000889,-0.546472,0.016110,0.837322,0.004343,-0.000134,-0.008053,-47.429653,298.110016,-21.266037,,,,,,
1465826728.35,-2.563361,-0.016097,0.068736,-0.000116,0.001026,0.000168,-0.546473,0.016097,0.837322,0.004832,-0.000457,-0.006893,-47.429653,298.110016,-21.266037,,,,,,
1465826728.36,-2.563306,-0.016101,0.068733,-0.001180,-0.000032,-0.000891,-0.546519,0.016100,0.837292,0.003260,0.000776,-0.009243,-47.429653,298.110016,-21.266037,,,,,,
1465826728.37,-2.563306,-0.016110,0.068735,-0.000117,-0.000035,0.000175,-0.546519,0.016110,0.837292,0.004542,0.000583,-0.007015,-47.429653,298.110016,-21.266037,,,,,,
1465826728.38,-2.563274,-0.016099,0.068735,-0.000118,-0.001097,0.000181,-0.546546,0.016099,0.837274,0.004142,-0.000367,-0.009226,-47.430744,298.109436,-21.271784,,,,,,
1465826728.39,-2.563290,-0.016115,0.068736,0.000947,-0.001097,0.000182,-0.546532,0.016114,0.837283,0.004509,0.000503,-0.006335,-47.430744,298.109436,-21.271784,,,,,,
1465826728.40,-2.563305,-0.016103,0.068743,0.000945,-0.002159,0.000189,-0.546520,0.016103,0.837291,0.004589,-0.001607,-0.007213,-47.429882,298.109467,-21.273649,,,,,,
1465826728.41,-2.563301,-0.016092,0.068742,-0.001183,-0.001096,0.000180,-0.546524,0.016091,0.837289,0.004318,-0.000360,-0.007699,-47.429882,298.109467,-21.273649,,,,,,
1465826728.42,-2.563285,-0.016109,0.068730,-0.001172,0.002077,0.000161,-0.546536,0.016108,0.837281,0.005032,0.001226,-0.007111,-47.429882,298.109467,-21.273649,,,,,,
