timestamp,attitude_roll,attitude_pitch,attitude_yaw,rotation_rate_x,rotation_rate_y,rotation_rate_z,gravity_x,gravity_y,gravity_z,user_acc_x,user_acc_y,user_acc_z,magnetic_field_x,magnetic_field_y,magnetic_field_z,latitude(degree),longitude(degree),altitude(meter),speed(m/s),course(degree),timestamp
1466441361.90,-0.035426,-0.008026,-2.105034,0.003911,-0.163343,0.002405,-0.035417,0.008026,-0.999340,0.023073,0.001373,-0.025470,32.580853,16.784945,8.218590,,,,,,
1466441361.91,-0.036836,-0.008044,-2.105005,0.003961,-0.120874,0.003203,-0.036826,0.008044,-0.999289,-0.001351,0.002881,-0.000756,32.591373,16.782099,8.182611,,,,,,
1466441361.92,-0.037776,-0.008073,-2.104994,0.004075,-0.033802,0.000528,-0.037765,0.008073,-0.999254,-0.015503,0.003279,0.021288,32.591373,16.782099,8.182611,,,,,,
1466441361.93,-0.038115,-0.008070,-2.104995,0.000956,0.026720,0.000145,-0.038105,0.008070,-0.999241,-0.021542,0.000673,0.015400,32.591373,16.782099,8.182611,,,,,,
1466441361.94,-0.037766,-0.008136,-2.105002,0.003139,0.069190,-0.000119,-0.037756,0.008135,-0.999254,-0.011408,0.004636,0.018724,32.591373,16.782099,8.182611,,,,,,
1466441361.95,-0.036994,-0.008078,-2.105021,0.004249,0.102110,-0.002453,-0.036984,0.008077,-0.999283,-0.009052,-0.001989,0.004700,32.611050,16.780039,8.108118,,,,,,
1466441361.96,-0.035976,-0.008011,-2.105031,-0.004266,0.107417,-0.000366,-0.035968,0.008011,-0.999321,-0.004667,-0.003967,-0.001640,32.611050,16.780039,8.108118,,,,,,
1466441361.98,-0.034178,-0.007915,-2.105042,-0.004351,0.040523,0.001118,-0.034170,0.007915,-0.999385,0.012716,-0.005855,-0.014684,32.595905,16.782166,8.164409,,,,,,
1466441361.97,-0.034951,-0.007997,-2.105042,0.001020,0.075564,-0.001225,-0.034942,0.007997,-0.999357,0.007568,-0.000047,-0.011125,32.611050,16.780039,8.108118,,,,,,
,,,,,,,,,,,,,,,,29.719969,-95.399105,9.782234,-1.000000,-1.000000,1466441313.87
1466441361.99,-0.033792,-0.007927,-2.105040,-0.000105,0.028845,0.000131,-0.033785,0.007927,-0.999398,0.004412,0.000374,-0.011207,32.595905,16.782166,8.164409,,,,,,
1466441362.00,-0.033320,-0.007990,-2.105030,-0.002201,0.057511,0.001014,-0.033313,0.007990,-0.999413,-0.001584,0.002218,0.001839,32.580940,16.783386,8.221428,,,,,,
1466441362.01,-0.032679,-0.008051,-2.105034,0.001046,0.097860,-0.000301,-0.032672,0.008051,-0.999434,-0.011868,0.003210,0.005781,32.580940,16.783386,8.221428,,,,,,
1466441362.02,-0.031507,-0.008164,-2.105047,-0.003148,0.149889,-0.000631,-0.031501,0.008164,-0.999470,-0.011270,0.004394,0.014500,32.580940,16.783386,8.221428,,,,,,
1466441362.03,-0.030058,-0.008186,-2.105085,-0.003096,0.185998,-0.004051,-0.030052,0.008186,-0.999515,-0.017204,-0.000191,0.008548,32.558910,16.781240,8.312588,,,,,,
1466441362.04,-0.028120,-0.008208,-2.105119,-0.005126,0.266691,-0.003495,-0.028115,0.008208,-0.999571,-0.026679,-0.001646,0.016218,32.558910,16.781240,8.312588,,,,,,
1466441362.05,-0.025281,-0.008257,-2.105189,-0.010288,0.390929,-0.007472,-0.025277,0.008257,-0.999646,-0.039039,-0.001863,0.028211,32.558910,16.781240,8.312588,,,,,,
1466441362.06,-0.021119,-0.008350,-2.105295,-0.012245,0.524720,-0.010442,-0.021117,0.008350,-0.999742,-0.043153,-0.001880,0.038301,32.529381,16.783142,8.423613,,,,,,
1466441362.07,-0.014778,-0.008506,-2.105409,-0.017379,0.674439,-0.012451,-0.014777,0.008506,-0.999855,-0.059732,0.000268,0.039177,32.529381,16.783142,8.423613,,,,,,
1466441362.08,-0.006658,-0.008708,-2.105571,-0.022468,0.858140,-0.015737,-0.006658,0.008708,-0.999940,-0.065852,-0.000316,0.050416,32.529381,16.783142,8.423613,,,,,,
,,,,,,,,,,,,,,,,29.719970,-95.399108,9.782234,-1.000000,-1.000000,1466441396.99
1466441362.09,0.003373,-0.008963,-2.105759,-0.026475,1.053522,-0.020160,0.003373,0.008963,-0.999954,-0.078660,-0.001471,0.056885,32.333546,16.793060,9.128339,,,,,,
,,,,,,,,,,,,,,,,29.719971,-95.399112,9.782234,-1.000000,-1.000000,1466441397.02
1466441362.10,0.015542,-0.009275,-2.105963,-0.032586,1.274380,-0.021551,0.015540,0.009275,-0.999836,-0.086524,-0.002576,0.064427,32.333546,16.793060,9.128339,,,,,,
1466441362.11,0.030006,-0.009615,-2.106203,-0.035479,1.511170,-0.025168,0.030000,0.009615,-0.999504,-0.095552,0.001814,0.071479,32.333546,16.793060,9.128339,,,,,,
1466441362.12,0.047869,-0.010042,-2.106504,-0.043512,1.888131,-0.033927,0.047848,0.010042,-0.998804,-0.139385,0.004042,0.104136,32.333546,16.793060,9.128339,,,,,,
1466441362.13,0.069697,-0.010561,-2.106880,-0.051529,2.276773,-0.042759,0.069637,0.010560,-0.997517,-0.144008,0.001799,0.125355,31.771177,16.810673,10.898857,,,,,,
1466441362.14,0.094987,-0.011189,-2.107294,-0.061754,2.607011,-0.049098,0.094839,0.011189,-0.995430,-0.141225,0.002529,0.126137,31.771177,16.810673,10.898857,,,,,,
1466441362.15,0.123728,-0.011927,-2.107756,-0.069800,2.976534,-0.055681,0.123404,0.011927,-0.992285,-0.153006,-0.006571,0.119116,31.207399,16.825418,12.401420,,,,,,
1466441362.16,0.156897,-0.012791,-2.108267,-0.081995,3.429947,-0.064924,0.156242,0.012791,-0.987636,-0.147727,-0.003941,0.181957,31.207399,16.825418,12.401420,,,,,,
1466441362.17,0.194791,-0.013799,-2.108819,-0.090952,3.918399,-0.074383,0.193543,0.013798,-0.980995,-0.173890,0.002696,0.217750,31.207399,16.825418,12.401420,,,,,,
1466441362.18,0.238436,-0.014986,-2.109387,-0.107230,4.514093,-0.083457,0.236156,0.014985,-0.971600,-0.109356,0.006332,0.223034,30.359781,16.841702,14.332915,,,,,,
1466441362.19,0.286837,-0.016337,-2.109970,-0.117351,4.921851,-0.093476,0.282882,0.016336,-0.959016,-0.062561,0.001700,0.172654,30.359781,16.841702,14.332915,,,,,,
1466441362.20,0.337580,-0.017712,-2.110519,-0.109656,5.111915,-0.096789,0.331153,0.017711,-0.943411,-0.024817,0.002629,0.151053,30.359781,16.841702,14.332915,,,,,,
1466441362.21,0.390023,-0.019205,-2.111006,-0.128589,5.296679,-0.097967,0.380139,0.019204,-0.924730,-0.010266,-0.001290,0.154848,27.225965,16.867706,19.621902,,,,,,
1466441362.22,0.444692,-0.020810,-2.111366,-0.133635,5.521778,-0.097255,0.430087,0.020808,-0.902548,0.069669,-0.002971,0.115698,27.225965,16.867706,19.621902,,,,,,
1466441362.23,0.499581,-0.022468,-2.111627,-0.134785,5.451702,-0.097881,0.478937,0.022466,-0.877562,0.116080,0.013667,0.072188,27.225965,16.867706,19.621902,,,,,,
1466441362.24,0.552415,-0.023997,-2.111847,-0.120168,5.224463,-0.094312,0.524593,0.023994,-0.851015,0.117115,0.002785,0.026659,24.936460,16.865458,22.461542,,,,,,
,,,,,,,,,,,,,,,,29.719985,-95.398975,9.852533,-1.000000,-1.000000,1466441397.20
1466441362.25,0.603499,-0.025483,-2.111963,-0.117169,5.075797,-0.089119,0.567343,0.025481,-0.823088,0.171931,0.003801,0.028105,24.936460,16.865458,22.461542,,,,,,
1466441362.26,0.652291,-0.026946,-2.112006,-0.114330,4.792294,-0.087338,0.606788,0.026943,-0.794407,0.162865,0.002232,-0.026577,24.936460,16.865458,22.461542,,,,,,
1466441362.27,0.697605,-0.028271,-2.111996,-0.101986,4.453561,-0.080944,0.642128,0.028267,-0.766076,0.157189,-0.000557,-0.020484,19.699749,16.827135,27.194836,,,,,,
1466441362.28,0.740416,-0.029514,-2.111906,-0.098031,4.223128,-0.072043,0.674301,0.029510,-0.737866,0.202133,0.008423,-0.040667,19.699749,16.827135,27.194836,,,,,,
1466441362.29,0.779527,-0.030630,-2.111775,-0.087962,3.768660,-0.064925,0.702613,0.030626,-0.710913,0.247384,0.000731,-0.135843,19.699749,16.827135,27.194836,,,,,,
1466441362.30,0.811883,-0.031601,-2.111626,-0.076078,3.063605,-0.056234,0.725222,0.031596,-0.687790,0.166120,-0.001276,-0.141938,17.202053,16.799047,28.856071,,,,,,
1466441362.32,0.868122,-0.033241,-2.111337,-0.069850,2.937244,-0.054371,0.762695,0.033235,-0.645904,-0.178222,-0.005907,0.167190,17.202053,16.799047,28.856071,,,,,,
1466441362.31,0.839662,-0.032409,-2.111490,-0.061607,2.723809,-0.049831,0.744027,0.032403,-0.667364,0.032813,-0.004571,-0.007456,17.202053,16.799047,28.856071,,,,,,
1466441362.33,0.903599,-0.034265,-2.111088,-0.088973,3.804773,-0.069411,0.785098,0.034258,-0.618423,-0.346560,-0.000872,0.350983,13.345909,16.744503,30.859358,,,,,,
1466441362.34,0.951815,-0.035625,-2.110732,-0.119151,5.187296,-0.093014,0.813953,0.035618,-0.579838,-0.335071,0.012585,0.489719,13.345909,16.744503,30.859358,,,,,,
1466441362.35,1.013296,-0.037301,-2.110234,-0.138905,6.389314,-0.117603,0.847990,0.037293,-0.528698,-0.042204,0.006942,0.301480,13.345909,16.744503,30.859358,,,,,,
1466441362.36,1.077416,-0.039054,-2.109515,-0.149660,6.311793,-0.111805,0.880065,0.039044,-0.473245,0.250047,0.006122,-0.016455,10.693546,16.701746,31.898140,,,,,,
1466441362.37,1.133119,-0.040547,-2.108810,-0.122260,5.243594,-0.100821,0.904994,0.040536,-0.423489,0.400823,-0.005868,-0.257572,10.693546,16.701746,31.898140,,,,,,
1466441362.38,1.176445,-0.041663,-2.108215,-0.089689,4.077665,-0.074316,0.922445,0.041651,-0.383876,0.356043,-0.000300,-0.223119,10.693546,16.701746,31.898140,,,,,,
1466441362.39,1.212028,-0.042627,-2.107664,-0.087347,3.403411,-0.066892,0.935479,0.042614,-0.350803,0.190467,-0.009838,-0.132214,3.246334,16.561296,33.555573,,,,,,
1466441362.40,1.244677,-0.043465,-2.107169,-0.068342,3.277044,-0.065016,0.946398,0.043452,-0.320066,0.062818,0.002203,0.051054,3.246334,16.561296,33.555573,,,,,,
1466441362.41,1.279301,-0.044378,-2.106588,-0.090381,3.528708,-0.068745,0.956872,0.044364,-0.287102,0.000830,0.004754,0.087486,3.246334,16.561296,33.555573,,,,,,
1466441362.42,1.316235,-0.045307,-2.105917,-0.091203,3.720898,-0.071016,0.966781,0.045292,-0.251563,0.033998,0.001431,0.046820,3.246334,16.561296,33.555573,,,,,,
1466441362.43,1.352968,-0.046216,-2.105207,-0.088114,3.634893,-0.071538,0.975327,0.046200,-0.215879,0.048187,-0.001034,0.011350,-1.506088,16.451078,33.732555,,,,,,
1466441362.44,1.388804,-0.047021,-2.104524,-0.081813,3.577532,-0.063721,0.982398,0.047004,-0.180789,0.093453,0.008950,0.013706,-1.506088,16.451078,33.732555,,,,,,
1466441362.45,1.423610,-0.047786,-2.103830,-0.082023,3.409767,-0.062669,0.988059,0.047768,-0.146488,0.151743,0.005668,-0.061780,-3.969316,16.389080,33.562393,,,,,,
1466441362.46,1.454427,-0.048402,-2.103192,-0.065580,2.952096,-0.050202,0.992073,0.048383,-0.115971,0.164985,0.008716,-0.125774,-3.969316,16.389080,33.562393,,,,,,
1466441362.47,1.480603,-0.048888,-2.102642,-0.057616,2.520982,-0.041103,0.994745,0.048869,-0.089964,0.080526,0.007131,-0.071398,-3.969316,16.389080,33.562393,,,,,,
1466441362.48,1.505829,-0.049376,-2.102090,-0.058612,2.568775,-0.045662,0.996674,0.049356,-0.064843,-0.027436,-0.003305,0.070076,-6.179438,16.332321,33.254494,,,,,,
1466441362.49,1.534724,-0.049949,-2.101451,-0.069775,2.994584,-0.055795,0.998103,0.049928,-0.036020,-0.034984,-0.005525,0.104684,-6.179438,16.332321,33.254494,,,,,,
1466441362.50,1.566546,-0.050582,-2.100687,-0.078019,3.204840,-0.062444,0.998712,0.050561,-0.004245,0.008154,-0.007439,0.047076,-6.179438,16.332321,33.254494,,,,,,
1466441362.51,1.598284,-0.051196,-2.099919,-0.075955,3.152811,-0.062116,0.998313,0.051173,0.027448,0.041315,-0.000621,0.003191,-9.892631,16.229593,32.396416,,,,,,
1466441362.53,1.659777,-0.052393,-2.098361,-0.070745,3.058314,-0.063647,0.994677,0.052369,0.088742,-0.006197,0.006500,0.046436,-9.892631,16.229593,32.396416,,,,,,
1466441362.52,1.629275,-0.051812,-2.099136,-0.074986,3.068939,-0.065846,0.996951,0.051789,0.058367,0.049115,-0.002778,-0.009951,-9.892631,16.229593,32.396416,,,,,,
1466441362.54,1.691802,-0.052953,-2.097527,-0.081160,3.239893,-0.066925,0.991296,0.052929,0.120541,-0.052743,-0.005977,0.061145,-11.922866,16.167109,31.737383,,,,,,
1466441362.56,1.768895,-0.054090,-2.095540,-0.103197,4.341002,-0.077046,0.979009,0.054064,0.196518,-0.096532,0.008314,0.190308,-11.922866,16.167109,31.737383,,,,,,
1466441362.55,1.727087,-0.053503,-2.096600,-0.080630,3.661431,-0.070632,0.986398,0.053477,0.155432,-0.142846,0.008596,0.212579,-11.922866,16.167109,31.737383,,,,,,
1466441362.57,1.815110,-0.054661,-2.094219,-0.115578,4.646825,-0.085363,0.968854,0.054634,0.241529,0.036105,0.003868,0.100329,-11.922866,16.167109,31.737383,,,,,,
1466441362.58,1.860398,-0.055174,-2.092949,-0.107289,4.470550,-0.079991,0.956899,0.055146,0.285136,0.028559,0.009688,0.020146,-16.265287,16.027826,29.821817,,,,,,
1466441362.59,1.905648,-0.055643,-2.091630,-0.113548,4.567189,-0.084861,0.942997,0.055614,0.328120,0.002880,0.002522,0.110631,-16.265287,16.027826,29.821817,,,,,,
1466441362.60,1.954190,-0.056111,-2.090226,-0.116246,4.952642,-0.093668,0.925941,0.056081,0.373481,-0.060768,0.001322,0.189415,-18.946657,15.932898,28.248161,,,,,,
1466441362.62,2.069061,-0.056908,-2.086703,-0.147516,6.308632,-0.120299,0.876991,0.056877,0.477129,-0.194481,0.007469,0.377409,-18.946657,15.932898,28.248161,,,,,,
1466441362.61,2.008046,-0.056520,-2.088562,-0.142164,5.488905,-0.110895,0.904473,0.056490,0.422773,-0.126961,-0.005678,0.239168,-18.946657,15.932898,28.248161,,,,,,
1466441362.63,2.139788,-0.057176,-2.084622,-0.172888,7.288713,-0.134987,0.841068,0.057144,0.537902,-0.109226,0.011062,0.420869,-24.450285,15.712506,23.792696,,,,,,
1466441362.64,2.217939,-0.057292,-2.082244,-0.189080,7.946003,-0.148705,0.796501,0.057261,0.601920,-0.036521,0.019354,0.370477,-24.450285,15.712506,23.792696,,,,,,
1466441362.65,2.301469,-0.057263,-2.079711,-0.201186,8.464199,-0.162612,0.743505,0.057232,0.666277,0.049036,0.008976,0.379729,-24.450285,15.712506,23.792696,,,,,,
1466441362.66,2.389571,-0.056928,-2.077055,-0.214496,8.896344,-0.160013,0.682010,0.056897,0.729127,0.124784,0.011295,0.373596,-27.750643,15.563417,19.961803,,,,,,
1466441362.67,2.480828,-0.056456,-2.074394,-0.207758,9.156514,-0.173347,0.612743,0.056426,0.788265,0.241123,0.013505,0.354191,-27.750643,15.563417,19.961803,,,,,,
1466441362.68,2.572511,-0.055634,-2.071676,-0.228008,9.141657,-0.172210,0.538025,0.055605,0.841093,0.299728,0.014326,0.281725,-27.750643,15.563417,19.961803,,,,,,
1466441362.69,2.663394,-0.054652,-2.069152,-0.206851,9.037580,-0.168342,0.459493,0.054625,0.886500,0.366526,0.017000,0.258825,-33.072594,15.234660,9.214134,,,,,,
1466441362.70,2.751933,-0.053422,-2.066726,-0.215720,8.757247,-0.167654,0.379332,0.053397,0.923719,0.418199,0.015695,0.192767,-33.072594,15.234660,9.214134,,,,,,
1466441362.71,2.836700,-0.052121,-2.064562,-0.188559,8.354786,-0.156588,0.299783,0.052098,0.952584,0.449180,0.018840,0.140968,-33.072594,15.234660,9.214134,,,,,,
1466441362.72,2.916283,-0.050691,-2.062593,-0.191390,7.800518,-0.149921,0.223121,0.050669,0.973473,0.498757,0.012197,0.066017,-34.241772,15.094436,3.232773,,,,,,
1466441362.73,2.989101,-0.049236,-2.060966,-0.165702,7.089043,-0.126273,0.151717,0.049216,0.987198,0.475190,0.014764,-0.013687,-34.241772,15.094436,3.232773,,,,,,
1466441362.74,3.054333,-0.047841,-2.059561,-0.152844,6.306485,-0.120288,0.087049,0.047823,0.995055,0.525683,0.024763,-0.076644,-34.241772,15.094436,3.232773,,,,,,
1466441362.75,3.110740,-0.046559,-2.058449,-0.128456,5.400714,-0.099681,0.030814,0.046542,0.998441,0.514657,0.010465,-0.157514,-33.753021,14.914218,-7.006543,,,,,,
1466441362.76,-3.126271,-0.045415,-2.057540,-0.107437,4.339948,-0.087685,-0.015305,0.045399,0.998852,0.508775,0.019237,-0.222927,-33.753021,14.914218,-7.006543,,,,,,
1466441362.77,-3.090401,-0.044591,-2.056897,-0.073601,3.335410,-0.061126,-0.051118,0.044576,0.997697,0.477830,-0.001088,-0.254777,-33.753021,14.914218,-7.006543,,,,,,
1466441362.78,-3.065119,-0.043932,-2.056457,-0.055840,2.234279,-0.042494,-0.076325,0.043918,0.996115,0.535889,0.005154,-0.310187,-32.889706,14.871560,-10.387289,,,,,,
1466441362.80,-3.054907,-0.043703,-2.056273,0.009857,-0.513788,0.006740,-0.086494,0.043689,0.995294,0.486259,0.011639,-0.395837,-32.889706,14.871560,-10.387289,,,,,,
1466441362.79,-3.053039,-0.043662,-2.056256,-0.015033,0.845365,-0.013518,-0.088354,0.043649,0.995132,0.524542,0.005302,-0.403183,-32.889706,14.871560,-10.387289,,,,,,
1466441362.81,-3.067750,-0.044055,-2.056489,0.039448,-1.510885,0.031118,-0.073704,0.044041,0.996307,0.407825,0.002438,-0.313354,-32.086998,14.846611,-12.680471,,,,,,
1466441362.82,-3.089846,-0.044561,-2.056867,0.052097,-2.451667,0.043418,-0.051672,0.044546,0.997670,0.406500,0.016199,-0.289281,-32.086998,14.846611,-12.680471,,,,,,
1466441362.83,-3.121715,-0.045349,-2.057421,0.082803,-3.413717,0.064385,-0.019855,0.045333,0.998775,0.347736,0.001649,-0.250758,-32.086998,14.846611,-12.680471,,,,,,
1466441362.84,3.121599,-0.046265,-2.058176,0.094631,-4.154888,0.078625,0.019971,0.046249,0.998730,0.319995,0.009034,-0.179654,-32.500603,14.857759,-11.565006,,,,,,
1466441362.85,3.075336,-0.047359,-2.059089,0.119378,-4.787752,0.089005,0.066134,0.047341,0.996687,0.332517,0.008597,-0.128920,-32.500603,14.857759,-11.565006,,,,,,
1466441362.86,3.021651,-0.048502,-2.060185,0.124791,-5.555456,0.100212,0.119514,0.048483,0.991648,0.316338,0.009103,-0.119456,-32.500603,14.857759,-11.565006,,,,,,
1466441362.87,2.961693,-0.049771,-2.061495,0.148571,-6.105508,0.113265,0.178709,0.049751,0.982643,0.280397,0.007638,-0.035210,-33.955708,14.928242,-5.911798,,,,,,
1466441362.88,2.897408,-0.051008,-2.062969,0.152315,-6.509007,0.120058,0.241451,0.050986,0.969073,0.239628,0.008264,0.040891,-33.955708,14.928242,-5.911798,,,,,,
1466441362.89,2.830169,-0.052201,-2.064624,0.163675,-6.779790,0.128154,0.305996,0.052177,0.950602,0.212955,0.005471,0.094503,-33.955708,14.928242,-5.911798,,,,,,
1466441362.90,2.760586,-0.053318,-2.066409,0.166598,-6.996399,0.129515,0.371327,0.053293,0.926971,0.189327,0.008413,0.134598,-34.395046,14.995008,-1.709502,,,,,,
1466441362.91,2.689714,-0.054338,-2.068313,0.170735,-7.088787,0.133292,0.436012,0.054312,0.898301,0.127083,0.014719,0.181549,-34.395046,14.995008,-1.709502,,,,,,
1466441362.92,2.619448,-0.055215,-2.070277,0.166618,-6.977293,0.131524,0.497980,0.055187,0.865431,0.085165,0.011540,0.243258,-34.395046,14.995008,-1.709502,,,,,,
1466441362.93,2.550982,-0.055885,-2.072210,0.158347,-6.785094,0.127117,0.555999,0.055856,0.829304,0.035905,0.012412,0.263301,-33.483143,15.193006,7.670945,,,,,,
1466441362.94,2.485160,-0.056454,-2.074139,0.157660,-6.488842,0.122065,0.609323,0.056424,0.790912,-0.017236,0.012103,0.293057,-33.483143,15.193006,7.670945,,,,,,
1466441362.95,2.423589,-0.056839,-2.075988,0.142287,-6.019505,0.114849,0.656820,0.056809,0.751905,-0.070821,-0.000992,0.320575,-33.483143,15.193006,7.670945,,,,,,
1466441362.96,2.366718,-0.057109,-2.077653,0.132237,-5.559710,0.101311,0.698486,0.057078,0.713344,-0.110839,0.006048,0.308568,-32.122219,15.307071,12.026983,,,,,,
1466441362.97,2.315647,-0.057307,-2.079188,0.117075,-4.926847,0.089875,0.733982,0.057276,0.676750,-0.185581,0.007788,0.327218,-32.122219,15.307071,12.026983,,,,,,
1466441362.98,2.272411,-0.057356,-2.080506,0.097896,-4.095434,0.080384,0.762545,0.057325,0.644390,-0.249911,0.005328,0.348270,-32.122219,15.307071,12.026983,,,,,,
1466441362.99,2.237451,-0.057355,-2.081583,0.079750,-3.297984,0.065784,0.784602,0.057323,0.617344,-0.264110,0.005284,0.323879,-28.812630,15.506053,18.444139,,,,,,
1466441363.00,2.210057,-0.057332,-2.082413,0.059424,-2.546183,0.048276,0.801219,0.057301,0.595622,-0.284098,0.001628,0.283468,-28.812630,15.506053,18.444139,,,,,,
1466441363.01,2.190914,-0.057300,-2.082986,0.039232,-1.683959,0.032204,0.812475,0.057268,0.580177,-0.323110,0.000684,0.288720,-28.812630,15.506053,18.444139,,,,,,
1466441363.02,2.181148,-0.057306,-2.083291,0.018085,-0.737847,0.013475,0.818102,0.057274,0.572215,-0.339861,-0.000802,0.294530,-27.591572,15.568507,20.177174,,,,,,
1466441363.03,2.180751,-0.057296,-2.083296,-0.005220,0.189148,-0.003006,0.818329,0.057264,0.571890,-0.347931,0.000002,0.276682,-27.591572,15.568507,20.177174,,,,,,
1466441363.04,2.189257,-0.057300,-2.083057,-0.025395,1.067295,-0.018114,0.813435,0.057268,0.578830,-0.331822,0.003629,0.260846,-27.591572,15.568507,20.177174,,,,,,
1466441363.05,2.206445,-0.057304,-2.082539,-0.046653,1.926337,-0.035231,0.803366,0.057273,0.592725,-0.299810,0.000970,0.251604,-27.160498,15.589808,20.737814,,,,,,
1466441363.06,2.231346,-0.057327,-2.081810,-0.060616,2.663262,-0.049447,0.788358,0.057295,0.612543,-0.249402,-0.002059,0.229391,-27.160498,15.589808,20.737814,,,,,,
1466441363.07,2.262724,-0.057330,-2.080839,-0.078988,3.277025,-0.065024,0.768753,0.057298,0.636974,-0.194870,0.000868,0.197849,-27.160498,15.589808,20.737814,,,,,,
1466441363.08,2.299813,-0.057315,-2.079716,-0.087845,3.847233,-0.073931,0.744605,0.057284,0.665043,-0.172980,0.003416,0.196408,-28.019846,15.548911,19.593657,,,,,,
1466441363.09,2.342535,-0.057212,-2.078434,-0.104183,4.398325,-0.080597,0.715527,0.057181,0.696241,-0.132641,0.005609,0.197588,-28.019846,15.548911,19.593657,,,,,,
1466441363.10,2.390670,-0.057003,-2.077011,-0.116283,4.928188,-0.090319,0.681205,0.056972,0.729873,-0.089027,0.009983,0.205644,-28.019846,15.548911,19.593657,,,,,,
1466441363.11,2.442810,-0.056719,-2.075485,-0.124342,5.287093,-0.096835,0.642251,0.056689,0.764395,-0.020410,0.007398,0.174646,-30.820206,15.395490,14.962801,,,,,,
1466441363.12,2.497121,-0.056366,-2.073879,-0.129458,5.442137,-0.104200,0.599822,0.056336,0.798148,0.058106,0.002776,0.138956,-30.820206,15.395490,14.962801,,,,,,
1466441363.13,2.552472,-0.055880,-2.072261,-0.133566,5.566364,-0.102854,0.554763,0.055851,0.830132,0.071550,0.005230,0.123542,-30.820206,15.395490,14.962801,,,,,,
1466441363.14,2.608991,-0.055326,-2.070652,-0.133458,5.647069,-0.106553,0.507000,0.055297,0.860171,0.141163,0.008866,0.124372,-32.265968,15.299452,11.645845,,,,,,
1466441363.15,2.665033,-0.054653,-2.069083,-0.132510,5.558930,-0.102806,0.458040,0.054626,0.887252,0.180022,0.012390,0.078080,-32.265968,15.299452,11.645845,,,,,,
1466441363.16,2.718949,-0.053938,-2.067631,-0.126425,5.318957,-0.100231,0.409576,0.053912,0.910682,0.215622,0.010983,0.030084,-32.265968,15.299452,11.645845,,,,,,
1466441363.17,2.770514,-0.053163,-2.066245,-0.121390,5.094903,-0.094563,0.362109,0.053137,0.930620,0.225751,0.010614,0.015318,-34.107506,15.118964,4.345865,,,,,,
1466441363.18,2.819288,-0.052382,-2.064994,-0.114339,4.776355,-0.091493,0.316319,0.052358,0.947207,0.267390,0.007960,-0.013430,-34.107506,15.118964,4.345865,,,,,,
1466441363.19,2.863592,-0.051644,-2.063890,-0.098990,4.295324,-0.078881,0.274068,0.051621,0.960324,0.291575,0.008300,-0.061932,-34.107506,15.118964,4.345865,,,,,,
1466441363.21,2.935506,-0.050298,-2.062183,-0.076939,3.223910,-0.057237,0.204372,0.050277,0.977601,0.307285,0.011323,-0.117234,-34.401390,15.047890,0.947124,,,,,,
1466441363.20,2.901829,-0.050945,-2.062971,-0.093281,3.759099,-0.072319,0.237165,0.050923,0.970134,0.286364,0.010036,-0.107402,-34.401390,15.047890,0.947124,,,,,,
1466441363.22,2.963183,-0.049731,-2.061567,-0.064944,2.609105,-0.048047,0.177245,0.049711,0.982911,0.289903,0.010424,-0.158051,-34.401390,15.047890,0.947124,,,,,,
1466441363.23,2.984503,-0.049299,-2.061085,-0.045540,1.962437,-0.036521,0.156254,0.049279,0.986487,0.310253,0.004234,-0.170142,-34.225826,14.961565,-3.941579,,,,,,
1466441363.24,2.998623,-0.049017,-2.060784,-0.029449,1.222329,-0.023348,0.142312,0.048997,0.988608,0.307075,0.002074,-0.209495,-34.225826,14.961565,-3.941579,,,,,,
1466441363.25,3.005307,-0.048884,-2.060629,-0.010163,0.485402,-0.009127,0.135701,0.048865,0.989544,0.309474,0.005395,-0.218151,-34.225826,14.961565,-3.941579,,,,,,
1466441363.26,3.004527,-0.048895,-2.060649,0.004844,-0.268512,0.005196,0.136473,0.048876,0.989437,0.296815,0.006559,-0.231625,-34.074940,14.942843,-5.138253,,,,,,
1466441363.27,2.996788,-0.049053,-2.060821,0.023165,-0.927925,0.017866,0.144125,0.049034,0.988344,0.262155,0.008416,-0.209032,-34.074940,14.942843,-5.138253,,,,,,
1466441363.28,2.983053,-0.049328,-2.061115,0.031996,-1.517247,0.027957,0.157684,0.049308,0.986258,0.242569,0.009514,-0.187720,-34.074940,14.942843,-5.138253,,,,,,
1466441363.29,2.963641,-0.049712,-2.061535,0.048326,-2.071531,0.036772,0.176796,0.049691,0.982992,0.218560,0.005622,-0.159628,-34.146576,14.950676,-4.613043,,,,,,
1466441363.30,2.939411,-0.050204,-2.062076,0.061586,-2.524945,0.046016,0.200554,0.050183,0.978396,0.180076,0.002887,-0.128161,-34.146576,14.950676,-4.613043,,,,,,
1466441363.31,2.911330,-0.050754,-2.062725,0.068562,-2.896595,0.053676,0.227939,0.050732,0.972353,0.168011,0.004459,-0.093218,-34.146576,14.950676,-4.613043,,,,,,
1466441363.33,2.842728,-0.052024,-2.064421,0.083577,-3.644143,0.067959,0.294037,0.052000,0.954379,0.148956,0.008882,-0.066103,-34.303745,14.973603,-3.136224,,,,,,
1466441363.32,2.879419,-0.051349,-2.063503,0.079777,-3.283114,0.062498,0.258839,0.051327,0.964556,0.154430,0.004810,-0.080950,-34.303745,14.973603,-3.136224,,,,,,
1466441363.34,2.804093,-0.052662,-2.065402,0.092800,-3.924475,0.073984,0.330669,0.052638,0.942278,0.126316,0.003560,-0.029543,-34.303745,14.973603,-3.136224,,,,,,
1466441363.36,2.720411,-0.053930,-2.067595,0.101916,-4.292932,0.078433,0.408245,0.053904,0.911280,0.076771,0.001516,0.036123,-34.378666,15.058511,1.462941,,,,,,
1466441363.35,2.763075,-0.053299,-2.066466,0.098905,-4.145342,0.078569,0.369019,0.053274,0.927894,0.109085,0.007807,0.000756,-34.378666,15.058511,1.462941,,,,,,
1466441363.37,2.677415,-0.054507,-2.068750,0.101940,-4.273819,0.078313,0.447023,0.054480,0.892862,0.030425,0.007471,0.075278,-34.378666,15.058511,1.462941,,,,,,
1466441363.38,2.635268,-0.055015,-2.069919,0.096721,-4.188875,0.078840,0.484232,0.054987,0.873210,0.009542,0.003423,0.105443,-34.114250,15.117880,4.296424,,,,,,
1466441363.39,2.594002,-0.055458,-2.071085,0.097907,-4.092251,0.078235,0.519831,0.055429,0.852469,-0.013087,0.006949,0.114389,-34.114250,15.117880,4.296424,,,,,,
1466441363.40,2.554128,-0.055848,-2.072230,0.092797,-3.925540,0.075055,0.553388,0.055819,0.831051,-0.045148,0.004972,0.129963,-34.114250,15.117880,4.296424,,,,,,
1466441363.41,2.516951,-0.056177,-2.073285,0.086766,-3.650512,0.066938,0.583884,0.056148,0.809893,-0.056098,0.003484,0.156980,-32.892735,15.250655,9.812095,,,,,,
1466441363.42,2.482299,-0.056468,-2.074298,0.081783,-3.381868,0.063119,0.611582,0.056438,0.789165,-0.095545,-0.000453,0.156849,-32.892735,15.250655,9.812095,,,,,,
1466441363.43,2.451831,-0.056664,-2.075217,0.069594,-2.919966,0.055952,0.635332,0.056634,0.770159,-0.141146,0.002204,0.183805,-32.892735,15.250655,9.812095,,,,,,
1466441363.45,2.402511,-0.056910,-2.076661,0.051313,-2.230819,0.042032,0.672519,0.056879,0.737891,-0.139178,0.007345,0.145669,-32.085999,15.312125,12.116892,,,,,,
1466441363.44,2.425497,-0.056803,-2.075989,0.057301,-2.543005,0.048253,0.655386,0.056772,0.753158,-0.122534,0.005636,0.170991,-32.085999,15.312125,12.116892,,,,,,
1466441363.46,2.383830,-0.056990,-2.077227,0.040249,-1.722195,0.033508,0.686182,0.056959,0.725196,-0.177027,0.004351,0.161232,-32.085999,15.312125,12.116892,,,,,,
1466441363.47,2.370905,-0.057031,-2.077613,0.026069,-1.155165,0.022487,0.695496,0.057000,0.716266,-0.186310,-0.000192,0.187757,-30.714771,15.402678,15.170761,,,,,,
1466441363.48,2.363024,-0.057060,-2.077841,0.014986,-0.665648,0.011955,0.701118,0.057029,0.710761,-0.189873,-0.000205,0.166589,-30.714771,15.402678,15.170761,,,,,,
1466441363.49,2.364981,-0.057120,-2.077655,0.003917,-0.160185,0.003451,0.699724,0.057089,0.712129,-0.191743,0.001139,0.154235,-30.714771,15.402678,15.170761,,,,,,
1466441363.50,2.367435,-0.057091,-2.077573,-0.011364,0.379236,-0.006334,0.697975,0.057060,0.713845,-0.188560,0.003746,0.152015,-30.387079,15.422050,15.798021,,,,,,
1466441363.51,2.375022,-0.057039,-2.077348,-0.021376,0.877241,-0.014790,0.692541,0.057008,0.719122,-0.179205,0.004073,0.148706,-30.387079,15.422050,15.798021,,,,,,
1466441363.52,2.387236,-0.056971,-2.076991,-0.032507,1.330654,-0.024031,0.683709,0.056941,0.727530,-0.157265,0.002248,0.129175,-30.387079,15.422050,15.798021,,,,,,
1466441363.53,2.403980,-0.056885,-2.076472,-0.040519,1.723545,-0.032890,0.671435,0.056855,0.738879,-0.128756,-0.001816,0.118466,-30.768515,15.395141,15.069171,,,,,,
1466441363.54,2.424004,-0.056781,-2.075872,-0.050700,2.090943,-0.038398,0.656510,0.056751,0.752179,-0.109925,0.002255,0.101382,-30.768515,15.395141,15.069171,,,,,,
1466441363.55,2.447452,-0.056653,-2.075195,-0.055613,2.411622,-0.044671,0.638699,0.056623,0.767370,-0.080594,0.005007,0.102487,-30.768515,15.395141,15.069171,,,,,,
1466441363.56,2.473029,-0.056473,-2.074426,-0.063897,2.594262,-0.047954,0.618872,0.056443,0.783462,-0.037664,0.007431,0.065370,-31.311781,15.360484,13.943441,,,,,,
1466441363.57,2.500394,-0.056272,-2.073617,-0.065800,2.768411,-0.053306,0.597209,0.056243,0.800111,-0.052226,0.003770,0.087111,-31.311781,15.360484,13.943441,,,,,,
1466441363.58,2.530162,-0.056008,-2.072744,-0.073966,3.046610,-0.056123,0.573140,0.055979,0.817543,-0.020115,0.000692,0.101081,-31.311781,15.360484,13.943441,,,,,,
1466441363.59,2.562262,-0.055696,-2.071822,-0.077982,3.235622,-0.060506,0.546615,0.055667,0.835532,0.032227,0.005780,0.047235,-32.643440,15.265897,10.590092,,,,,,
1466441363.60,2.594464,-0.055373,-2.070882,-0.075905,3.192090,-0.061295,0.519440,0.055345,0.852713,0.030045,0.004088,0.027078,-32.643440,15.265897,10.590092,,,,,,
1466441363.61,2.626326,-0.055039,-2.070010,-0.073776,3.196327,-0.058127,0.492021,0.055011,0.868844,0.072814,0.009076,0.030235,-33.274757,15.211267,8.497042,,,,,,
1466441363.62,2.658330,-0.054656,-2.069102,-0.076993,3.175098,-0.060126,0.463977,0.054629,0.884161,0.086529,0.006101,0.001215,-33.274757,15.211267,8.497042,,,,,,
1466441363.63,2.689021,-0.054281,-2.068287,-0.068676,3.021121,-0.054894,0.436635,0.054254,0.898001,0.108195,0.006201,-0.021841,-33.274757,15.211267,8.497042,,,,,,
1466441363.64,2.717901,-0.053881,-2.067490,-0.069968,2.838495,-0.054814,0.410532,0.053855,0.910255,0.116049,0.002144,-0.025962,-33.767433,15.160074,6.381542,,,,,,
1466441363.65,2.744835,-0.053507,-2.066789,-0.061686,2.659030,-0.048358,0.385877,0.053481,0.920999,0.112689,0.007462,-0.033395,-33.767433,15.160074,6.381542,,,,,,
1466441363.66,2.770144,-0.053133,-2.066119,-0.059779,2.479587,-0.048295,0.362453,0.053108,0.930488,0.155689,0.007027,-0.059760,-33.767433,15.160074,6.381542,,,,,,
1466441363.67,2.792628,-0.052772,-2.065538,-0.051684,2.152530,-0.039849,0.341449,0.052747,0.938419,0.159436,0.007967,-0.096241,-33.767433,15.160074,6.381542,,,,,,
1466441363.68,2.811368,-0.052452,-2.065072,-0.044710,1.780878,-0.031125,0.323809,0.052428,0.944669,0.167752,0.006791,-0.099774,-34.301826,15.077358,2.617186,,,,,,
1466441363.70,2.837575,-0.052015,-2.064417,-0.022253,1.019536,-0.019941,0.298951,0.051991,0.952851,0.174071,0.003886,-0.124039,-34.301826,15.077358,2.617186,,,,,,
1466441363.69,2.826317,-0.052188,-2.064706,-0.034514,1.426221,-0.025697,0.309657,0.052165,0.949416,0.178243,0.002157,-0.111373,-34.301826,15.077358,2.617186,,,,,,
1466441363.71,2.844697,-0.051905,-2.064239,-0.013196,0.608598,-0.012032,0.292160,0.051882,0.954961,0.179703,0.007063,-0.129735,-34.419563,15.032587,0.326782,,,,,,
1466441363.73,2.833857,-0.052552,-2.064851,0.005979,-0.215494,0.004867,0.302483,0.052528,0.951706,0.157036,0.006524,-0.121933,-34.419563,15.032587,0.326782,,,,,,
1466441363.72,2.847687,-0.051855,-2.064157,-0.005207,0.194449,-0.005166,0.289304,0.051832,0.955833,0.174167,0.005969,-0.129005,-34.419563,15.032587,0.326782,,,,,,
1466441363.74,2.828828,-0.052641,-2.064983,0.014009,-0.597759,0.011530,0.307265,0.052617,0.950168,0.150942,0.006740,-0.116489,-34.424145,15.025632,-0.017361,,,,,,
1466441363.75,2.819970,-0.052780,-2.065203,0.022040,-0.978962,0.018187,0.315667,0.052756,0.947402,0.138679,0.001520,-0.104537,-34.424145,15.025632,-0.017361,,,,,,
1466441363.76,2.807650,-0.052989,-2.065512,0.032267,-1.307076,0.024512,0.327310,0.052964,0.943431,0.119879,0.003539,-0.084835,-34.410206,15.044960,0.615255,,,,,,
1466441363.77,2.792312,-0.053248,-2.065907,0.036186,-1.573600,0.029381,0.341737,0.053223,0.938287,0.106978,0.007400,-0.069757,-34.410206,15.044960,0.615255,,,,,,
1466441363.78,2.774669,-0.053618,-2.066356,0.057171,-1.822070,0.029896,0.358230,0.053592,0.932094,0.125520,-0.081180,0.024586,-34.410206,15.044960,0.615255,,,,,,
1466441363.79,2.754739,-0.054054,-2.066873,0.050497,-2.037633,0.038692,0.376725,0.054028,0.924748,0.032515,0.113971,-0.126469,-34.312634,15.080305,2.453402,,,,,,
1466441363.80,2.733432,-0.054196,-2.067412,0.038630,-2.154437,0.043671,0.396339,0.054170,0.916505,0.065819,-0.014726,-0.012452,-34.312634,15.080305,2.453402,,,,,,
1466441363.81,2.710747,-0.054518,-2.068079,0.050175,-2.282930,0.047682,0.417019,0.054491,0.907263,0.033191,0.016981,0.007257,-34.312634,15.080305,2.453402,,,,,,
1466441363.82,2.687923,-0.054814,-2.068678,0.059779,-2.277605,0.040207,0.437609,0.054787,0.897495,0.016660,-0.017906,0.019452,-34.312634,15.080305,2.453402,,,,,,
1466441363.83,2.665246,-0.055083,-2.069298,0.045963,-2.254245,0.042175,0.457840,0.055055,0.887328,0.016586,0.009184,0.037599,-33.948166,15.144561,5.381068,,,,,,
1466441363.84,2.642828,-0.056055,-2.069911,0.055544,-2.254252,0.043248,0.477589,0.056026,0.876795,-0.014989,0.024419,0.006963,-33.948166,15.144561,5.381068,,,,,,
1466441363.85,2.620682,-0.056198,-2.070525,0.041769,-2.193733,0.047112,0.496884,0.056168,0.865997,-0.028394,-0.007828,0.056198,-33.948166,15.144561,5.381068,,,,,,
1466441363.86,2.599544,-0.056401,-2.071155,0.049366,-2.084363,0.043241,0.515072,0.056371,0.855291,-0.018001,0.008143,0.055155,-33.664154,15.172565,6.878195,,,,,,
1466441363.88,2.560354,-0.056836,-2.072297,0.055028,-1.831627,0.031017,0.548173,0.056805,0.834434,-0.058854,-0.009121,0.090874,-33.664154,15.172565,6.878195,,,,,,
1466441363.87,2.579270,-0.056559,-2.071719,0.044153,-2.004710,0.037414,0.532300,0.056529,0.844666,-0.040250,-0.035365,0.082015,-33.664154,15.172565,6.878195,,,,,,
1466441363.89,2.544062,-0.057083,-2.072723,0.041516,-1.581014,0.021980,0.561686,0.057052,0.825381,-0.059443,0.005982,0.075483,-32.960644,15.242894,9.593848,,,,,,
1466441363.90,2.529218,-0.057233,-2.073145,0.036345,-1.452545,0.025427,0.573871,0.057202,0.816945,-0.077686,0.012027,0.061854,-32.960644,15.242894,9.593848,,,,,,
1466441363.91,2.516053,-0.057343,-2.073538,0.027004,-1.255054,0.027373,0.584572,0.057312,0.809315,-0.098504,0.028855,0.055523,-32.639420,15.266679,10.601337,,,,,,
1466441363.92,2.505469,-0.057353,-2.073843,0.018827,-0.989587,0.021442,0.593105,0.057321,0.803082,-0.098705,-0.002161,0.091038,-32.639420,15.266679,10.601337,,,,,,
1466441363.93,2.498217,-0.057400,-2.074055,0.014960,-0.683772,0.015262,0.598911,0.057368,0.798758,-0.120106,0.001943,0.104471,-32.639420,15.266679,10.601337,,,,,,
1466441363.94,2.494064,-0.057436,-2.074172,0.009039,-0.324856,0.004490,0.602222,0.057405,0.796262,-0.120289,-0.014558,0.119723,-32.639420,15.266679,10.601337,,,,,,
1466441363.95,2.503139,-0.057416,-2.073627,-0.000117,0.011796,-0.000825,0.594972,0.057385,0.801695,-0.118456,-0.000393,0.098955,-32.236717,15.298264,11.728125,,,,,,
1466441363.97,2.518529,-0.057278,-2.072972,-0.015284,0.643628,-0.011190,0.582569,0.057246,0.810763,-0.092228,-0.000377,0.094450,-32.236717,15.298264,11.728125,,,,,,
1466441363.96,2.505608,-0.057415,-2.073551,-0.006107,0.323977,-0.005982,0.592991,0.057384,0.803162,-0.120502,0.009602,0.084152,-32.236717,15.298264,11.728125,,,,,,
1466441363.98,2.526982,-0.057235,-2.072736,-0.017066,0.910159,-0.019250,0.575696,0.057204,0.815660,-0.069028,-0.006544,0.069441,-32.376995,15.278124,11.362248,,,,,,
1466441363.99,2.537851,-0.057169,-2.072415,-0.025292,1.134219,-0.025986,0.566799,0.057137,0.821872,-0.032589,-0.006356,0.058560,-32.376995,15.278124,11.362248,,,,,,
1466441364.00,2.549852,-0.057114,-2.072084,-0.023068,1.211726,-0.025405,0.556897,0.057083,0.828617,-0.015668,0.003601,0.030468,-32.376995,15.278124,11.362248,,,,,,
1466441364.01,2.562617,-0.057065,-2.071715,-0.031492,1.291357,-0.022720,0.546276,0.057034,0.835661,-0.022396,0.021762,-0.002043,-32.863003,15.233105,9.938171,,,,,,
1466441364.02,2.576288,-0.056901,-2.071321,-0.035632,1.384801,-0.024374,0.534806,0.056870,0.843059,0.006027,0.018081,0.007344,-32.863003,15.233105,9.938171,,,,,,
1466441364.03,2.590449,-0.056699,-2.070911,-0.039855,1.416651,-0.022450,0.522820,0.056669,0.850557,0.002860,0.011721,0.002775,-32.863003,15.233105,9.938171,,,,,,
1466441364.04,2.604917,-0.056514,-2.070509,-0.034465,1.462318,-0.026988,0.510465,0.056484,0.858041,0.015642,-0.016506,0.033545,-33.121880,15.210248,9.076403,,,,,,
1466441364.05,2.620343,-0.056351,-2.070053,-0.036460,1.561081,-0.032932,0.497174,0.056321,0.865821,0.035678,-0.010880,0.020959,-33.121880,15.210248,9.076403,,,,,,
1466441364.06,2.635637,-0.056196,-2.069631,-0.034390,1.518598,-0.029470,0.483879,0.056166,0.873331,0.054680,0.001833,-0.018121,-33.121880,15.210248,9.076403,,,,,,
1466441364.07,2.649886,-0.056032,-2.069242,-0.033489,1.393296,-0.025490,0.471390,0.056003,0.880145,0.044830,0.015531,-0.033877,-33.618462,15.161936,7.120845,,,,,,
,,,,,,,,,,,,,,,,29.719952,-95.399020,9.812961,-1.000000,-1.000000,1466441399.02
1466441364.09,2.676890,-0.055649,-2.068511,-0.033580,1.322153,-0.023980,0.447463,0.055620,0.892571,0.075471,-0.000856,-0.022912,-33.618462,15.161936,7.120845,,,,,,
1466441364.08,2.663475,-0.055840,-2.068885,-0.032479,1.355062,-0.022056,0.459391,0.055811,0.886479,0.048299,0.007039,-0.020756,-33.618462,15.161936,7.120845,,,,,,
1466441364.10,2.687881,-0.055506,-2.068244,-0.026326,1.164994,-0.021922,0.437629,0.055478,0.897442,0.073784,0.000202,-0.042309,-33.810921,15.141058,6.193683,,,,,,
1466441364.11,2.698530,-0.055365,-2.067951,-0.025425,1.034392,-0.021102,0.428051,0.055337,0.902059,0.079486,0.003272,-0.040929,-33.810921,15.141058,6.193683,,,,,,
1466441364.12,2.707982,-0.055217,-2.067702,-0.025583,0.915458,-0.016099,0.419510,0.055189,0.906071,0.068146,0.016939,-0.053548,-33.958294,15.123371,5.376747,,,,,,
1466441364.13,2.716274,-0.055054,-2.067479,-0.022541,0.798650,-0.012170,0.411986,0.055026,0.909527,0.076128,-0.001086,-0.040478,-33.958294,15.123371,5.376747,,,,,,
1466441364.14,2.721242,-0.054910,-2.067398,-0.019539,0.645739,-0.011207,0.407466,0.054883,0.911570,0.081990,-0.001034,-0.049845,-33.958294,15.123371,5.376747,,,,,,
1466441364.15,2.726369,-0.054829,-2.067266,-0.010185,0.468405,-0.006893,0.402788,0.054801,0.913651,0.075865,-0.007850,-0.049317,-33.958294,15.123371,5.376747,,,,,,
1466441364.16,2.729993,-0.054821,-2.067159,-0.003960,0.332499,-0.009227,0.399475,0.054794,0.915105,0.075211,-0.007110,-0.036321,-34.126518,15.101575,4.256132,,,,,,
1466441364.17,2.732531,-0.054813,-2.067089,-0.003034,0.227372,-0.005374,0.397151,0.054785,0.916117,0.062367,0.010675,-0.045831,-34.126518,15.101575,4.256132,,,,,,
1466441364.18,2.729729,-0.055363,-2.067283,-0.003178,0.114794,-0.002540,0.399705,0.055334,0.914972,0.054092,0.008112,-0.046289,-34.126518,15.101575,4.256132,,,,,,
1466441364.19,2.730043,-0.055338,-2.067285,-0.002259,0.005416,0.002405,0.399418,0.055309,0.915099,0.053219,0.010822,-0.043487,-34.165710,15.093262,3.960986,,,,,,
1466441364.20,2.725780,-0.055396,-2.067500,-0.001317,-0.093349,0.003026,0.403314,0.055368,0.913385,0.049353,0.000861,-0.035791,-34.165710,15.093262,3.960986,,,,,,
1466441364.21,2.724132,-0.055432,-2.067554,0.007085,-0.185730,0.003613,0.404818,0.055404,0.912717,0.048597,-0.005126,-0.034910,-34.165710,15.093262,3.960986,,,,,,
1466441364.22,2.719139,-0.054778,-2.067743,0.012229,-0.318487,0.010840,0.409385,0.054751,0.910717,0.038659,-0.012759,-0.009503,-34.147064,15.100044,4.093687,,,,,,
1466441364.23,2.714914,-0.055034,-2.067821,0.030237,-0.430979,-0.012919,0.413223,0.055006,0.908967,0.095749,-0.037230,0.019149,-34.147064,15.100044,4.093687,,,,,,
1466441364.24,2.710587,-0.055168,-2.067922,0.011015,-0.445888,0.006315,0.417149,0.055140,0.907164,-0.000035,0.011037,-0.058073,-34.147064,15.100044,4.093687,,,,,,
1466441364.26,2.696641,-0.055249,-2.068331,0.015974,-0.728348,0.013414,0.429757,0.055221,0.901254,0.020102,-0.013702,-0.027307,-34.073818,15.116182,4.611679,,,,,,
1466441364.25,2.704512,-0.055390,-2.068118,0.033106,-0.660383,0.007682,0.422647,0.055362,0.904602,0.039999,0.020871,-0.019852,-34.073818,15.116182,4.611679,,,,,,
1466441364.27,2.689445,-0.055486,-2.068553,0.029866,-0.699665,0.005797,0.436226,0.055458,0.898127,0.016243,0.012246,-0.026575,-34.073818,15.116182,4.611679,,,,,,
1466441364.28,2.682879,-0.055657,-2.068704,0.023519,-0.660387,0.009802,0.442109,0.055628,0.895235,0.015395,0.002295,0.028868,-34.001259,15.128816,5.081843,,,,,,
1466441364.29,2.675595,-0.055766,-2.068890,0.014898,-0.744262,0.009255,0.448616,0.055737,0.891985,0.005668,0.040759,-0.044924,-34.001259,15.128816,5.081843,,,,,,
1466441364.30,2.668111,-0.055954,-2.069116,0.005295,-0.736866,0.024101,0.455274,0.055925,0.888593,-0.021528,0.031172,-0.044324,-34.001259,15.128816,5.081843,,,,,,
1466441364.31,2.660808,-0.056017,-2.069326,0.014919,-0.714556,0.017584,0.461749,0.055988,0.885242,0.010846,0.005475,0.021420,-33.837021,15.147491,6.033333,,,,,,
1466441364.32,2.653834,-0.056073,-2.069498,0.003233,-0.692255,0.018497,0.467910,0.056044,0.881997,-0.005386,0.001925,0.002967,-33.837021,15.147491,6.033333,,,,,,
1466441364.33,2.646536,-0.056095,-2.069721,0.012776,-0.725174,0.017648,0.474335,0.056065,0.878558,-0.002228,0.000514,0.005384,-33.837021,15.147491,6.033333,,,,,,
1466441364.35,2.632870,-0.056065,-2.070094,0.022486,-0.640204,0.006481,0.486297,0.056036,0.871995,-0.010390,-0.020513,0.045821,-33.743320,15.158828,6.510753,,,,,,
1466441364.34,2.639512,-0.055932,-2.069914,0.014929,-0.708182,0.016480,0.480498,0.055903,0.875212,-0.004149,-0.024836,0.042390,-33.743320,15.158828,6.510753,,,,,,
1466441364.36,2.627371,-0.056226,-2.070247,0.022634,-0.524465,0.004691,0.491080,0.056197,0.869300,-0.025702,-0.035872,0.047402,-33.640228,15.173884,6.991425,,,,,,
1466441364.37,2.622677,-0.056469,-2.070367,0.026997,-0.451185,-0.002151,0.495149,0.056439,0.866973,-0.015092,-0.008892,0.028153,-33.640228,15.173884,6.991425,,,,,,
1466441364.38,2.619636,-0.056399,-2.070403,0.023856,-0.405526,-0.000311,0.497785,0.056369,0.865467,-0.017942,-0.005893,0.024960,-33.640228,15.173884,6.991425,,,,,,
1466441364.39,2.615685,-0.056603,-2.070505,0.020686,-0.387471,-0.001492,0.501194,0.056573,0.863484,-0.022160,0.026114,0.003124,-33.491943,15.185232,7.647882,,,,,,
1466441364.40,2.612059,-0.056704,-2.070606,0.013260,-0.354572,0.005745,0.504319,0.056674,0.861656,-0.021043,0.033033,0.010674,-33.491943,15.185232,7.647882,,,,,,
1466441364.41,2.608894,-0.056753,-2.070711,0.006943,-0.297232,0.005379,0.507042,0.056723,0.860053,-0.024025,0.032037,-0.006980,-33.491943,15.185232,7.647882,,,,,,
1466441364.42,2.607820,-0.057700,-2.070710,-0.000395,-0.201669,0.007964,0.507938,0.057668,0.859461,-0.025989,0.019649,0.006704,-33.432816,15.188813,7.895478,,,,,,
1466441364.43,2.606491,-0.057637,-2.070748,-0.005597,-0.108222,0.005244,0.509082,0.057605,0.858788,-0.023272,0.018964,0.005637,-33.432816,15.188813,7.895478,,,,,,
1466441364.44,2.606055,-0.057499,-2.070778,-0.011890,-0.023289,0.010027,0.509460,0.057467,0.858573,-0.030807,0.020826,0.004373,-33.432816,15.188813,7.895478,,,,,,
1466441364.45,2.606385,-0.057354,-2.070780,-0.013920,0.052106,0.007423,0.509181,0.057323,0.858748,-0.016780,0.010777,0.017152,-33.388802,15.186441,8.084030,,,,,,
1466441364.46,2.607715,-0.056908,-2.070725,-0.013901,0.068036,0.007324,0.508052,0.056877,0.859447,-0.000910,-0.004937,0.022588,-33.388802,15.186441,8.084030,,,,,,
1466441364.47,2.608274,-0.056801,-2.070716,-0.008586,0.054242,0.003158,0.507574,0.056770,0.859736,0.000498,-0.012413,0.017904,-33.388802,15.186441,8.084030,,,,,,
1466441364.48,2.608928,-0.056756,-2.070707,-0.002173,0.070171,0.000936,0.507013,0.056726,0.860070,0.004920,-0.022363,0.025626,-33.398285,15.190644,8.036824,,,,,,
1466441364.49,2.609902,-0.056764,-2.070684,-0.001055,0.106284,-0.003548,0.506174,0.056733,0.860563,0.009084,-0.020952,0.019732,-33.398285,15.190644,8.036824,,,,,,
1466441364.50,2.611141,-0.056109,-2.070644,0.002176,0.132833,-0.005838,0.505127,0.056080,0.861221,0.009308,-0.014362,0.011414,-33.398285,15.190644,8.036824,,,,,,
1466441364.51,2.612562,-0.056170,-2.070605,0.002194,0.145578,-0.006983,0.503900,0.056140,0.861935,0.008215,-0.003528,-0.003110,-33.420498,15.196058,7.933583,,,,,,
1466441364.52,2.614000,-0.056214,-2.070563,0.001121,0.140266,-0.005886,0.502660,0.056184,0.862657,0.007853,0.008910,0.000731,-33.420498,15.196058,7.933583,,,,,,
1466441364.53,2.614731,-0.057144,-2.070547,-0.004222,0.127518,-0.003684,0.502002,0.057113,0.862979,0.005460,0.019715,-0.017489,-33.420498,15.196058,7.933583,,,,,,
1466441364.54,2.615331,-0.058150,-2.070535,-0.005312,0.110519,-0.000388,0.501456,0.058117,0.863229,0.008203,0.023273,-0.012628,-33.444874,15.192324,7.837430,,,,,,
1466441364.55,2.615663,-0.058728,-2.070544,-0.009601,0.089276,0.001869,0.501152,0.058694,0.863366,0.009819,0.015494,-0.014062,-33.444874,15.192324,7.837430,,,,,,
1466441364.56,2.616387,-0.058624,-2.070531,-0.010695,0.069096,0.004123,0.500530,0.058590,0.863734,0.009831,0.006809,-0.011867,-33.444874,15.192324,7.837430,,,,,,
1466441364.57,2.617068,-0.058523,-2.070514,-0.008562,0.070160,0.003054,0.499944,0.058489,0.864080,0.017146,-0.005221,-0.010046,-33.482231,15.166979,7.726220,,,,,,
1466441364.58,2.617776,-0.058466,-2.070504,-0.004302,0.069099,0.002001,0.499334,0.058433,0.864437,0.017939,-0.007545,-0.004375,-33.482231,15.166979,7.726220,,,,,,
1466441364.59,2.617581,-0.057868,-2.070536,-0.001144,0.039366,0.001127,0.499520,0.057835,0.864370,0.019859,-0.012990,0.001307,-33.482231,15.166979,7.726220,,,,,,
1466441364.60,2.617052,-0.057688,-2.070577,0.000938,0.000079,0.000312,0.499982,0.057656,0.864114,0.017382,-0.004067,-0.000894,-33.492073,15.167695,7.682031,,,,,,
1466441364.61,2.616346,-0.057459,-2.070600,0.003039,-0.027523,-0.002706,0.500599,0.057428,0.863772,0.014706,-0.006082,0.001248,-33.492073,15.167695,7.682031,,,,,,
1466441364.62,2.615518,-0.057422,-2.070630,0.004089,-0.039206,-0.002631,0.501315,0.057390,0.863360,0.011914,-0.001833,-0.002520,-33.492073,15.167695,7.682031,,,,,,
1466441364.63,2.614734,-0.057321,-2.070661,0.004069,-0.051955,-0.000422,0.501995,0.057290,0.862971,0.010700,-0.003197,0.003454,-33.492073,15.167695,7.682031,,,,,,
1466441364.64,2.613889,-0.057273,-2.070695,0.006195,-0.056201,-0.001458,0.502725,0.057242,0.862549,0.006461,-0.003042,-0.002610,-33.465088,15.182374,7.770129,,,,,,
1466441364.65,2.613279,-0.057265,-2.070711,0.005151,-0.041333,-0.002616,0.503251,0.057234,0.862243,0.005828,-0.001814,0.001557,-33.465088,15.182374,7.770129,,,,,,
1466441364.66,2.612807,-0.057507,-2.070726,0.006231,-0.029655,-0.002689,0.503651,0.057475,0.861993,0.003521,0.005147,-0.002832,-33.450428,15.186007,7.825948,,,,,,
1466441364.67,2.612485,-0.057830,-2.070732,0.004092,-0.036027,-0.001587,0.503920,0.057798,0.861815,0.000048,0.008502,0.001741,-33.450428,15.186007,7.825948,,,,,,
1466441364.68,2.612056,-0.058254,-2.070751,0.003016,-0.040283,0.001631,0.504277,0.058221,0.861577,-0.001027,0.012335,-0.002477,-33.450428,15.186007,7.825948,,,,,,
1466441364.69,2.611678,-0.058660,-2.070760,-0.002305,-0.037098,0.002669,0.504590,0.058626,0.861366,-0.002286,0.013426,-0.002861,-33.450428,15.186007,7.825948,,,,,,
1466441364.70,2.611371,-0.059237,-2.070766,-0.007621,-0.028607,0.004738,0.504838,0.059202,0.861182,-0.005936,0.020250,-0.009207,-33.442848,15.177925,7.873884,,,,,,
1466441364.71,2.611337,-0.059636,-2.070766,-0.010778,0.003243,0.006663,0.504855,0.059601,0.861144,-0.007602,0.016251,-0.011031,-33.442848,15.177925,7.873884,,,,,,
1466441364.72,2.611512,-0.059697,-2.070768,-0.012866,0.035066,0.006464,0.504703,0.059661,0.861229,-0.000278,0.006257,-0.008049,-33.444801,15.168484,7.883778,,,,,,
1466441364.73,2.611702,-0.059144,-2.070783,-0.006488,0.025509,0.005467,0.504555,0.059110,0.861354,0.010033,-0.014707,0.008962,-33.444801,15.168484,7.883778,,,,,,
1466441364.74,2.611698,-0.058319,-2.070794,-0.001180,0.006408,0.000271,0.504583,0.058286,0.861394,0.012583,-0.027280,0.013637,-33.444801,15.168484,7.883778,,,,,,
1466441364.75,2.611554,-0.057609,-2.070802,0.005192,-0.012696,-0.003859,0.504728,0.057577,0.861356,0.016665,-0.026282,0.023989,-33.439987,15.178685,7.884573,,,,,,
1466441364.76,2.611463,-0.057223,-2.070799,0.008381,-0.018003,-0.004886,0.504818,0.057192,0.861329,0.006565,-0.016619,0.017211,-33.439987,15.178685,7.884573,,,,,,
1466441364.77,2.611333,-0.057230,-2.070792,0.009451,-0.014815,-0.005969,0.504929,0.057198,0.861264,0.005889,-0.003548,0.012470,-33.439987,15.178685,7.884573,,,,,,
1466441364.78,2.611307,-0.057311,-2.070776,0.007318,-0.015878,-0.004900,0.504950,0.057280,0.861246,-0.002752,-0.000716,0.004934,-33.439987,15.178685,7.884573,,,,,,
1466441364.79,2.611283,-0.057713,-2.070768,0.004157,0.009606,-0.005064,0.504959,0.057681,0.861214,-0.003860,0.011808,-0.008828,-33.429390,15.188249,7.911039,,,,,,
1466441364.80,2.611479,-0.058059,-2.070750,0.000989,0.032961,-0.003085,0.504779,0.058027,0.861296,-0.000140,0.011691,-0.007735,-33.429390,15.188249,7.911039,,,,,,
1466441364.81,2.611686,-0.058645,-2.070740,-0.003267,0.039325,0.000063,0.504584,0.058611,0.861371,-0.002371,0.022199,-0.018247,-33.436825,15.179859,7.895719,,,,,,
1466441364.83,2.611842,-0.059281,-2.070740,-0.008640,0.005337,0.004527,0.504431,0.059246,0.861417,0.002680,0.010257,-0.005704,-33.436825,15.179859,7.895719,,,,,,
1466441364.82,2.611862,-0.059118,-2.070741,-0.007552,0.024449,0.004409,0.504418,0.059083,0.861436,0.001380,0.021041,-0.007722,-33.436825,15.179859,7.895719,,,,,,
1466441364.84,2.611627,-0.059254,-2.070754,-0.006533,-0.012716,0.004642,0.504616,0.059219,0.861310,0.007224,0.002579,0.002490,-33.436825,15.179859,7.895719,,,,,,
1466441364.85,2.611516,-0.058892,-2.070760,-0.003327,-0.007399,0.001419,0.504723,0.058858,0.861273,0.004204,-0.012487,0.007486,-33.447102,15.167919,7.875104,,,,,,
1466441364.86,2.611571,-0.058426,-2.070760,0.002021,0.009593,-0.000810,0.504690,0.058393,0.861324,0.006968,-0.019132,0.012822,-33.447102,15.167919,7.875104,,,,,,
1466441364.88,2.611575,-0.057948,-2.070764,0.006282,0.006414,-0.003978,0.504700,0.057915,0.861350,0.011245,-0.022591,0.011697,-33.440235,15.176480,7.887761,,,,,,
1466441364.88,2.611434,-0.057730,-2.070766,0.008394,-0.008450,-0.004946,0.504827,0.057698,0.861290,0.010736,-0.012715,0.010933,-33.440235,15.176480,7.887761,,,,,,
1466441364.90,2.611304,-0.057792,-2.070756,0.006264,-0.008449,-0.004948,0.504938,0.057760,0.861221,0.005514,-0.001241,0.006028,-33.433739,15.183707,7.901377,,,,,,
1466441364.91,2.611210,-0.058101,-2.070741,0.005202,-0.007387,-0.004957,0.505010,0.058068,0.861158,0.000071,0.010306,-0.001524,-33.433739,15.183707,7.901377,,,,,,
1466441364.91,2.611154,-0.058426,-2.070739,0.004130,-0.008457,-0.001758,0.505048,0.058393,0.861114,-0.001432,0.012332,-0.001189,-33.433739,15.183707,7.901377,,,,,,
1466441364.93,2.611105,-0.058752,-2.070739,-0.000124,-0.002090,0.000326,0.505081,0.058718,0.861072,-0.004089,0.013761,-0.007023,-33.433739,15.183707,7.901377,,,,,,
1466441364.94,2.611091,-0.059039,-2.070754,-0.001176,0.009587,0.001315,0.505084,0.059004,0.861051,0.000928,0.013475,-0.006314,-33.433739,15.183707,7.901377,,,,,,
1466441364.94,2.611010,-0.059233,-2.070773,-0.004382,0.003211,0.003480,0.505149,0.059199,0.860999,0.001122,0.010671,-0.009635,-33.439320,15.172510,7.899262,,,,,,
1466441364.96,2.610905,-0.059299,-2.070787,-0.002250,0.003212,0.002418,0.505237,0.059264,0.860943,0.003781,0.004533,-0.005368,-33.439320,15.172510,7.899262,,,,,,
1466441364.97,2.610800,-0.059214,-2.070806,-0.002257,-0.001038,0.003509,0.505330,0.059179,0.860895,0.006984,-0.001822,0.000876,-33.441837,15.168742,7.895844,,,,,,
1466441364.97,2.610698,-0.059028,-2.070809,-0.000131,-0.008463,0.000365,0.505423,0.058993,0.860853,0.005426,-0.007556,0.006350,-33.441837,15.168742,7.895844,,,,,,
1466441364.99,2.610626,-0.058705,-2.070796,-0.000130,-0.010581,-0.001750,0.505495,0.058671,0.860833,0.006682,-0.015245,0.015739,-33.439617,15.170024,7.902792,,,,,,
1466441365.00,2.610612,-0.058436,-2.070786,0.003066,-0.011638,-0.003868,0.505515,0.058402,0.860839,0.003030,-0.006690,0.011872,-33.439617,15.170024,7.902792,,,,,,
1466441365.00,2.610551,-0.058419,-2.070778,0.005210,0.000041,-0.003939,0.505568,0.058386,0.860809,0.004488,-0.003409,0.004318,-33.439617,15.170024,7.902792,,,,,,
1466441365.02,2.610562,-0.058488,-2.070776,0.006284,0.007473,-0.003985,0.505556,0.058455,0.860811,0.006376,0.000383,0.005598,-33.439617,15.170024,7.902792,,,,,,
1466441365.03,2.610617,-0.058586,-2.070771,0.005212,0.003223,-0.002895,0.505506,0.058553,0.860834,-0.001081,0.001201,-0.002313,-33.431904,15.177130,7.921762,,,,,,
1466441365.03,2.610436,-0.058984,-2.070773,0.004142,-0.002086,-0.002864,0.505650,0.058950,0.860722,0.003581,0.016565,-0.006825,-33.431904,15.177130,7.921762,,,,,,
1466441365.05,2.610566,-0.059047,-2.070771,-0.001180,0.007458,0.002393,0.505536,0.059012,0.860785,-0.002195,0.002252,0.001093,-33.433788,15.175220,7.917466,,,,,,
1466441365.06,2.610371,-0.059294,-2.070785,0.004143,0.000034,-0.001813,0.505697,0.059260,0.860674,0.002329,0.010076,-0.012453,-33.433788,15.175220,7.917466,,,,,,
1466441365.07,2.610488,-0.059114,-2.070786,-0.000122,-0.001031,0.000319,0.505601,0.059080,0.860742,0.008284,-0.006986,0.022772,-33.433788,15.175220,7.917466,,,,,,
1466441365.08,2.610334,-0.059041,-2.070801,0.002016,0.004279,-0.000777,0.505736,0.059007,0.860668,0.002275,-0.005982,-0.009288,-33.433788,15.175220,7.917466,,,,,,
1466441365.09,2.610500,-0.058949,-2.070770,0.003109,0.018096,-0.006184,0.505596,0.058915,0.860756,0.007694,-0.005295,0.010109,-33.436638,15.170383,7.914699,,,,,,
1466441365.10,2.610415,-0.058778,-2.070781,0.002004,-0.006337,-0.001774,0.505674,0.058744,0.860722,0.009966,-0.010480,0.007945,-33.436638,15.170383,7.914699,,,,,,
1466441365.11,2.610306,-0.058914,-2.070771,0.010506,-0.019082,-0.001685,0.505764,0.058880,0.860660,-0.011013,0.002033,-0.012653,-33.435654,15.171533,7.916646,,,,,,
1466441365.12,2.610143,-0.058977,-2.070773,0.005211,-0.005262,-0.007100,0.505903,0.058943,0.860574,0.011981,0.000536,0.015097,-33.435654,15.171533,7.916646,,,,,,
1466441365.13,2.610112,-0.058764,-2.070786,0.007335,0.000031,-0.001808,0.505936,0.058730,0.860570,-0.005234,-0.014525,-0.013051,-33.435654,15.171533,7.916646,,,,,,
1466441365.14,2.610105,-0.059198,-2.070771,0.009469,-0.007385,-0.008147,0.505928,0.059163,0.860544,0.001869,0.017955,0.006827,-33.435654,15.171533,7.916646,,,,,,
1466441365.15,2.610150,-0.058948,-2.070772,0.002032,0.010661,-0.005073,0.505897,0.058914,0.860580,0.013420,-0.015548,0.021272,-33.435654,15.171533,7.916646,,,,,,
1466441365.16,2.610059,-0.059348,-2.070781,0.010509,-0.016959,-0.001699,0.505964,0.059313,0.860513,-0.009946,0.014646,-0.017389,-33.432858,15.171604,7.928322,,,,,,
1466441365.17,2.610131,-0.059196,-2.070757,0.005227,0.009601,-0.006128,0.505906,0.059162,0.860557,0.012694,-0.011112,0.027291,-33.432858,15.171604,7.928322,,,,,,
1466441365.18,2.610080,-0.059596,-2.070783,0.007349,0.009587,-0.001869,0.505938,0.059560,0.860511,-0.006182,0.014674,-0.024299,-33.434795,15.168619,7.925858,,,,,,
1466441365.19,2.610165,-0.059981,-2.070771,0.004147,0.001097,-0.002884,0.505854,0.059946,0.860534,-0.002069,0.017661,-0.002578,-33.434795,15.168619,7.925858,,,,,,
1466441365.20,2.609985,-0.060069,-2.070785,0.000951,-0.001025,-0.002874,0.506006,0.060033,0.860438,0.006079,0.003352,-0.002360,-33.434795,15.168619,7.925858,,,,,,
1466441365.21,2.610003,-0.060535,-2.070771,-0.004378,0.000027,0.001371,0.505975,0.060499,0.860424,-0.005670,0.025622,-0.010585,-33.440926,15.161115,7.914333,,,,,,
1466441365.22,2.610025,-0.060488,-2.070770,-0.004381,0.000025,0.002435,0.505958,0.060451,0.860437,0.004662,0.000156,0.009115,-33.440926,15.161115,7.914333,,,,,,
1466441365.23,2.609919,-0.060603,-2.070773,-0.008651,-0.006350,0.004599,0.506046,0.060566,0.860377,-0.005420,0.009503,-0.010860,-33.440926,15.161115,7.914333,,,,,,
1466441365.24,2.609923,-0.060470,-2.070784,-0.005433,0.012760,0.004483,0.506046,0.060433,0.860386,0.004833,-0.003365,0.000102,-33.443726,15.154900,7.914404,,,,,,
1466441365.25,2.609950,-0.060214,-2.070785,-0.004357,0.017015,0.001264,0.506031,0.060178,0.860413,0.008419,-0.010419,-0.000001,-33.443726,15.154900,7.914404,,,,,,
1466441365.27,2.609914,-0.059700,-2.070767,0.003066,-0.013766,-0.003856,0.506078,0.059664,0.860421,0.012080,-0.019458,0.026328,-33.440842,15.159223,7.918315,,,,,,
1466441365.26,2.609994,-0.060060,-2.070780,-0.002248,0.001087,0.001367,0.505998,0.060024,0.860444,0.005309,-0.006466,0.005096,-33.440842,15.159223,7.918315,,,,,,
1466441365.28,2.609827,-0.059638,-2.070768,0.003067,-0.011645,-0.002805,0.506155,0.059603,0.860381,0.003367,-0.004992,0.010240,-33.440842,15.159223,7.918315,,,,,,
1466441365.29,2.609831,-0.059612,-2.070745,0.006261,-0.012705,-0.003859,0.506152,0.059577,0.860384,0.000318,-0.004676,0.013060,-33.436829,15.163830,7.926447,,,,,,
1466441365.30,2.609680,-0.059742,-2.070742,0.006249,-0.021202,-0.002742,0.506278,0.059706,0.860301,-0.003775,0.003297,-0.000758,-33.436829,15.163830,7.926447,,,,,,
1466441365.31,2.609675,-0.059942,-2.070750,0.004132,-0.006344,0.000356,0.506276,0.059906,0.860288,-0.000493,0.009002,0.009097,-33.436829,15.163830,7.926447,,,,,,
1466441365.32,2.609701,-0.060290,-2.070751,-0.001166,0.012771,0.000230,0.506243,0.060253,0.860283,-0.004122,0.017506,-0.012886,-33.436829,15.163830,7.926447,,,,,,
1466441365.33,2.609729,-0.060528,-2.070752,-0.002224,0.015959,-0.000856,0.506212,0.060491,0.860285,0.001784,0.013453,-0.010767,-33.437008,15.160830,7.931427,,,,,,
1466441365.34,2.609728,-0.060759,-2.070766,-0.004353,0.020197,0.002308,0.506206,0.060721,0.860272,0.003270,0.014337,-0.013654,-33.437008,15.160830,7.931427,,,,,,
1466441365.36,2.612107,-0.060461,-2.070433,-0.021289,-0.049615,-0.090943,0.504167,0.060424,0.861490,0.236159,-0.097991,0.314826,-33.437008,15.160830,7.931427,,,,,,
1466441365.35,2.611737,-0.060958,-2.070483,0.001466,0.278450,-0.085526,0.504470,0.060920,0.861278,0.017259,0.090584,0.008229,-33.437008,15.160830,7.931427,,,,,,
1466441365.37,2.610551,-0.060471,-2.070768,-0.062925,-0.017948,-0.015607,0.505506,0.060434,0.860704,0.003863,0.172736,-0.291704,-33.464432,15.141778,7.851745,,,,,,
1466441365.38,2.612767,-0.060137,-2.070825,-0.005320,0.184628,0.055563,0.503608,0.060100,0.861839,-0.171119,0.038685,-0.249855,-33.464432,15.141778,7.851745,,,,,,
1466441365.39,2.611503,-0.060192,-2.070747,0.050609,-0.318516,-0.006158,0.504695,0.060155,0.861199,-0.020793,-0.086095,0.083228,-33.447769,15.156082,7.895034,,,,,,
1466441365.40,2.609887,-0.060373,-2.070362,-0.039992,0.120626,-0.216570,0.506080,0.060336,0.860373,0.379326,-0.021060,0.258325,-33.447769,15.156082,7.895034,,,,,,
1466441365.41,2.608601,-0.060074,-2.071219,0.031517,-0.276008,-0.016023,0.507195,0.060038,0.859737,0.006828,-0.011484,-0.165112,-33.447769,15.156082,7.895034,,,,,,
1466441365.42,2.607952,-0.060430,-2.071085,-0.011804,0.085922,0.042337,0.507743,0.060393,0.859389,-0.126151,-0.052687,-0.183150,-33.423592,15.174880,7.961035,,,,,,
1466441365.43,2.609540,-0.060566,-2.071003,0.060456,-0.006527,0.055762,0.506373,0.060529,0.860187,-0.125590,-0.064802,0.004040,-33.423592,15.174880,7.961035,,,,,,
1466441365.44,2.605474,-0.061021,-2.071035,0.028090,-0.451223,-0.008541,0.509853,0.060983,0.858098,0.040288,0.003546,0.045696,-33.437557,15.162809,7.925326,,,,,,
1466441365.45,2.603281,-0.061215,-2.070953,0.017936,-0.106049,-0.040521,0.511727,0.061176,0.856967,0.049278,0.008083,0.137173,-33.437557,15.162809,7.925326,,,,,,
1466441365.46,2.603285,-0.061682,-2.070989,0.034098,0.029883,-0.052001,0.511709,0.061643,0.856945,0.048609,-0.014845,0.040791,-33.437557,15.162809,7.925326,,,,,,
1466441365.47,2.603923,-0.061971,-2.070900,0.024484,0.065883,-0.013917,0.511153,0.061932,0.857256,-0.035887,-0.060345,-0.010530,-33.392960,15.154593,8.126505,,,,,,
1466441365.48,2.604016,-0.062637,-2.070947,0.064804,-0.030787,-0.003690,0.511051,0.062596,0.857268,-0.048069,-0.033696,-0.000044,-33.392960,15.154593,8.126505,,,,,,
1466441365.49,2.603938,-0.062535,-2.070864,0.042489,-0.020110,-0.020809,0.511122,0.062494,0.857233,0.004381,-0.029794,0.031805,-33.392960,15.154593,8.126505,,,,,,
1466441365.51,2.605222,-0.063783,-2.070819,0.047917,0.045748,-0.031861,0.509981,0.063739,0.857821,0.013045,-0.009403,0.034574,-33.392960,15.154593,8.126505,,,,,,
1466441365.50,2.604607,-0.063201,-2.070870,0.059656,0.080759,-0.023553,0.510527,0.063159,0.857539,-0.005552,0.010099,0.031056,-33.392960,15.154593,8.126505,,,,,,
1466441365.52,2.605354,-0.064390,-2.070849,0.048933,0.011761,-0.028454,0.509848,0.064346,0.857855,-0.004492,0.019456,-0.017935,-33.430210,15.124111,8.029565,,,,,,
1466441365.53,2.605654,-0.065470,-2.070837,0.044718,0.043620,-0.029723,0.509554,0.065424,0.857948,-0.005526,0.023154,-0.012824,-33.430210,15.124111,8.029565,,,,,,
1466441365.54,2.606336,-0.065936,-2.070815,0.035175,0.078659,-0.027824,0.508953,0.065888,0.858269,-0.001446,0.037292,-0.026894,-33.446484,15.107481,7.993011,,,,,,
1466441365.55,2.607218,-0.066259,-2.070812,0.024510,0.088179,-0.012992,0.508185,0.066211,0.858699,-0.016303,0.048535,-0.036876,-33.446484,15.107481,7.993011,,,,,,
1466441365.56,2.607825,-0.066485,-2.070797,0.013782,0.037195,-0.004167,0.507656,0.066436,0.858994,-0.029125,0.065461,-0.042832,-33.465321,15.098619,7.930675,,,,,,
1466441365.57,2.607156,-0.067864,-2.070841,0.003172,0.042539,-0.016988,0.508184,0.067812,0.858575,0.023967,0.055281,-0.034890,-33.465321,15.098619,7.930675,,,,,,
1466441365.58,2.608465,-0.067756,-2.070815,-0.015883,0.150818,-0.004913,0.507064,0.067705,0.859245,-0.020171,0.065550,-0.048637,-33.465321,15.098619,7.930675,,,,,,
1466441365.59,2.609233,-0.067535,-2.070843,-0.020279,0.056293,0.005256,0.506411,0.067484,0.859647,-0.009829,0.055746,-0.070783,-33.476803,15.083154,7.911622,,,,,,
1466441365.60,2.610271,-0.067208,-2.070801,-0.034019,0.139118,0.005787,0.505529,0.067158,0.860192,0.016596,0.026089,-0.015541,-33.476803,15.083154,7.911622,,,,,,
1466441365.61,2.612088,-0.066767,-2.070862,-0.023640,-0.003286,0.051397,0.503980,0.066717,0.861135,-0.059965,-0.002676,-0.011769,-33.476803,15.083154,7.911622,,,,,,
1466441365.62,2.612175,-0.066402,-2.070755,-0.047964,0.073270,0.016830,0.503918,0.066353,0.861199,0.061649,0.025184,-0.024835,-33.506802,15.095047,7.760506,,,,,,
1466441365.63,2.613981,-0.065999,-2.070750,-0.024500,0.144331,0.040890,0.502375,0.065951,0.862131,-0.037074,-0.033831,0.039282,-33.506802,15.095047,7.760506,,,,,,
1466441365.64,2.612876,-0.065690,-2.070915,-0.018565,-0.195487,0.056865,0.503338,0.065643,0.861593,0.004231,-0.001220,-0.029058,-33.506802,15.095047,7.760506,,,,,,
1466441365.65,2.613677,-0.065431,-2.070618,-0.048825,0.212407,0.001054,0.502656,0.065385,0.862010,0.124083,0.011840,0.065587,-33.516983,15.099247,7.708187,,,,,,
1466441365.66,2.614945,-0.065548,-2.070635,0.002014,-0.024361,-0.011248,0.501559,0.065501,0.862640,-0.014773,0.006932,-0.009323,-33.516983,15.099247,7.708187,,,,,,
1466441365.68,2.609804,-0.065155,-2.070885,-0.161867,0.930220,0.004955,0.506000,0.065109,0.860073,0.119946,0.056458,0.122303,-33.511967,15.100723,7.727080,,,,,,
1466441365.67,2.606221,-0.065556,-2.071809,0.097465,-1.036542,0.080351,0.509065,0.065509,0.858231,-0.132677,-0.088855,-0.104508,-33.511967,15.100723,7.727080,,,,,,
1466441365.69,2.620472,-0.065020,-2.070570,0.056223,0.772988,-0.002357,0.496800,0.064974,0.865429,0.013011,-0.111727,0.273410,-33.511967,15.100723,7.727080,,,,,,
1466441365.70,2.615417,-0.065059,-2.070817,-0.021513,-0.879233,0.041990,0.501168,0.065013,0.862904,-0.103005,0.051274,-0.291081,-33.511967,15.100723,7.727080,,,,,,
1466441365.71,2.605909,-0.065069,-2.071261,0.043755,-0.726190,-0.022772,0.509349,0.065023,0.858100,0.103459,0.012004,0.012780,-33.561226,15.103316,7.505037,,,,,,
1466441365.72,2.609277,-0.064777,-2.070912,-0.078140,0.587275,-0.014100,0.506465,0.064732,0.859827,0.023686,0.005138,0.193655,-33.561226,15.103316,7.505037,,,,,,
1466441365.73,2.609701,-0.064574,-2.071077,0.028187,-0.295322,0.044767,0.506107,0.064530,0.860053,-0.121097,-0.066589,-0.080238,-33.561226,15.103316,7.505037,,,,,,
1466441365.74,2.601163,-0.064777,-2.071475,0.013733,-0.837803,0.014093,0.513425,0.064732,0.855689,0.016772,0.000026,-0.139716,-33.468689,15.124499,7.866890,,,,,,
1466441365.75,2.600339,-0.064580,-2.071322,-0.016933,0.159281,-0.004965,0.514137,0.064536,0.855277,0.015893,-0.000983,0.139260,-33.468689,15.124499,7.866890,,,,,,
1466441365.76,2.602055,-0.064720,-2.071310,0.015951,0.058399,-0.006428,0.512664,0.064675,0.856150,0.010194,0.010506,0.098379,-33.468689,15.124499,7.866890,,,,,,
1466441365.77,2.598332,-0.064766,-2.071481,0.021658,-0.470408,0.006474,0.515846,0.064720,0.854233,-0.035683,-0.036690,-0.025955,-33.390583,15.132456,8.177374,,,,,,
1466441365.78,2.595974,-0.064698,-2.071533,0.008267,-0.133768,-0.010552,0.517861,0.064653,0.853018,0.016990,-0.006487,0.055017,-33.390583,15.132456,8.177374,,,,,,
1466441365.79,2.596790,-0.064666,-2.071474,-0.005310,0.092377,-0.002404,0.517166,0.064621,0.853442,-0.032425,-0.007462,0.042996,-33.390583,15.132456,8.177374,,,,,,
1466441365.80,2.595427,-0.064795,-2.071616,0.017714,-0.208157,0.011213,0.518325,0.064749,0.852729,-0.046538,-0.005194,-0.042060,-33.360146,15.136552,8.293202,,,,,,
1466441365.81,2.593672,-0.064858,-2.071659,0.000805,-0.118937,0.003185,0.519819,0.064813,0.851815,-0.006818,-0.015985,-0.008812,-33.360146,15.136552,8.293202,,,,,,
1466441365.82,2.594765,-0.064839,-2.071608,0.013856,0.078594,-0.011878,0.518888,0.064794,0.852383,-0.001722,-0.003819,0.045688,-33.360146,15.136552,8.293202,,,,,,
1466441365.83,2.595213,-0.064904,-2.071654,0.006310,0.024410,0.001227,0.518503,0.064858,0.852612,-0.029078,0.011344,-0.015790,-33.333351,15.140647,8.392864,,,,,,
1466441365.84,2.595598,-0.064946,-2.071686,0.004224,0.057330,-0.000046,0.518173,0.064900,0.852810,-0.014816,0.027889,-0.026150,-33.333351,15.140647,8.392864,,,,,,
1466441365.85,2.596789,-0.065053,-2.071665,0.013932,0.131696,-0.016469,0.517154,0.065007,0.853420,0.031171,-0.072819,0.071995,-33.333351,15.140647,8.392864,,,,,,
1466441365.86,2.598146,-0.066274,-2.071667,-0.002066,0.133780,0.000530,0.515954,0.066225,0.854052,-0.019861,0.037962,-0.034472,-33.360798,15.138886,8.286316,,,,,,
1466441365.87,2.599508,-0.066181,-2.071698,-0.009525,0.147555,0.012145,0.514793,0.066133,0.854760,-0.028099,0.061431,-0.062432,-33.360798,15.138886,8.286316,,,,,,
1466441365.88,2.601994,-0.066023,-2.071675,-0.013603,0.286662,0.008075,0.512672,0.065975,0.856046,0.029885,0.017002,0.026461,-33.360798,15.138886,8.286316,,,,,,
1466441365.89,2.605959,-0.065808,-2.071627,-0.025135,0.432132,0.008216,0.509282,0.065761,0.858084,0.011242,0.010899,0.000147,-33.391609,15.128429,8.180634,,,,,,
1466441365.90,2.611332,-0.065527,-2.071487,-0.028048,0.633912,-0.006890,0.504673,0.065480,0.860824,0.036388,0.000240,0.013200,-33.391609,15.128429,8.180634,,,,,,
1466441365.91,2.618410,-0.065329,-2.071324,-0.025801,0.723111,-0.010641,0.498574,0.065282,0.864386,0.024681,-0.017995,0.011194,-33.391609,15.128429,8.180634,,,,,,
1466441365.92,2.626053,-0.065164,-2.071135,-0.023611,0.774071,-0.008829,0.491958,0.065118,0.868180,0.047929,-0.019967,0.006957,-33.538532,15.124880,7.562848,,,,,,
1466441365.93,2.633665,-0.065113,-2.070938,-0.009799,0.744345,-0.012887,0.485337,0.065067,0.871903,0.069870,-0.030338,0.036606,-33.538532,15.124880,7.562848,,,,,,
1466441365.94,2.640793,-0.065003,-2.070722,-0.009799,0.730564,-0.021316,0.479113,0.064957,0.875346,0.063581,-0.035157,-0.001750,-33.538532,15.124880,7.562848,,,,,,
1466441365.95,2.648434,-0.065022,-2.070481,-0.009743,0.771980,-0.023704,0.472410,0.064976,0.878981,0.053164,-0.004201,-0.015135,-33.653316,15.114444,7.056880,,,,,,
1466441365.96,2.655643,-0.065077,-2.070282,-0.004536,0.685960,-0.018902,0.466060,0.065031,0.882360,0.050313,-0.006224,0.000804,-33.653316,15.114444,7.056880,,,,,,
1466441365.97,2.661436,-0.065094,-2.070126,-0.005782,0.550035,-0.012728,0.460940,0.065048,0.885044,0.033963,0.013779,-0.059696,-33.653316,15.114444,7.056880,,,,,,
1466441365.98,2.666185,-0.064647,-2.070055,0.011313,0.587205,-0.020394,0.456745,0.064602,0.887249,0.077008,-0.039959,0.000736,-33.846680,15.088034,6.127412,,,,,,
1466441365.99,2.673869,-0.064844,-2.069805,0.004195,0.835703,-0.033668,0.449908,0.064799,0.890721,0.115339,-0.036921,0.036525,-33.846680,15.088034,6.127412,,,,,,
1466441366.00,2.684195,-0.065039,-2.069453,0.000270,1.089496,-0.042715,0.440681,0.064994,0.895308,0.117027,-0.007788,0.028429,-33.846680,15.088034,6.127412,,,,,,
1466441366.01,2.696550,-0.065214,-2.069004,-0.005890,1.263650,-0.049135,0.429582,0.065168,0.900674,0.122252,0.001238,0.023918,-33.922745,15.080059,5.712352,,,,,,
1466441366.02,2.707792,-0.065326,-2.068608,-0.007272,1.028960,-0.035956,0.419426,0.065279,0.905440,0.046212,0.015531,-0.063002,-33.922745,15.080059,5.712352,,,,,,
1466441366.03,2.712876,-0.065535,-2.068421,0.019493,0.312203,-0.021854,0.414811,0.065488,0.907548,0.002959,-0.004758,-0.121888,-33.922745,15.080059,5.712352,,,,,,
1466441366.04,2.710152,-0.065865,-2.068495,0.037663,-0.459775,-0.003157,0.417273,0.065818,0.906395,-0.028631,-0.020072,-0.136619,-34.142551,15.027596,4.387393,,,,,,
1466441366.05,2.700915,-0.066287,-2.068783,0.054994,-1.054426,0.012299,0.425616,0.066239,0.902476,-0.041079,-0.003433,-0.112117,-34.142551,15.027596,4.387393,,,,,,
1466441366.06,2.688632,-0.066767,-2.069186,0.059029,-1.232810,0.013422,0.436655,0.066717,0.897152,-0.012018,-0.006430,-0.044613,-34.142551,15.027596,4.387393,,,,,,
1466441366.07,2.677747,-0.067142,-2.069488,0.044371,-1.033187,0.013220,0.446383,0.067092,0.892323,0.036802,0.018372,0.014339,-34.087646,15.031820,4.782107,,,,,,
1466441366.08,2.668133,-0.067449,-2.069750,0.038091,-0.950357,0.010565,0.454931,0.067397,0.887973,0.013468,0.026154,0.004957,-34.087646,15.031820,4.782107,,,,,,
1466441366.09,2.658216,-0.067792,-2.070026,0.034832,-0.999205,0.012997,0.463704,0.067740,0.883397,0.009669,0.014932,-0.001607,-34.087646,15.031820,4.782107,,,,,,
1466441366.10,2.646969,-0.068061,-2.070338,0.042053,-1.177603,0.018381,0.473602,0.068008,0.878109,-0.012069,-0.008164,-0.001706,-33.846970,15.057170,6.201282,,,,,,
1466441366.11,2.633687,-0.068394,-2.070736,0.047159,-1.359160,0.014202,0.485211,0.068341,0.871722,-0.048627,-0.005475,-0.012164,-33.846970,15.057170,6.201282,,,,,,
1466441366.12,2.620136,-0.068692,-2.071115,0.041834,-1.353859,0.018421,0.496969,0.068638,0.865049,-0.034445,0.002620,0.015612,-33.846970,15.057170,6.201282,,,,,,
1466441366.13,2.607557,-0.068934,-2.071470,0.032407,-1.220084,0.023960,0.507802,0.068879,0.858716,-0.021230,0.026809,0.024814,-33.680126,15.074257,7.014817,,,,,,
1466441366.14,2.597161,-0.068997,-2.071762,0.016770,-0.956744,0.020163,0.516700,0.068943,0.853386,-0.044776,0.038021,0.022621,-33.680126,15.074257,7.014817,,,,,,
1466441366.15,2.590516,-0.068935,-2.071939,0.000209,-0.571313,0.021987,0.522361,0.068880,0.849938,-0.037574,0.037382,0.050758,-33.680126,15.074257,7.014817,,,,,,
1466441366.16,2.586665,-0.068835,-2.072028,-0.004805,-0.336631,0.013059,0.525634,0.068781,0.847926,-0.043518,0.008688,0.067419,-33.335533,15.108125,8.442651,,,,,,
1466441366.17,2.586347,-0.068727,-2.071930,-0.012128,-0.234679,0.011348,0.525908,0.068673,0.847765,-0.055662,0.002082,0.042219,-33.335533,15.108125,8.442651,,,,,,
1466441366.18,2.584194,-0.068612,-2.071966,-0.005717,-0.219812,0.009132,0.527736,0.068558,0.846637,-0.052928,-0.019547,0.050275,-33.335533,15.108125,8.442651,,,,,,
1466441366.19,2.581490,-0.068530,-2.072058,-0.000482,-0.285655,0.012743,0.530026,0.068477,0.845212,-0.063520,-0.020351,0.037357,-33.298500,15.109977,8.584307,,,,,,
1466441366.20,2.579138,-0.068495,-2.072127,-0.001425,-0.198569,0.005809,0.532014,0.068442,0.843965,-0.041993,-0.014868,0.039931,-33.298500,15.109977,8.584307,,,,,,
1466441366.21,2.580361,-0.067980,-2.072003,-0.004376,-0.009545,0.000364,0.531000,0.067928,0.844645,-0.027292,-0.012004,0.057119,-33.298500,15.109977,8.584307,,,,,,
1466441366.22,2.580999,-0.067998,-2.071994,0.002139,0.086023,-0.003422,0.530460,0.067945,0.844982,-0.020161,-0.016447,0.062458,-33.239628,15.120010,8.792277,,,,,,
1466441366.23,2.583402,-0.068025,-2.071884,-0.007145,0.312212,-0.012301,0.528428,0.067973,0.846253,-0.001679,-0.016627,0.040740,-33.239628,15.120010,8.792277,,,,,,
1466441366.24,2.589125,-0.068060,-2.071678,-0.006711,0.646700,-0.021850,0.523575,0.068007,0.849261,0.016586,-0.015944,0.063459,-33.239628,15.120010,8.792277,,,,,,
1466441366.25,2.597622,-0.068139,-2.071361,-0.019274,0.816598,-0.022928,0.516337,0.068086,0.853675,-0.008799,0.005675,0.023248,-33.268021,15.115651,8.691809,,,,,,
1466441366.26,2.606783,-0.068126,-2.071041,-0.016973,0.947211,-0.028003,0.508495,0.068073,0.858370,0.000752,-0.004947,0.006712,-33.268021,15.115651,8.691809,,,,,,
1466441366.27,2.617050,-0.068048,-2.070702,-0.026435,1.045957,-0.026503,0.499658,0.067995,0.863550,-0.007745,0.009794,-0.009607,-33.268021,15.115651,8.691809,,,,,,
1466441366.28,2.627567,-0.067961,-2.070354,-0.025380,1.041703,-0.024346,0.490552,0.067908,0.868762,0.024035,0.004006,-0.006182,-33.556572,15.076694,7.579005,,,,,,
1466441366.29,2.636759,-0.067828,-2.070046,-0.028812,0.864363,-0.015786,0.482550,0.067776,0.873242,0.018274,0.020954,-0.037778,-33.556572,15.076694,7.579005,,,,,,
1466441366.30,2.643487,-0.067627,-2.069852,-0.030208,0.614814,-0.004643,0.476670,0.067576,0.876481,0.000884,0.048254,-0.079041,-33.556572,15.076694,7.579005,,,,,,
1466441366.31,2.648239,-0.067720,-2.069735,-0.038869,0.512859,0.004503,0.472497,0.067668,0.878731,0.031394,0.037480,-0.051536,-33.706131,15.057470,6.925389,,,,,,
1466441366.32,2.653895,-0.067369,-2.069558,-0.037707,0.585070,0.000858,0.467530,0.067318,0.881410,0.060577,0.021214,-0.024217,-33.706131,15.057470,6.925389,,,,,,
1466441366.33,2.660118,-0.067122,-2.069333,-0.033367,0.627578,-0.013242,0.462044,0.067071,0.884317,0.078240,-0.024484,0.015432,-33.706131,15.057470,6.925389,,,,,,
1466441366.34,2.665563,-0.066848,-2.069143,-0.028226,0.495888,-0.003896,0.457230,0.066799,0.886836,0.059784,-0.008418,-0.002483,-33.862972,15.041309,6.152214,,,,,,
1466441366.35,2.668233,-0.065893,-2.069044,-0.015671,0.318562,-0.004897,0.454890,0.065845,0.888110,0.071996,-0.046879,0.020398,-33.862972,15.041309,6.152214,,,,,,
1466441366.36,2.670942,-0.065753,-2.068866,-0.016803,0.254872,-0.010886,0.452486,0.065706,0.889347,0.025587,-0.004075,-0.047841,-33.862972,15.041309,6.152214,,,,,,
1466441366.37,2.671921,-0.065752,-2.068845,0.000992,0.026549,0.000144,0.451616,0.065705,0.889790,0.033553,-0.029481,0.009121,-33.907104,15.044380,5.896320,,,,,,
1466441366.38,2.670840,-0.065696,-2.068809,-0.006657,-0.131653,0.000064,0.452579,0.065649,0.889305,0.019192,0.010706,-0.061271,-33.907104,15.044380,5.896320,,,,,,
1466441366.39,2.668235,-0.065352,-2.068886,0.004001,-0.128468,-0.004202,0.454904,0.065306,0.888143,0.033835,-0.010710,-0.009175,-33.907104,15.044380,5.896320,,,,,,
1466441366.40,2.666388,-0.065341,-2.068879,-0.001439,-0.213424,0.001648,0.456544,0.065294,0.887302,0.020781,-0.000047,-0.014895,-33.905453,15.044733,5.904901,,,,,,
1466441366.41,2.663096,-0.065355,-2.068955,0.004741,-0.369530,0.009020,0.459462,0.065309,0.885793,0.007304,0.008971,-0.037770,-33.905453,15.044733,5.904901,,,,,,
1466441366.42,2.658628,-0.065240,-2.069057,-0.006033,-0.461916,0.014911,0.463419,0.065194,0.883738,-0.006509,0.036277,-0.056422,-33.905453,15.044733,5.904901,,,,,,
1466441366.43,2.653274,-0.066315,-2.069230,-0.009215,-0.450251,0.019089,0.468111,0.066266,0.881182,0.002760,0.036868,-0.037584,-33.873787,15.046964,6.078414,,,,,,
1466441366.44,2.648791,-0.066063,-2.069324,-0.019868,-0.451313,0.021214,0.472064,0.066015,0.879089,-0.000217,0.029367,-0.022064,-33.873787,15.046964,6.078414,,,,,,
1466441366.45,2.644168,-0.065734,-2.069449,-0.023086,-0.461944,0.026600,0.476134,0.065687,0.876916,-0.013976,0.031222,-0.032312,-33.873787,15.046964,6.078414,,,,,,
1466441366.46,2.640145,-0.065446,-2.069543,-0.028339,-0.403544,0.027292,0.479667,0.065399,0.875010,-0.002189,0.003174,0.013646,-33.749088,15.059295,6.708812,,,,,,
1466441366.47,2.637283,-0.064982,-2.069586,-0.031348,-0.264431,0.021095,0.482183,0.064937,0.873661,0.008708,-0.000544,0.030591,-33.749088,15.059295,6.708812,,,,,,
1466441366.48,2.636335,-0.064545,-2.069581,-0.035346,-0.059494,0.017677,0.483025,0.064500,0.873228,0.009208,0.000762,0.029726,-33.749088,15.059295,6.708812,,,,,,
1466441366.49,2.637892,-0.063564,-2.069473,-0.045622,0.228249,0.009481,0.481695,0.063522,0.874034,0.029917,-0.013122,0.054189,-33.694901,15.071444,6.949608,,,,,,
1466441366.50,2.642606,-0.062083,-2.069254,-0.043153,0.489476,-0.000668,0.477614,0.062043,0.876376,0.015458,-0.033372,0.047208,-33.694901,15.071444,6.949608,,,,,,
1466441366.51,2.647849,-0.060650,-2.069022,-0.037812,0.500104,-0.004985,0.473055,0.060613,0.878946,0.011274,-0.044728,0.024726,-33.694901,15.071444,6.949608,,,,,,
1466441366.52,2.651999,-0.058835,-2.068843,-0.018843,0.346140,-0.006125,0.469454,0.058801,0.880997,0.004408,-0.059594,0.021469,-33.742710,15.096983,6.656000,,,,,,
1466441366.53,2.653401,-0.058826,-2.068747,-0.000036,0.055205,-0.007475,0.468218,0.058792,0.881655,-0.022997,-0.054657,0.011168,-33.742710,15.096983,6.656000,,,,,,
1466441366.54,2.650579,-0.059021,-2.068790,0.026008,-0.402445,-0.004579,0.470699,0.058987,0.880320,-0.051296,-0.045284,-0.007914,-33.742710,15.096983,6.656000,,,,,,
1466441366.55,2.643372,-0.059377,-2.069063,0.052107,-0.799601,0.008583,0.477021,0.059342,0.876886,-0.015672,-0.026307,0.012182,-33.769779,15.106423,6.495363,,,,,,
1466441366.56,2.636231,-0.059778,-2.069274,0.042758,-0.633920,-0.005239,0.483259,0.059743,0.873437,0.007876,-0.015095,0.052100,-33.769779,15.106423,6.495363,,,,,,
1466441366.57,2.632699,-0.060183,-2.069291,0.038954,-0.289862,-0.019109,0.486329,0.060147,0.871703,-0.009431,-0.032284,0.070787,-33.769779,15.106423,6.495363,,,,,,
1466441366.58,2.629188,-0.060717,-2.069406,0.056912,-0.398184,-0.015219,0.489371,0.060680,0.869962,-0.014136,-0.027003,-0.009931,-33.631142,15.110554,7.170024,,,,,,
1466441366.59,2.624899,-0.061275,-2.069457,0.049470,-0.406645,-0.025818,0.493081,0.061236,0.867826,0.006309,-0.011706,0.030398,-33.631142,15.110554,7.170024,,,,,,
1466441366.60,2.622421,-0.062305,-2.069474,0.057059,-0.296224,-0.024375,0.495198,0.062265,0.866546,-0.017919,0.012778,0.012559,-33.631142,15.110554,7.170024,,,,,,
1466441366.62,2.615716,-0.063468,-2.069697,0.059155,-0.317469,-0.021046,0.500960,0.063426,0.863143,0.000627,0.002553,0.027131,-33.580238,15.104942,7.416207,,,,,,
1466441366.61,2.619074,-0.062875,-2.069584,0.054849,-0.350392,-0.017651,0.498078,0.062834,0.864853,-0.011170,0.000353,-0.009323,-33.580238,15.104942,7.416207,,,,,,
1466441366.63,2.613216,-0.064081,-2.069769,0.056073,-0.233577,-0.024769,0.503097,0.064038,0.861854,-0.009368,-0.007183,0.025887,-33.580238,15.104942,7.416207,,,,,,
1466441366.64,2.611197,-0.065022,-2.069821,0.061393,-0.241004,-0.026847,0.504806,0.064976,0.860784,-0.009429,0.008693,0.007487,-33.508762,15.086631,7.768399,,,,,,
1466441366.65,2.608998,-0.065647,-2.069906,0.058240,-0.202787,-0.023896,0.506676,0.065600,0.859637,-0.018487,0.020368,-0.008410,-33.508762,15.086631,7.768399,,,,,,
1466441366.66,2.608042,-0.066129,-2.069924,0.037123,-0.056256,-0.021643,0.507482,0.066081,0.859125,-0.032736,0.041234,-0.018121,-33.485973,15.075177,7.887973,,,,,,
1466441366.67,2.607892,-0.066492,-2.069946,0.030773,-0.013801,-0.014464,0.507599,0.066443,0.859028,-0.022858,0.055840,-0.014835,-33.485973,15.075177,7.887973,,,,,,
1466441366.68,2.608162,-0.067920,-2.069953,0.018045,0.029725,-0.009431,0.507318,0.067867,0.859082,-0.018136,0.033481,-0.021085,-33.485973,15.075177,7.887973,,,,,,
1466441366.69,2.609642,-0.068024,-2.069903,0.003332,0.186874,-0.008302,0.506043,0.067972,0.859826,-0.036041,0.058081,-0.050179,-33.483215,15.067840,7.913674,,,,,,
1466441366.71,2.613669,-0.067852,-2.069866,-0.021175,0.205940,0.012843,0.502582,0.067800,0.861867,-0.006748,0.041468,-0.032155,-33.483215,15.067840,7.913674,,,,,,
1466441366.70,2.611713,-0.068029,-2.069888,0.000138,0.197476,-0.001985,0.504260,0.067976,0.860872,-0.000384,0.050035,-0.012255,-33.483215,15.067840,7.913674,,,,,,
1466441366.72,2.616278,-0.068849,-2.069841,-0.029411,0.419373,0.007235,0.500297,0.068795,0.863116,0.023659,0.038062,-0.020465,-33.539680,15.051314,7.703207,,,,,,
1466441366.74,2.629323,-0.068299,-2.069469,-0.034370,0.704988,-0.003068,0.489014,0.068246,0.869602,0.043441,-0.015679,-0.020008,-33.539680,15.051314,7.703207,,,,,,
1466441366.73,2.622327,-0.068574,-2.069660,-0.031242,0.648716,-0.004841,0.495076,0.068520,0.866144,0.054667,-0.035256,0.036582,-33.539680,15.051314,7.703207,,,,,,
1466441366.75,2.636151,-0.068177,-2.069233,-0.019499,0.661473,-0.012361,0.483069,0.068124,0.872928,0.044428,-0.028405,0.012036,-33.613094,15.037160,7.405092,,,,,,
1466441366.76,2.641510,-0.067985,-2.069067,-0.024980,0.539360,-0.009471,0.478391,0.067933,0.875516,0.050387,0.002288,0.017002,-33.613094,15.037160,7.405092,,,,,,
1466441366.77,2.646591,-0.067850,-2.068912,-0.020766,0.508557,-0.006081,0.473940,0.067798,0.877943,0.021360,0.003216,-0.034895,-33.613094,15.037160,7.405092,,,,,,
1466441366.78,2.651993,-0.067694,-2.068720,-0.019645,0.544673,-0.011628,0.469195,0.067642,0.880500,0.042035,-0.030975,0.021020,-33.613094,15.037160,7.405092,,,,,,
1466441366.79,2.656643,-0.067675,-2.068584,-0.007020,0.425741,-0.009805,0.465097,0.067623,0.882673,0.021918,-0.009823,-0.020933,-33.787220,15.020058,6.604035,,,,,,
1466441366.80,2.659250,-0.067507,-2.068512,-0.010268,0.377965,-0.012702,0.462799,0.067456,0.883893,0.048645,-0.002408,0.006305,-33.787220,15.020058,6.604035,,,,,,
1466441366.81,2.663858,-0.067459,-2.068361,-0.015454,0.492633,-0.010233,0.458723,0.067408,0.886019,0.038836,0.023382,-0.005251,-33.854877,15.011094,6.269448,,,,,,
1466441366.82,2.669427,-0.067310,-2.068140,-0.022811,0.565907,-0.012828,0.453786,0.067259,0.888569,0.040797,0.010103,-0.011280,-33.854877,15.011094,6.269448,,,,,,
1466441366.83,2.675053,-0.067200,-2.067934,-0.018560,0.556355,-0.014893,0.448783,0.067149,0.891114,0.050698,0.002706,-0.014573,-33.854877,15.011094,6.269448,,,,,,
1466441366.84,2.679111,-0.066763,-2.067813,-0.020722,0.532987,-0.013683,0.445177,0.066713,0.892954,0.052336,-0.010790,-0.013178,-33.969788,14.994646,5.657373,,,,,,
1466441366.86,2.691784,-0.066544,-2.067274,-0.027878,0.755992,-0.023605,0.433831,0.066495,0.898537,0.084373,0.006320,-0.010933,-33.969788,14.994646,5.657373,,,,,,
1466441366.85,2.684690,-0.066674,-2.067585,-0.018528,0.577593,-0.018219,0.440190,0.066625,0.895429,0.076579,-0.001439,-0.014250,-33.969788,14.994646,5.657373,,,,,,
1466441366.87,2.700166,-0.066385,-2.066912,-0.029893,0.844129,-0.026288,0.426289,0.066337,0.902152,0.081188,0.004769,-0.025870,-34.023819,14.988548,5.339909,,,,,,
1466441366.88,2.706686,-0.066201,-2.066643,-0.026797,0.763426,-0.026843,0.420403,0.066153,0.904923,0.083595,-0.003790,-0.046479,-34.023819,14.988548,5.339909,,,,,,
1466441366.89,2.713559,-0.066107,-2.066291,-0.021607,0.655123,-0.027223,0.414176,0.066059,0.907797,0.085000,-0.019779,-0.031042,-34.023819,14.988548,5.339909,,,,,,
1466441366.90,2.718622,-0.066107,-2.066008,-0.009104,0.438506,-0.024788,0.409574,0.066059,0.909882,0.064349,-0.026371,-0.043427,-34.177464,14.951870,4.374269,,,,,,
1466441366.91,2.720420,-0.066220,-2.065799,0.005365,0.088106,-0.023640,0.407935,0.066172,0.910610,0.043176,-0.019419,-0.053188,-34.177464,14.951870,4.374269,,,,,,
1466441366.92,2.717415,-0.066039,-2.065822,0.017735,-0.223036,-0.014224,0.410674,0.065991,0.909391,0.022355,-0.013073,-0.046827,-34.177464,14.951870,4.374269,,,,,,
1466441366.93,2.714071,-0.066284,-2.065796,0.022890,-0.355767,-0.012322,0.413706,0.066236,0.907998,0.023092,-0.005125,-0.020898,-34.177464,14.951870,4.374269,,,,,,
1466441366.94,2.710142,-0.066545,-2.065776,0.022824,-0.409916,-0.013047,0.417263,0.066496,0.906350,0.024647,-0.002256,-0.019250,-34.187370,14.933801,4.358543,,,,,,
1466441366.95,2.704788,-0.066820,-2.065798,0.027917,-0.589372,-0.008723,0.422102,0.066770,0.904086,0.032121,-0.002561,-0.036990,-34.187370,14.933801,4.358543,,,,,,
1466441366.96,2.696310,-0.066946,-2.065959,0.035148,-0.765641,-0.007609,0.429748,0.066896,0.900467,0.036728,-0.009187,-0.025574,-34.148788,14.928401,4.668468,,,,,,
1466441366.97,2.688322,-0.067313,-2.066054,0.038303,-0.797496,-0.007406,0.436917,0.067263,0.896984,0.025150,-0.006639,-0.008190,-34.148788,14.928401,4.668468,,,,,,
1466441366.98,2.680312,-0.067683,-2.066148,0.036163,-0.807048,-0.008413,0.444076,0.067631,0.893433,0.017716,0.000683,-0.007813,-34.148788,14.928401,4.668468,,,,,,
1466441366.99,2.671387,-0.068045,-2.066277,0.038137,-0.922801,-0.002363,0.452021,0.067992,0.889412,-0.023890,0.008454,-0.014549,-34.067184,14.931761,5.221227,,,,,,
1466441367.01,2.652079,-0.068766,-2.066617,0.033785,-0.988643,0.003368,0.469086,0.068712,0.880476,-0.040161,0.020842,0.014590,-34.067184,14.931761,5.221227,,,,,,
1466441367.00,2.661964,-0.068473,-2.066424,0.039126,-0.980143,0.000126,0.460368,0.068420,0.885087,-0.042201,0.008347,0.016356,-34.067184,14.931761,5.221227,,,,,,
1466441367.02,2.641885,-0.069009,-2.066800,0.029464,-1.036425,0.004727,0.478028,0.068954,0.875634,-0.028062,0.022431,-0.008919,-33.858665,14.935369,6.427842,,,,,,
1466441367.04,2.612437,-0.069434,-2.067540,0.044364,-1.849844,0.035390,0.503589,0.069378,0.861153,-0.066684,0.024708,-0.011101,-33.858665,14.935369,6.427842,,,,,,
1466441367.03,2.629551,-0.069211,-2.067072,0.032278,-1.323143,0.017173,0.488785,0.069155,0.869659,-0.053116,0.020933,-0.010696,-33.858665,14.935369,6.427842,,,,,,
1466441367.05,2.590030,-0.069603,-2.068246,0.054348,-2.343649,0.060851,0.522750,0.069547,0.849644,-0.086257,0.027057,0.003841,-33.702847,14.945763,7.178720,,,,,,
1466441367.06,2.567373,-0.069790,-2.068953,0.046100,-2.150358,0.045792,0.541857,0.069733,0.837573,-0.057223,0.022460,0.045759,-33.702847,14.945763,7.178720,,,,,,
1466441367.07,2.550358,-0.069745,-2.069406,0.018094,-1.570580,0.034677,0.556031,0.069688,0.828235,-0.063218,0.016005,0.118787,-33.702847,14.945763,7.178720,,,,,,
1466441367.08,2.535694,-0.069748,-2.069877,0.028831,-1.485663,0.042671,0.568117,0.069691,0.819992,-0.100084,0.006267,0.078720,-33.702847,14.945763,7.178720,,,,,,
1466441367.09,2.521791,-0.069692,-2.070248,0.009906,-1.311489,0.030915,0.579464,0.069635,0.812018,-0.108623,0.001486,0.070597,-33.006393,15.016835,9.791025,,,,,,
1466441367.10,2.512009,-0.069573,-2.070545,0.008332,-0.866596,0.029188,0.587384,0.069517,0.806317,-0.142926,0.007937,0.147311,-33.006393,15.016835,9.791025,,,,,,
1466441367.11,2.505886,-0.069389,-2.070753,-0.007222,-0.532123,0.028139,0.592318,0.069334,0.802716,-0.160250,0.020007,0.115466,-32.703148,15.044980,10.721207,,,,,,
1466441367.12,2.509838,-0.069612,-2.070384,-0.019490,-0.138138,0.019266,0.589132,0.069556,0.805038,-0.147863,0.013147,0.100388,-32.703148,15.044980,10.721207,,,,,,
1466441367.13,2.511633,-0.069253,-2.070362,-0.031751,0.277028,0.018779,0.587700,0.069198,0.806114,-0.150490,0.023042,0.109749,-32.703148,15.044980,10.721207,,,,,,
1466441367.14,2.516973,-0.068850,-2.070228,-0.045158,0.616823,0.012377,0.583404,0.068795,0.809264,-0.138518,0.016166,0.089647,-32.587383,15.053201,11.056911,,,,,,
1466441367.15,2.525761,-0.068349,-2.069983,-0.057494,0.962986,0.007000,0.576289,0.068296,0.814387,-0.120600,0.018618,0.087788,-32.587383,15.053201,11.056911,,,,,,
1466441367.16,2.537748,-0.067820,-2.069671,-0.064598,1.243303,0.006300,0.566506,0.067768,0.821266,-0.085565,0.015178,0.074593,-32.587383,15.053201,11.056911,,,,,,
1466441367.17,2.551507,-0.067216,-2.069262,-0.075027,1.406843,-0.001123,0.555176,0.067165,0.829017,-0.041153,0.006672,0.045465,-32.587383,15.053201,11.056911,,,,,,
1466441367.18,2.566212,-0.066617,-2.068835,-0.073861,1.484360,-0.003737,0.542947,0.066568,0.837124,-0.013864,-0.001703,0.028843,-32.998180,15.038006,9.786222,,,,,,
1466441367.19,2.581376,-0.066045,-2.068379,-0.071677,1.520472,-0.008219,0.530212,0.065997,0.845293,0.005570,-0.016528,0.030852,-32.998180,15.038006,9.786222,,,,,,
1466441367.20,2.596773,-0.065521,-2.067912,-0.065254,1.539596,-0.013655,0.517152,0.065474,0.853386,0.019652,-0.027647,0.031517,-33.277069,15.021013,8.820286,,,,,,
1466441367.21,2.612477,-0.065078,-2.067461,-0.058813,1.576765,-0.017075,0.503701,0.065032,0.861427,0.029776,-0.024429,0.033364,-33.277069,15.021013,8.820286,,,,,,
1466441367.22,2.628092,-0.064691,-2.067006,-0.055655,1.540674,-0.021103,0.490202,0.064646,0.869208,0.062212,-0.020991,0.002176,-33.277069,15.021013,8.820286,,,,,,
1466441367.23,2.642632,-0.064355,-2.066572,-0.049418,1.418566,-0.021396,0.477522,0.064311,0.876263,0.078279,-0.016840,-0.025005,-33.277069,15.021013,8.820286,,,,,,
1466441367.24,2.655978,-0.064028,-2.066186,-0.044220,1.319812,-0.019707,0.465795,0.063984,0.882576,0.071055,-0.008351,-0.026055,-33.765438,14.978936,6.805754,,,,,,
1466441367.25,2.668422,-0.063745,-2.065816,-0.041158,1.212572,-0.020095,0.454785,0.063702,0.888320,0.072131,-0.008999,-0.024474,-33.765438,14.978936,6.805754,,,,,,
1466441367.26,2.679520,-0.063490,-2.065487,-0.036012,1.074529,-0.017096,0.444906,0.063447,0.893327,0.066477,-0.005555,-0.035829,-33.935310,14.960326,5.947697,,,,,,
1466441367.27,2.689964,-0.063236,-2.065161,-0.039244,1.044800,-0.016912,0.435559,0.063194,0.897939,0.058795,0.014947,-0.037877,-33.935310,14.960326,5.947697,,,,,,
1466441367.28,2.700927,-0.062960,-2.064844,-0.042305,1.145681,-0.020742,0.425696,0.062919,0.902676,0.063134,0.010598,-0.025219,-33.935310,14.960326,5.947697,,,,,,
1466441367.29,2.713022,-0.062642,-2.064450,-0.046481,1.211514,-0.021159,0.414756,0.062601,0.907777,0.084420,-0.009271,-0.016557,-33.935310,14.960326,5.947697,,,,,,
1466441367.30,2.724163,-0.062338,-2.064093,-0.041342,1.066042,-0.019177,0.404624,0.062297,0.912359,0.089532,0.001484,-0.044927,-34.178036,14.926658,4.455174,,,,,,
1466441367.31,2.733337,-0.062039,-2.063792,-0.040529,0.871720,-0.013699,0.396246,0.061999,0.916049,0.102549,0.015790,-0.081973,-34.178036,14.926658,4.455174,,,,,,
1466441367.32,2.740726,-0.061750,-2.063535,-0.041729,0.763414,-0.013021,0.389473,0.061711,0.918968,0.118706,0.011424,-0.073418,-34.178036,14.926658,4.455174,,,,,,
1466441367.33,2.747161,-0.061408,-2.063281,-0.041955,0.587149,-0.009787,0.383559,0.061370,0.921475,0.109132,0.012712,-0.076001,-34.266750,14.911132,3.773536,,,,,,
1466441367.34,2.750548,-0.061093,-2.063119,-0.031748,0.247346,-0.000195,0.380443,0.061055,0.922787,0.101597,0.009334,-0.079586,-34.266750,14.911132,3.773536,,,,,,
1466441367.35,2.750335,-0.060820,-2.063034,-0.026876,-0.109428,0.004177,0.380646,0.060783,0.922721,0.091277,0.003640,-0.085975,-34.266750,14.911132,3.773536,,,,,,
1466441367.36,2.742089,-0.061060,-2.063347,-0.018811,-0.458811,0.014891,0.388236,0.061022,0.919537,0.072228,0.008314,-0.078656,-34.329285,14.898554,3.213235,,,,,,
1466441367.37,2.735352,-0.060867,-2.063477,-0.012775,-0.731713,0.021931,0.394427,0.060830,0.916912,0.061078,0.005165,-0.073543,-34.329285,14.898554,3.213235,,,,,,
1466441367.38,2.727227,-0.060676,-2.063633,-0.010760,-0.823029,0.022506,0.401868,0.060639,0.913688,0.058963,0.003020,-0.045615,-34.329285,14.898554,3.213235,,,,,,
1466441367.39,2.719128,-0.060471,-2.063804,-0.012866,-0.800736,0.024493,0.409260,0.060434,0.910414,0.029934,0.004416,-0.014815,-34.271626,14.912628,3.723044,,,,,,
1466441367.40,2.710462,-0.060312,-2.064020,-0.011866,-0.847466,0.027980,0.417138,0.060275,0.906842,0.012504,0.003919,-0.002530,-34.271626,14.912628,3.723044,,,,,,
1466441367.41,2.701197,-0.060088,-2.064254,-0.010929,-0.946220,0.030729,0.425528,0.060052,0.902950,-0.000724,0.004828,-0.013180,-34.271626,14.912628,3.723044,,,,,,
1466441367.42,2.691393,-0.059878,-2.064515,-0.007784,-0.982329,0.033088,0.434365,0.059842,0.898747,0.013907,-0.000135,-0.003376,-34.109283,14.946092,4.895174,,,,,,
1466441367.43,2.682220,-0.059447,-2.064615,-0.044932,-0.901590,0.024029,0.442602,0.059412,0.894748,0.094263,0.015661,-0.052859,-34.109283,14.946092,4.895174,,,,,,
1466441367.44,2.670311,-0.059266,-2.064925,0.017403,-1.265859,0.040214,0.453231,0.059231,0.889423,0.222077,-0.025738,-0.094471,-34.109283,14.946092,4.895174,,,,,,
1466441367.45,2.655677,-0.059032,-2.065252,-0.016989,-1.528095,0.037566,0.466205,0.058997,0.882707,0.291577,0.005288,-0.193453,-34.001305,14.964412,5.546993,,,,,,
1466441367.46,2.633919,-0.058865,-2.065534,0.014866,-2.455050,0.038089,0.485303,0.058831,0.872364,0.464694,-0.005089,-0.307438,-34.001305,14.964412,5.546993,,,,,,
1466441367.47,2.604923,-0.058951,-2.066364,0.049334,-2.940394,0.070972,0.510389,0.058917,0.857923,0.237109,-0.009525,-0.200513,-34.001305,14.964412,5.546993,,,,,,
1466441367.48,2.571866,-0.058931,-2.067158,0.047509,-3.554103,0.070561,0.538465,0.058897,0.840587,0.450823,-0.014768,-0.142680,-33.445969,15.026921,8.145577,,,,,,
1466441367.49,2.520474,-0.059287,-2.068729,0.141575,-5.752176,0.118503,0.580923,0.059252,0.811799,0.534632,-0.007235,-0.286500,-33.445969,15.026921,8.145577,,,,,,
1466441367.50,2.444911,-0.059528,-2.070892,0.139646,-8.068090,0.177733,0.640539,0.059493,0.765617,0.507532,-0.014876,-0.224571,-33.445969,15.026921,8.145577,,,,,,
1466441367.51,2.357676,-0.059252,-2.073251,0.168573,-8.765724,0.187459,0.704820,0.059217,0.706911,0.258849,0.052111,0.086684,-32.615261,15.101177,10.908293,,,,,,
1466441367.52,2.266614,-0.058917,-2.076273,0.184944,-9.222434,0.236111,0.766198,0.058883,0.639901,0.223975,0.017106,0.495826,-32.615261,15.101177,10.908293,,,,,,
1466441367.53,2.184534,-0.058312,-2.078330,0.095869,-8.844494,0.291127,0.816112,0.058279,0.574948,-0.680064,0.059213,0.409976,-32.615261,15.101177,10.908293,,,,,,
1466441367.54,2.152612,-0.057658,-2.079771,0.045904,-0.564060,0.068833,0.834078,0.057626,0.548629,-2.464525,-0.042596,2.163835,-27.111523,15.425354,20.924040,,,,,,
1466441367.55,2.222870,-0.057802,-2.077605,-0.221771,8.976903,-0.183937,0.793499,0.057770,0.605823,-1.779355,-0.050263,2.682858,-27.111523,15.425354,20.924040,,,,,,
1466441367.56,2.321320,-0.058526,-2.074585,-0.148886,9.226625,-0.270586,0.730080,0.058493,0.680854,0.342567,-0.014273,0.567193,-27.111523,15.425354,20.924040,,,,,,
1466441367.57,2.357710,-0.058896,-2.072661,-0.081037,1.523974,-0.113636,0.704810,0.058862,0.706949,1.403100,-0.047723,-1.494974,-27.893246,15.406837,19.884363,,,,,,
1466441367.58,2.337743,-0.059804,-2.073293,0.142657,-2.497435,0.002286,0.718745,0.059769,0.692700,0.737141,-0.004883,-1.266873,-30.373907,15.234038,16.004417,,,,,,
1466441367.59,2.321848,-0.059756,-2.073668,-0.018624,-1.140479,0.032999,0.729667,0.059721,0.681190,0.302819,0.018221,-0.069755,-30.373907,15.234038,16.004417,,,,,,
1466441367.60,2.312852,-0.059316,-2.074175,0.027145,-1.076923,0.079482,0.735784,0.059281,0.674616,0.290278,0.043441,0.038290,-30.373907,15.234038,16.004417,,,,,,
1466441367.61,2.288540,-0.058883,-2.075156,0.049381,-2.861845,0.098150,0.751986,0.058849,0.656547,0.189436,0.026539,-0.249626,-29.780701,15.258314,17.061222,,,,,,
1466441367.63,2.246307,-0.059279,-2.076850,0.033056,-0.749647,-0.010914,0.779017,0.059245,0.624198,-0.285273,-0.013087,0.405541,-29.780701,15.258314,17.061222,,,,,,
1466441367.62,2.258986,-0.058988,-2.076359,0.109259,-2.727971,0.054792,0.771054,0.058954,0.634035,-0.119397,-0.029169,0.108900,-29.780701,15.258314,17.061222,,,,,,
1466441367.64,2.245790,-0.059743,-2.076716,0.025534,-0.008414,-0.048568,0.779318,0.059708,0.623778,-0.099279,-0.021545,0.243974,-28.375715,15.367214,19.221321,,,,,,
1466441367.66,2.233940,-0.060151,-2.077099,0.039346,-0.829275,-0.012536,0.786636,0.060115,0.614484,0.039872,-0.001857,-0.070111,-28.375715,15.367214,19.221321,,,,,,
1466441367.65,2.242000,-0.059750,-2.076846,0.056681,-0.617938,-0.030875,0.781676,0.059714,0.620819,-0.031203,-0.014594,0.000931,-28.375715,15.367214,19.221321,,,,,,
1466441367.67,2.223640,-0.060340,-2.077420,0.038925,-1.130886,0.010644,0.792914,0.060304,0.606342,0.126931,0.008849,-0.093631,-28.375715,15.367214,19.221321,,,,,,
1466441367.68,2.208754,-0.060470,-2.077958,0.054303,-1.582198,0.027328,0.801846,0.060433,0.594467,0.083347,-0.003991,-0.062378,-27.941072,15.375097,19.841736,,,,,,
1466441367.69,2.193029,-0.060632,-2.078538,0.053345,-1.514213,0.016256,0.811086,0.060595,0.581779,0.001002,0.002301,0.014198,-27.941072,15.375097,19.841736,,,,,,
1466441367.70,2.180275,-0.060820,-2.078855,0.031404,-1.200935,0.001496,0.818430,0.060782,0.571382,-0.028758,-0.007910,0.058104,-27.315741,15.408653,20.669186,,,,,,
1466441367.71,2.170660,-0.061020,-2.079090,0.030786,-0.851590,-0.004953,0.823876,0.060982,0.563479,-0.146340,0.013801,0.101056,-27.315741,15.408653,20.669186,,,,,,
1466441367.72,2.166775,-0.061105,-2.079225,0.008110,-0.234706,0.003929,0.826055,0.061067,0.560272,-0.183248,0.018600,0.196244,-27.315741,15.408653,20.669186,,,,,,
1466441367.73,2.165837,-0.060932,-2.079262,-0.007755,-0.116926,0.020213,0.826589,0.060894,0.559502,-0.061498,0.025699,0.083534,-27.315741,15.408653,20.669186,,,,,,
1466441367.75,2.153373,-0.060473,-2.079764,0.016840,-0.859176,0.038731,0.833522,0.060436,0.549171,0.065465,-0.006161,-0.059624,-26.742212,15.429238,21.391224,,,,,,
1466441367.74,2.161450,-0.060695,-2.079432,0.004451,-0.558665,0.031512,0.829048,0.060658,0.555878,0.044198,0.005398,-0.062196,-26.742212,15.429238,21.391224,,,,,,
1466441367.76,2.145143,-0.060253,-2.080073,0.011629,-0.776341,0.033948,0.838024,0.060216,0.542300,0.005238,-0.009816,0.001279,-26.742212,15.429238,21.391224,,,,,,
1466441367.77,2.139304,-0.060074,-2.080272,0.006645,-0.519359,0.023816,0.841185,0.060038,0.537404,-0.042418,-0.010279,0.072871,-26.463995,15.450295,21.719505,,,,,,
1466441367.78,2.135708,-0.059971,-2.080457,0.011169,-0.314422,0.018277,0.843118,0.059935,0.534379,-0.060693,0.003938,0.106063,-26.463995,15.450295,21.719505,,,,,,
1466441367.79,2.132728,-0.060046,-2.080590,0.002527,-0.399385,0.028381,0.844702,0.060010,0.531862,0.011346,0.006992,0.025771,-26.463995,15.450295,21.719505,,,,,,
1466441367.81,2.114534,-0.059542,-2.081354,0.027080,-1.185152,0.040785,0.854264,0.059507,0.516422,0.094802,0.008425,-0.081592,-25.998716,15.481593,22.252613,,,,,,
1466441367.80,2.125681,-0.059776,-2.080923,0.017947,-0.819899,0.042743,0.848443,0.059741,0.525904,0.078864,0.021131,-0.064952,-25.998716,15.481593,22.252613,,,,,,
1466441367.82,2.102065,-0.059465,-2.081790,0.035551,-1.244579,0.027328,0.860641,0.059430,0.505732,0.062027,-0.008710,-0.007045,-25.998716,15.481593,22.252613,,,,,,
1466441367.83,2.090133,-0.059366,-2.082258,0.035634,-1.170267,0.032184,0.866619,0.059331,0.495430,-0.007000,-0.006689,0.062675,-25.577824,15.511614,22.714676,,,,,,
1466441367.85,2.074047,-0.059001,-2.083035,0.018247,-0.604312,0.026489,0.874495,0.058967,0.481437,-0.078703,-0.003348,0.107568,-25.007925,15.542856,23.319841,,,,,,
1466441367.84,2.080594,-0.059176,-2.082711,0.027486,-0.861302,0.038754,0.871315,0.059142,0.487146,-0.098763,0.000871,0.101629,-25.007925,15.542856,23.319841,,,,,,
1466441367.86,2.069510,-0.058958,-2.083233,0.012168,-0.389769,0.004912,0.876673,0.058923,0.477465,-0.089563,-0.013178,0.095350,-25.007925,15.542856,23.319841,,,,,,
1466441367.88,2.073348,-0.057832,-2.083105,-0.005580,-0.064891,0.028405,0.874891,0.057800,0.480858,-0.046873,0.006577,0.067619,-24.619875,15.571898,23.710114,,,,,,
1466441367.87,2.073850,-0.058025,-2.082989,0.006159,-0.066979,0.013528,0.874640,0.057992,0.481291,-0.094458,-0.021844,0.097505,-24.619875,15.571898,23.710114,,,,,,
1466441367.89,2.072126,-0.058560,-2.083206,-0.003564,-0.148791,0.035317,0.875441,0.058527,0.479768,-0.033461,0.019888,-0.013780,-24.619875,15.571898,23.710114,,,,,,
1466441367.91,2.078800,-0.057476,-2.082974,-0.009360,0.304666,0.018630,0.872274,0.057445,0.485631,-0.057699,-0.005626,0.104106,-24.567230,15.581914,23.758093,,,,,,
1466441367.90,2.071254,-0.058321,-2.083297,-0.007666,-0.045756,0.020829,0.875871,0.058288,0.479011,-0.024889,-0.000549,0.022927,-24.567230,15.581914,23.758093,,,,,,
1466441367.92,2.085117,-0.057168,-2.082814,-0.022975,0.484129,0.016426,0.869205,0.057136,0.491140,-0.026446,-0.002281,0.025660,-24.567230,15.581914,23.758093,,,,,,
1466441367.94,2.094298,-0.056859,-2.082631,-0.017642,0.469299,0.002687,0.864675,0.056829,0.499108,-0.020131,-0.003331,0.032402,-24.711918,15.585340,23.605293,,,,,,
1466441367.93,2.089683,-0.056974,-2.082733,-0.011298,0.448037,0.011342,0.866963,0.056943,0.495109,-0.009205,-0.003812,0.010079,-24.711918,15.585340,23.605293,,,,,,
1466441367.95,2.099551,-0.056800,-2.082512,-0.011146,0.550002,-0.001006,0.862044,0.056769,0.503645,-0.035994,0.001855,0.059115,-24.711918,15.585340,23.605293,,,,,,
1466441367.96,2.107332,-0.056673,-2.082298,-0.016309,0.672130,-0.006035,0.858105,0.056643,0.510341,-0.012218,-0.002291,0.028920,-24.711918,15.585340,23.605293,,,,,,
1466441367.97,2.114306,-0.056615,-2.082081,-0.021606,0.693369,-0.006174,0.854527,0.056585,0.516315,-0.002278,-0.002874,0.009823,-24.711918,15.585340,23.605293,,,,,,
1466441367.98,2.121466,-0.056513,-2.081870,-0.017377,0.666830,-0.008132,0.850814,0.056483,0.522423,-0.002395,-0.002848,0.013878,-25.528849,15.564914,22.733299,,,,,,
1466441367.99,2.128616,-0.056520,-2.081647,-0.019466,0.696566,-0.009385,0.847056,0.056490,0.528492,0.002080,0.001600,0.009243,-25.528849,15.564914,22.733299,,,,,,
1466441368.00,2.136066,-0.056574,-2.081411,-0.021597,0.700807,-0.006221,0.843093,0.056544,0.534787,-0.007247,0.002996,0.006458,-25.853296,15.551728,22.372807,,,,,,
1466441368.01,2.143270,-0.056457,-2.081183,-0.021600,0.699743,-0.005149,0.839224,0.056427,0.540850,0.005060,-0.001984,0.012754,-25.853296,15.551728,22.372807,,,,,,
1466441368.02,2.150155,-0.056295,-2.081023,-0.015263,0.664692,-0.001730,0.835488,0.056265,0.546620,0.006751,-0.004004,0.006664,-25.853296,15.551728,22.372807,,,,,,
1466441368.03,2.156412,-0.055972,-2.080915,-0.013210,0.610528,0.002870,0.832067,0.055942,0.551847,0.005763,-0.007526,0.001971,-25.853296,15.551728,22.372807,,,,,,
1466441368.04,2.162377,-0.055647,-2.080823,-0.012164,0.591424,-0.000201,0.828776,0.055619,0.556810,0.009466,-0.007493,0.002379,-26.463387,15.533384,21.660908,,,,,,
1466441368.05,2.168554,-0.055397,-2.080691,-0.015375,0.578685,-0.000124,0.825332,0.055369,0.561927,-0.007079,-0.005000,0.004449,-26.463387,15.533384,21.660908,,,,,,
1466441368.06,2.174540,-0.055340,-2.080557,-0.013203,0.607362,-0.003495,0.821956,0.055312,0.566859,-0.003398,-0.003325,0.016698,-26.718735,15.531865,21.346241,,,,,,
1466441368.07,2.180680,-0.055305,-2.080434,-0.013199,0.610547,-0.003515,0.818461,0.055276,0.571897,0.003423,0.000037,0.000461,-26.718735,15.531865,21.346241,,,,,,
1466441368.08,2.186426,-0.055257,-2.080337,-0.010068,0.563820,-0.001090,0.815164,0.055229,0.576591,0.013800,-0.004509,0.007943,-26.976435,15.524395,21.025146,,,,,,
1466441368.09,2.191308,-0.055215,-2.080297,-0.002685,0.504360,-0.002839,0.812341,0.055187,0.580565,0.012335,-0.000927,-0.007170,-26.976435,15.524395,21.025146,,,,,,
1466441368.10,2.195982,-0.055203,-2.080272,-0.001681,0.460817,0.000629,0.809619,0.055175,0.584356,0.000042,0.002793,-0.000097,-26.976435,15.524395,21.025146,,,,,,
1466441368.11,2.200546,-0.055154,-2.080307,0.000424,0.453362,0.008129,0.806946,0.055126,0.588047,-0.008530,0.010243,0.000973,-27.198288,15.520845,20.740013,,,,,,
1466441368.12,2.204896,-0.055060,-2.080381,0.000384,0.429988,0.013597,0.804385,0.055032,0.591555,-0.009493,0.008216,0.009107,-27.198288,15.520845,20.740013,,,,,,
1466441368.13,2.208864,-0.055304,-2.080509,0.002443,0.379009,0.018176,0.802020,0.055276,0.594734,-0.002597,0.009254,-0.003441,-27.198288,15.520845,20.740013,,,,,,
1466441368.14,2.212200,-0.055217,-2.080577,0.001325,0.319578,0.007903,0.800035,0.055189,0.597409,0.022169,-0.006071,-0.011594,-27.198288,15.520845,20.740013,,,,,,
1466441368.15,2.215028,-0.055317,-2.080625,0.011954,0.276088,-0.009909,0.798338,0.055289,0.599666,0.022844,-0.016990,-0.003352,-27.198288,15.520845,20.740013,,,,,,
1466441368.16,2.217755,-0.055480,-2.080579,0.001315,0.273985,-0.015229,0.796693,0.055451,0.601835,-0.033235,-0.003266,-0.003233,-27.681139,15.530499,20.083572,,,,,,
1466441368.18,2.228884,-0.055627,-2.080355,-0.008019,0.511781,0.007752,0.789939,0.055599,0.610659,-0.035499,0.007023,0.017026,-27.681139,15.530499,20.083572,,,,,,
1466441368.17,2.224100,-0.055687,-2.080364,0.000340,0.364221,-0.004088,0.792849,0.055659,0.606871,-0.066668,0.002386,0.046312,-27.681139,15.530499,20.083572,,,,,,
1466441368.19,2.233918,-0.055449,-2.080365,-0.009143,0.479901,0.017531,0.786864,0.055420,0.614634,-0.005980,0.006988,-0.019754,-27.868919,15.518259,19.831757,,,,,,
1466441368.20,2.237654,-0.055228,-2.080482,-0.005065,0.347153,0.025818,0.784571,0.055199,0.617577,-0.008158,0.005103,-0.026223,-27.868919,15.518259,19.831757,,,,,,
1466441368.21,2.240694,-0.054895,-2.080604,-0.004017,0.329109,0.022740,0.782704,0.054868,0.619971,0.006953,-0.002759,-0.005514,-28.059349,15.520718,19.559446,,,,,,
1466441368.22,2.243788,-0.054761,-2.080734,0.003416,0.304699,0.017578,0.780788,0.054733,0.622394,-0.001797,0.000366,-0.002261,-28.059349,15.520718,19.559446,,,,,,
1466441368.23,2.246472,-0.054677,-2.080872,0.006549,0.250554,0.014727,0.779118,0.054650,0.624490,-0.003636,0.000160,-0.013162,-28.059349,15.520718,19.559446,,,,,,
1466441368.24,2.248485,-0.054639,-2.081048,0.013932,0.191095,0.012979,0.777861,0.054611,0.626059,-0.004942,0.001526,-0.015494,-28.288956,15.545025,19.206219,,,,,,
1466441368.25,2.250340,-0.054597,-2.081199,0.008565,0.158180,0.014244,0.776701,0.054570,0.627502,-0.022657,-0.001454,-0.012496,-28.288956,15.545025,19.206219,,,,,,
1466441368.26,2.252132,-0.054527,-2.081346,0.005416,0.194283,0.014014,0.775578,0.054500,0.628895,-0.025837,0.004490,-0.005512,-28.288956,15.545025,19.206219,,,,,,
1466441368.27,2.254186,-0.054396,-2.081447,-0.002031,0.205955,0.018192,0.774290,0.054369,0.630491,-0.060590,-0.003832,0.012194,-28.288956,15.545025,19.206219,,,,,,
1466441368.28,2.256991,-0.054273,-2.081611,0.006616,0.314246,0.020714,0.772523,0.054247,0.632665,-0.029085,0.002837,0.000102,-28.427835,15.566610,18.982372,,,,,,
1466441368.30,2.263004,-0.054011,-2.081861,0.007623,0.270705,0.023117,0.768716,0.053985,0.637307,-0.056970,-0.005828,0.006827,-28.427835,15.566610,18.982372,,,,,,
1466441368.29,2.260279,-0.054167,-2.081695,-0.009347,0.321683,0.021716,0.770444,0.054140,0.635205,-0.021710,0.001310,-0.021222,-28.427835,15.566610,18.982372,,,,,,
1466441368.31,2.266638,-0.053854,-2.082017,-0.000734,0.399188,0.022303,0.766402,0.053828,0.640102,-0.043120,-0.006282,0.014698,-28.427835,15.566610,18.982372,,,,,,
1466441368.33,2.275832,-0.053389,-2.082247,-0.004966,0.422548,0.023217,0.760503,0.053363,0.647138,-0.034215,-0.004169,-0.018705,-28.427835,15.566610,18.982372,,,,,,
1466441368.32,2.271144,-0.053656,-2.082139,-0.001729,0.457581,0.024065,0.763518,0.053630,0.643556,-0.040572,-0.004238,0.000212,-28.427835,15.566610,18.982372,,,,,,
1466441368.34,2.280056,-0.053211,-2.082397,0.001447,0.441657,0.023103,0.757770,0.053186,0.650350,-0.064060,-0.009637,0.011835,-28.812807,15.602831,18.362064,,,,,,
1466441368.35,2.285523,-0.053075,-2.082437,-0.011159,0.559556,0.010642,0.754209,0.053050,0.654488,-0.032987,-0.005519,-0.004540,-28.812807,15.602831,18.362064,,,,,,
1466441368.36,2.290970,-0.052965,-2.082547,0.006937,0.568021,0.018059,0.750637,0.052940,0.658591,-0.094997,-0.017220,0.030756,-28.983946,15.612155,18.082674,,,,,,
1466441368.37,2.297034,-0.052950,-2.082613,-0.017357,0.709272,0.008633,0.746630,0.052926,0.663131,0.018965,0.004203,-0.044845,-28.983946,15.612155,18.082674,,,,,,
1466441368.38,2.302537,-0.052797,-2.082586,-0.002721,0.494777,0.011057,0.742976,0.052773,0.667235,-0.079691,-0.008797,-0.027540,-28.983946,15.612155,18.082674,,,,,,
1466441368.39,2.308292,-0.052702,-2.082701,-0.004683,0.637045,0.015485,0.739127,0.052677,0.671503,-0.054908,-0.000340,0.009985,-29.187061,15.619156,17.746805,,,,,,
1466441368.40,2.315616,-0.052423,-2.082570,-0.029049,0.728384,0.010630,0.734200,0.052399,0.676908,-0.029488,0.003586,-0.036954,-29.187061,15.619156,17.746805,,,,,,
1466441368.41,2.322135,-0.052239,-2.082572,-0.005771,0.613696,0.012437,0.729779,0.052215,0.681687,-0.069562,-0.009505,-0.022568,-29.187061,15.619156,17.746805,,,,,,
1466441368.42,2.328799,-0.052056,-2.082571,-0.016310,0.701827,0.012938,0.725227,0.052033,0.686541,-0.066291,-0.006271,-0.006182,-29.615543,15.624976,17.016794,,,,,,
1466441368.43,2.336639,-0.051851,-2.082528,-0.017263,0.788899,0.011327,0.719830,0.051828,0.692213,-0.027707,-0.001458,-0.036390,-29.615543,15.624976,17.016794,,,,,,
1466441368.44,2.343659,-0.051599,-2.082507,-0.017422,0.674204,0.019497,0.714962,0.051576,0.697259,-0.067608,-0.007494,-0.048348,-29.615543,15.624976,17.016794,,,,,,
1466441368.45,2.350473,-0.051389,-2.082531,-0.017415,0.682693,0.021573,0.710202,0.051366,0.702121,-0.055707,0.007121,-0.041095,-29.855305,15.627405,16.590260,,,,,,
1466441368.46,2.357471,-0.051072,-2.082533,-0.021653,0.702863,0.023571,0.705283,0.051050,0.707086,-0.061148,0.004354,-0.043923,-29.855305,15.627405,16.590260,,,,,,
1466441368.48,2.371474,-0.050410,-2.082611,-0.022742,0.687990,0.026856,0.695336,0.050389,0.716916,-0.057442,-0.006093,-0.050580,-29.855305,15.627405,16.590260,,,,,,
1466441368.47,2.364557,-0.050749,-2.082574,-0.019520,0.709227,0.025662,0.700266,0.050728,0.712077,-0.052424,-0.002083,-0.041576,-29.855305,15.627405,16.590260,,,,,,
1466441368.49,2.378720,-0.050077,-2.082637,-0.017349,0.733662,0.020189,0.690135,0.050056,0.721948,-0.051524,-0.011421,-0.034784,-30.294233,15.639938,15.762087,,,,,,
1466441368.51,2.393378,-0.049592,-2.082677,-0.015257,0.701810,0.019326,0.679495,0.049572,0.732004,-0.063436,-0.012722,-0.061807,-30.506493,15.648708,15.338305,,,,,,
1466441368.50,2.386264,-0.049843,-2.082655,-0.016258,0.749598,0.016896,0.684676,0.049822,0.727142,-0.041457,-0.007769,-0.058777,-30.506493,15.648708,15.338305,,,,,,
1466441368.52,2.400372,-0.049365,-2.082760,-0.012067,0.701803,0.021458,0.674366,0.049345,0.736747,-0.057606,-0.005568,-0.069587,-30.506493,15.648708,15.338305,,,,,,
1466441368.53,2.406999,-0.049070,-2.082821,-0.019586,0.656137,0.025995,0.669479,0.049051,0.741210,-0.033614,-0.000634,-0.092452,-30.506493,15.648708,15.338305,,,,,,
1466441368.54,2.412631,-0.048769,-2.082965,-0.011233,0.535069,0.033149,0.665304,0.048750,0.744979,-0.060766,-0.008604,-0.098220,-30.506493,15.648708,15.338305,,,,,,
1466441368.55,2.418179,-0.048419,-2.083175,-0.014382,0.580711,0.039246,0.661171,0.048400,0.748672,-0.072960,-0.008559,-0.071899,-30.915417,15.664778,14.479063,,,,,,
1466441368.56,2.424347,-0.047998,-2.083325,-0.023921,0.615755,0.039017,0.656555,0.047979,0.752751,-0.037399,0.000910,-0.095341,-30.915417,15.664778,14.479063,,,,,,
1466441368.57,2.429592,-0.047573,-2.083537,-0.014511,0.488317,0.046212,0.652610,0.047555,0.756200,-0.044929,-0.007547,-0.117910,-31.064695,15.682802,14.135983,,,,,,
1466441368.58,2.434001,-0.047124,-2.083828,-0.016707,0.443707,0.051812,0.649284,0.047107,0.759086,-0.062187,-0.007693,-0.111213,-31.064695,15.682802,14.135983,,,,,,
1466441368.59,2.438569,-0.046638,-2.084101,-0.018822,0.456447,0.052795,0.645824,0.046621,0.762061,-0.040767,-0.001150,-0.112007,-31.064695,15.682802,14.135983,,,,,,
1466441368.60,2.442655,-0.046239,-2.084487,-0.001874,0.391660,0.056411,0.642717,0.046223,0.764708,-0.036318,-0.012577,-0.115690,-31.317881,15.730709,13.510247,,,,,,
1466441368.61,2.446024,-0.045848,-2.084858,-0.008334,0.325846,0.051495,0.640149,0.045832,0.766883,-0.034466,-0.000589,-0.141715,-31.317881,15.730709,13.510247,,,,,,
1466441368.62,2.448890,-0.045471,-2.085205,-0.004145,0.268509,0.050795,0.637959,0.045456,0.768728,-0.019932,-0.012588,-0.137807,-31.317881,15.730709,13.510247,,,,,,
1466441368.63,2.451196,-0.045144,-2.085618,0.001131,0.235582,0.054200,0.636194,0.045129,0.770208,-0.060831,-0.018655,-0.133978,-31.401066,15.763252,13.277223,,,,,,
1466441368.64,2.453961,-0.044806,-2.085990,-0.004116,0.289748,0.049597,0.634072,0.044791,0.771976,-0.044549,-0.005469,-0.128116,-31.401066,15.763252,13.277223,,,,,,
1466441368.65,2.456979,-0.044448,-2.086379,-0.001975,0.304604,0.052699,0.631749,0.044433,0.773898,-0.042043,-0.011474,-0.144321,-31.401066,15.763252,13.277223,,,,,,
1466441368.66,2.459635,-0.044079,-2.086809,-0.003114,0.256803,0.060449,0.629702,0.044064,0.775586,-0.023104,-0.008893,-0.160962,-31.512957,15.826654,12.932219,,,,,,
1466441368.68,2.463854,-0.043301,-2.087654,0.003310,0.283347,0.059224,0.626445,0.043288,0.778262,-0.056667,-0.011961,-0.133090,-31.512957,15.826654,12.932219,,,,,,
1466441368.67,2.461552,-0.043682,-2.087148,-0.009618,0.161249,0.058913,0.628225,0.043668,0.776805,-0.047018,0.000079,-0.198665,-31.512957,15.826654,12.932219,,,,,,
1466441368.69,2.466747,-0.042787,-2.088008,-0.021204,0.265306,0.060378,0.624205,0.042774,0.780089,-0.021086,0.008373,-0.184722,-31.555096,15.859275,12.788708,,,,,,
1466441368.70,2.468966,-0.042364,-2.088488,0.000035,0.226000,0.063839,0.622484,0.042351,0.781486,-0.050477,-0.011696,-0.187019,-31.555096,15.859275,12.788708,,,,,,
1466441368.71,2.471742,-0.041837,-2.088853,-0.025424,0.296100,0.060180,0.620325,0.041825,0.783229,-0.022181,-0.002503,-0.176692,-31.555096,15.859275,12.788708,,,,,,
1466441368.72,2.474913,-0.041314,-2.089192,-0.017935,0.324765,0.060008,0.617852,0.041302,0.785209,-0.037011,-0.003873,-0.190940,-31.645250,15.932991,12.470346,,,,,,
1466441368.73,2.478545,-0.040750,-2.089544,-0.025321,0.383159,0.062828,0.615011,0.040739,0.787466,-0.034429,-0.008879,-0.200658,-31.645250,15.932991,12.470346,,,,,,
1466441368.74,2.482704,-0.040100,-2.089865,-0.031664,0.421385,0.063646,0.611746,0.040089,0.790038,0.008249,-0.015522,-0.193022,-31.645250,15.932991,12.470346,,,,,,
1466441368.75,2.486657,-0.039475,-2.090156,-0.032768,0.389490,0.061723,0.608634,0.039465,0.792469,0.002283,-0.010565,-0.236897,-31.710354,15.966166,12.260773,,,,,,
1466441368.77,2.494819,-0.038184,-2.090735,-0.036997,0.408613,0.058406,0.602176,0.038175,0.797450,0.038129,-0.003049,-0.231441,-31.710354,15.966166,12.260773,,,,,,
1466441368.76,2.490716,-0.038824,-2.090468,-0.031677,0.413905,0.063700,0.605428,0.038815,0.794953,0.032893,-0.014065,-0.208222,-31.710354,15.966166,12.260773,,,,,,
1466441368.78,2.498774,-0.037487,-2.090983,-0.039159,0.389490,0.062781,0.599032,0.037479,0.799847,0.043820,-0.013751,-0.270169,-31.866287,16.030140,11.762906,,,,,,
1466441368.79,2.502461,-0.036876,-2.091326,-0.027472,0.366130,0.060811,0.596093,0.036868,0.802068,0.076651,-0.020403,-0.222906,-31.866287,16.030140,11.762906,,,,,,
1466441368.80,2.505927,-0.036187,-2.091607,-0.043482,0.339584,0.064154,0.593325,0.036179,0.804150,0.082472,-0.000610,-0.277172,-31.866287,16.030140,11.762906,,,,,,
1466441368.81,2.509084,-0.035466,-2.091915,-0.038211,0.301351,0.066528,0.590798,0.035459,0.806040,0.124488,-0.005933,-0.239878,-31.935381,16.062155,11.529537,,,,,,
1466441368.83,2.512104,-0.033726,-2.092580,-0.049231,0.027370,0.083138,0.588397,0.033720,0.807869,0.158018,-0.010038,-0.306984,-31.935381,16.062155,11.529537,,,,,,
1466441368.82,2.511396,-0.034665,-2.092245,-0.053253,0.206835,0.075622,0.588950,0.034658,0.807426,0.116052,0.009043,-0.323723,-31.935381,16.062155,11.529537,,,,,,
1466441368.84,2.511487,-0.032914,-2.093011,-0.045111,-0.085180,0.082783,0.588911,0.032908,0.807528,0.177172,-0.000727,-0.303454,-31.999418,16.133665,11.248724,,,,,,
1466441368.85,2.509891,-0.032000,-2.093361,-0.050553,-0.182857,0.081262,0.590216,0.031994,0.806611,0.205881,-0.000058,-0.258820,-31.999418,16.133665,11.248724,,,,,,
1466441368.86,2.492131,-0.031076,-2.094254,-0.045292,-0.233904,0.082654,0.604466,0.031071,0.796025,0.165356,-0.005055,-0.269627,-31.999418,16.133665,11.248724,,,,,,
1466441368.87,2.489826,-0.030124,-2.094520,-0.056989,-0.233878,0.075191,0.606316,0.030119,0.794653,0.201301,-0.012800,-0.234655,-31.948088,16.175825,11.333752,,,,,,
1466441368.89,2.483485,-0.028435,-2.095072,-0.061363,-0.330491,0.072599,0.611373,0.028431,0.790832,0.212693,-0.015842,-0.238265,-31.948088,16.175825,11.333752,,,,,,
1466441368.88,2.486818,-0.029371,-2.094863,-0.040059,-0.319889,0.074683,0.608718,0.029366,0.792843,0.205293,-0.013818,-0.246243,-31.948088,16.175825,11.333752,,,,,,
1466441368.90,2.480315,-0.027534,-2.095346,-0.058162,-0.311403,0.080998,0.613893,0.027530,0.788909,0.209197,-0.010883,-0.233123,-31.581018,16.265900,12.200468,,,,,,
1466441368.91,2.477265,-0.026476,-2.095513,-0.070932,-0.316688,0.074632,0.616313,0.026473,0.787056,0.250218,0.000657,-0.211876,-31.581018,16.265900,12.200468,,,,,,
1466441368.92,2.473812,-0.025480,-2.095675,-0.074160,-0.346411,0.072686,0.619044,0.025477,0.784943,0.250066,0.006810,-0.203705,-31.581018,16.265900,12.200468,,,,,,
1466441368.93,2.470788,-0.024360,-2.095699,-0.085786,-0.276329,0.073300,0.621432,0.024358,0.783089,0.243863,-0.004445,-0.188897,-31.479361,16.299091,12.416967,,,,,,
1466441368.95,2.466083,-0.021804,-2.095700,-0.104925,-0.237065,0.084743,0.625147,0.021803,0.780203,0.271231,-0.013166,-0.194128,-31.479361,16.299091,12.416967,,,,,,
1466441368.94,2.468475,-0.023123,-2.095689,-0.101713,-0.232802,0.078333,0.623260,0.023121,0.781673,0.263688,-0.013477,-0.208324,-31.479361,16.299091,12.416967,,,,,,
1466441368.96,2.463656,-0.020228,-2.095561,-0.134757,-0.245557,0.089024,0.627059,0.020226,0.778709,0.296617,-0.014764,-0.242287,-31.288538,16.349957,12.825676,,,,,,
1466441368.97,2.460362,-0.018629,-2.095504,-0.129609,-0.370878,0.099396,0.629640,0.018628,0.776664,0.355895,-0.009793,-0.204734,-31.288538,16.349957,12.825676,,,,,,
1466441368.99,2.450483,-0.015121,-2.095255,-0.151112,-0.541809,0.097253,0.637319,0.015120,0.770451,0.376444,0.004304,-0.170033,-31.288538,16.349957,12.825676,,,,,,
1466441368.98,2.455767,-0.016906,-2.095438,-0.138269,-0.479187,0.103260,0.633222,0.016905,0.773786,0.363284,-0.012221,-0.177076,-31.288538,16.349957,12.825676,,,,,,
1466441369.00,2.444891,-0.013400,-2.095076,-0.144755,-0.567296,0.097419,0.641634,0.013399,0.766894,0.385253,0.009016,-0.115298,-31.020409,16.399027,13.401411,,,,,,
1466441369.01,2.438764,-0.011599,-2.094817,-0.153343,-0.627805,0.094597,0.646335,0.011599,0.762966,0.398739,-0.000842,-0.118083,-31.020409,16.399027,13.401411,,,,,,
1466441369.02,2.431437,-0.009946,-2.094497,-0.146058,-0.789156,0.078585,0.651919,0.009945,0.758223,0.450360,0.011798,-0.142226,-30.829281,16.417980,13.812927,,,,,,
1466441369.04,2.412907,-0.007452,-2.093805,-0.113130,-0.921778,0.035807,0.665871,0.007452,0.746030,0.446647,0.012888,-0.014706,-30.829281,16.417980,13.812927,,,,,,
1466441369.03,2.422150,-0.008591,-2.094234,-0.108961,-0.946283,0.065769,0.658941,0.008591,0.752145,0.437922,0.021088,-0.028162,-30.829281,16.417980,13.812927,,,,,,
1466441369.05,2.403818,-0.006632,-2.093376,-0.087534,-0.916432,0.017703,0.672628,0.006632,0.739951,0.441965,-0.003474,0.009683,-30.570108,16.427223,14.366856,,,,,,
1466441369.06,2.394331,-0.006004,-2.092891,-0.070515,-0.952503,0.004108,0.679620,0.006004,0.733540,0.438712,0.003044,0.049541,-30.570108,16.427223,14.366856,,,,,,
1466441369.07,2.384250,-0.005527,-2.092360,-0.072724,-1.036350,-0.008141,0.686982,0.005527,0.726653,0.450850,-0.016681,-0.002914,-30.570108,16.427223,14.366856,,,,,,
1466441369.08,2.373346,-0.005206,-2.091790,-0.061069,-1.113811,-0.027868,0.694866,0.005205,0.719121,0.462742,-0.005373,0.089336,-29.991390,16.394894,15.572915,,,,,,
1466441369.09,2.362135,-0.005145,-2.091237,-0.040808,-1.097880,-0.033270,0.702885,0.005145,0.711285,0.402294,0.038160,0.090061,-29.991390,16.394894,15.572915,,,,,,
1466441369.10,2.350659,-0.004946,-2.090429,-0.072850,-1.202938,-0.048610,0.711001,0.004946,0.703173,0.461286,-0.022860,0.059049,-29.991390,16.394894,15.572915,,,,,,
1466441369.11,2.337907,-0.005032,-2.089943,-0.029298,-1.265639,-0.036465,0.719910,0.005032,0.694049,0.382477,0.022449,0.139630,-29.648251,16.361967,16.249889,,,,,,
1466441369.13,2.311965,-0.005013,-2.088557,-0.021965,-1.372864,-0.043236,0.737671,0.005013,0.675142,0.406921,0.009895,0.154356,-29.648251,16.361967,16.249889,,,,,,
1466441369.12,2.325423,-0.004845,-2.089077,-0.076102,-1.256015,-0.052538,0.728519,0.004845,0.685009,0.422696,-0.015527,0.111134,-29.648251,16.361967,16.249889,,,,,,
1466441369.14,2.298366,-0.005111,-2.087693,-0.057003,-1.346213,-0.075372,0.746783,0.005111,0.665048,0.392026,-0.003372,0.195242,-28.823744,16.275980,17.750376,,,,,,
1466441369.15,2.285208,-0.005676,-2.086998,-0.010068,-1.303718,-0.092622,0.755467,0.005676,0.655162,0.395595,0.030380,0.230946,-28.823744,16.275980,17.750376,,,,,,
1466441369.16,2.271675,-0.006308,-2.086030,-0.029300,-1.392838,-0.114436,0.764260,0.006308,0.644877,0.421164,0.021127,0.206289,-28.823744,16.275980,17.750376,,,,,,
1466441369.17,2.256107,-0.007197,-2.085400,0.010873,-1.611607,-0.106637,0.774202,0.007197,0.632897,0.407087,0.010717,0.215552,-28.363113,16.219067,18.527475,,,,,,
1466441369.19,2.218061,-0.008921,-2.084421,0.028339,-2.082056,-0.081316,0.797704,0.008921,0.602983,0.392054,-0.009181,0.232543,-28.363113,16.219067,18.527475,,,,,,
1466441369.18,2.238283,-0.008026,-2.084721,0.005265,-1.839889,-0.106276,0.785354,0.008026,0.618994,0.413208,-0.002014,0.204248,-28.363113,16.219067,18.527475,,,,,,
1466441369.20,2.195644,-0.009617,-2.083894,0.001473,-2.296498,-0.090642,0.811015,0.009616,0.584946,0.351323,-0.024356,0.242294,-27.122644,16.104839,20.390881,,,,,,
