timestamp,attitude_roll,attitude_pitch,attitude_yaw,rotation_rate_x,rotation_rate_y,rotation_rate_z,gravity_x,gravity_y,gravity_z,user_acc_x,user_acc_y,user_acc_z,magnetic_field_x,magnetic_field_y,magnetic_field_z,latitude(degree),longitude(degree),altitude(meter),speed(m/s),course(degree),timestamp
1465825284.88,-0.113929,0.010492,-0.564326,0.000979,0.036471,0.000114,-0.113677,-0.010492,-0.993462,0.032302,0.001169,0.004403,40.388760,2.895300,18.324764,,,,,,
1465825284.89,-0.113941,0.010493,-0.564315,0.004007,-0.093074,0.003058,-0.113688,-0.010493,-0.993461,0.035624,0.001933,0.005088,40.388760,2.895300,18.324764,,,,,,
1465825284.90,-0.115193,0.010511,-0.564277,0.008116,-0.210936,0.004866,-0.114932,-0.010511,-0.993318,0.034473,0.002912,0.007997,40.388760,2.895300,18.324764,,,,,,
1465825284.91,-0.117540,0.010541,-0.564210,0.009060,-0.305437,0.006524,-0.117263,-0.010540,-0.993045,0.030425,0.002560,0.006641,40.351063,2.894386,18.407768,,,,,,
1465825284.92,-0.120764,0.010581,-0.564113,0.010031,-0.376582,0.009100,-0.120464,-0.010581,-0.992661,0.024639,0.002601,0.005662,40.351063,2.894386,18.407768,,,,,,
1465825284.93,-0.124714,0.010736,-0.564000,0.009960,-0.431797,0.010510,-0.124383,-0.010736,-0.992176,0.016107,-0.004019,-0.006710,40.351063,2.894386,18.407768,,,,,,
1465825284.94,-0.129113,0.010831,-0.563861,0.009942,-0.442421,0.012706,-0.128747,-0.010831,-0.991618,0.003503,-0.000445,-0.005360,40.453392,2.889768,18.182507,,,,,,
,,,,,,,,,,,,,,,,29.719995,-95.399135,10.457295,-1.000000,-1.000000,1465825240.44
1465825284.95,-0.133305,0.010934,-0.563735,0.007870,-0.398883,0.011366,-0.132903,-0.010933,-0.991069,-0.002885,-0.001732,-0.005773,40.453392,2.889768,18.182507,,,,,,
1465825284.96,-0.137009,0.010988,-0.563623,0.007950,-0.336235,0.009909,-0.136572,-0.010988,-0.990569,-0.009408,0.000566,-0.004838,40.453392,2.889768,18.182507,,,,,,
1465825284.97,-0.140052,0.011055,-0.563538,0.006970,-0.272522,0.007379,-0.139587,-0.011054,-0.990148,-0.008744,-0.000771,-0.003550,40.744560,2.880495,17.521843,,,,,,
1465825284.98,-0.142418,0.011108,-0.563453,0.007030,-0.224740,0.007080,-0.141928,-0.011108,-0.989815,-0.006097,0.000778,-0.002342,40.744560,2.880495,17.521843,,,,,,
1465825284.99,-0.144412,0.011152,-0.563377,0.006004,-0.193948,0.006886,-0.143902,-0.011152,-0.989529,-0.004277,0.000898,-0.002338,40.744560,2.880495,17.521843,,,,,,
,,,,,,,,,,,,,,,,29.720009,-95.399403,10.457295,-1.000000,-1.000000,1465825285.02
1465825285.00,-0.146326,0.011211,-0.563293,0.007071,-0.191825,0.006873,-0.145795,-0.011211,-0.989251,0.000516,0.002956,-0.002555,40.839149,2.876782,17.300858,,,,,,
1465825285.01,-0.148272,0.011194,-0.563233,0.007052,-0.208810,0.005916,-0.147721,-0.011194,-0.988966,0.006073,0.003824,0.000044,40.839149,2.876782,17.300858,,,,,,
,,,,,,,,,,,,,,,,29.720122,-95.399556,10.457295,-1.000000,-1.000000,1465825285.03
1465825285.02,-0.150516,0.011264,-0.563156,0.008091,-0.228985,0.006043,-0.149939,-0.011264,-0.988631,0.008520,0.001773,-0.000962,40.906826,2.873087,17.140837,,,,,,
1465825285.03,-0.152913,0.011322,-0.563069,0.007005,-0.242793,0.008258,-0.152308,-0.011322,-0.988268,0.008449,0.001525,0.002032,40.906826,2.873087,17.140837,,,,,,
1465825285.04,-0.155454,0.011375,-0.562987,0.005929,-0.255529,0.006207,-0.154819,-0.011374,-0.987877,0.005908,-0.000375,-0.004951,40.906826,2.873087,17.140837,,,,,,
1465825285.05,-0.157938,0.011492,-0.562920,0.007001,-0.251279,0.005117,-0.157272,-0.011491,-0.987489,0.003906,-0.002745,-0.004531,40.906826,2.873087,17.140837,,,,,,
1465825285.06,-0.160314,0.011536,-0.562857,0.004895,-0.231106,0.006053,-0.159618,-0.011536,-0.987112,-0.000768,-0.001617,-0.005808,41.062321,2.865207,16.766273,,,,,,
1465825285.07,-0.162414,0.011586,-0.562789,0.005995,-0.201379,0.006932,-0.161690,-0.011586,-0.986774,-0.003273,-0.001735,-0.004880,41.062321,2.865207,16.766273,,,,,,
1465825285.08,-0.164115,0.011628,-0.562735,0.003920,-0.161024,0.004548,-0.163369,-0.011627,-0.986497,-0.005638,0.000488,-0.002624,41.062321,2.865207,16.766273,,,,,,
1465825285.09,-0.165528,0.011620,-0.562690,0.002897,-0.128108,0.004341,-0.164762,-0.011620,-0.986265,-0.001528,0.002068,-0.003115,41.206539,2.861431,16.409286,,,,,,
1465825285.10,-0.166713,0.011631,-0.562641,0.003979,-0.114305,0.004255,-0.165930,-0.011631,-0.986069,0.000983,0.001118,0.001511,41.206539,2.861431,16.409286,,,,,,
1465825285.11,-0.167752,0.011648,-0.562599,0.003972,-0.119613,0.004289,-0.166955,-0.011647,-0.985896,0.007791,0.000905,0.000193,41.249264,2.857944,16.302202,,,,,,
1465825285.12,-0.168950,0.011619,-0.562555,0.003949,-0.139784,0.003351,-0.168136,-0.011619,-0.985695,0.008758,0.003470,-0.002327,41.249264,2.857944,16.302202,,,,,,
1465825285.13,-0.170381,0.011629,-0.562507,0.007112,-0.162085,0.004558,-0.169546,-0.011629,-0.985454,0.008520,0.002290,-0.000676,41.249264,2.857944,16.302202,,,,,,
1465825285.14,-0.171965,0.011634,-0.562453,0.006036,-0.169520,0.005668,-0.171107,-0.011634,-0.985184,0.006861,0.002509,0.000259,41.285873,2.854406,16.209885,,,,,,
1465825285.15,-0.173578,0.011708,-0.562395,0.006036,-0.171640,0.004617,-0.172695,-0.011708,-0.984906,0.007122,-0.000270,0.000470,41.285873,2.854406,16.209885,,,,,,
1465825285.16,-0.175218,0.011761,-0.562327,0.007088,-0.178017,0.006787,-0.174311,-0.011760,-0.984620,0.007868,0.000743,-0.000167,41.285873,2.854406,16.209885,,,,,,
1465825285.17,-0.177041,0.011837,-0.562267,0.004928,-0.204557,0.005887,-0.176105,-0.011837,-0.984300,0.010517,-0.001667,-0.002592,41.387196,2.848995,15.950389,,,,,,
,,,,,,,,,,,,,,,,29.719955,-95.399105,9.879950,-1.000000,-1.000000,1465825285.20
1465825285.18,-0.179137,0.011882,-0.562200,0.005969,-0.223669,0.006008,-0.178168,-0.011882,-0.983928,0.007452,-0.000081,-0.002598,41.387196,2.848995,15.950389,,,,,,
1465825285.19,-0.181278,0.011958,-0.562126,0.007029,-0.226854,0.006029,-0.180274,-0.011958,-0.983544,0.008841,-0.001500,-0.000846,41.387196,2.848995,15.950389,,,,,,
1465825285.20,-0.183423,0.011963,-0.562049,0.002764,-0.230040,0.007109,-0.182383,-0.011962,-0.983155,0.010340,0.001754,0.003525,41.387196,2.848995,15.950389,,,,,,
1465825285.22,-0.188308,0.011976,-0.561877,0.008010,-0.291625,0.007500,-0.187183,-0.011976,-0.982252,0.015629,0.003004,0.001768,41.517284,2.843069,15.609724,,,,,,
1465825285.21,-0.185712,0.011961,-0.561968,0.006995,-0.252339,0.007253,-0.184633,-0.011961,-0.982735,0.012560,0.002897,0.003746,41.517284,2.843069,15.609724,,,,,,
1465825285.23,-0.191317,0.011994,-0.561777,0.009020,-0.334099,0.008832,-0.190138,-0.011993,-0.981684,0.016295,0.002808,0.002512,41.517284,2.843069,15.609724,,,,,,
1465825285.24,-0.194644,0.012048,-0.561664,0.007899,-0.376572,0.010162,-0.193404,-0.012048,-0.981045,0.023650,0.001275,0.007184,41.593487,2.836841,15.406683,,,,,,
1465825285.26,-0.203120,0.012133,-0.561360,0.011977,-0.515675,0.014232,-0.201711,-0.012133,-0.979370,0.027242,0.001009,0.004623,41.593487,2.836841,15.406683,,,,,,
1465825285.25,-0.198527,0.012058,-0.561518,0.011011,-0.437103,0.013738,-0.197211,-0.012058,-0.980287,0.024100,0.004184,0.006028,41.593487,2.836841,15.406683,,,,,,
1465825285.27,-0.208543,0.012207,-0.561178,0.012906,-0.594285,0.016842,-0.207019,-0.012206,-0.978261,0.026477,0.001647,0.001317,41.818367,2.820822,14.788467,,,,,,
1465825285.28,-0.214693,0.012329,-0.560967,0.013892,-0.653750,0.019345,-0.213032,-0.012329,-0.976968,0.027317,-0.000824,0.004296,41.818367,2.820822,14.788467,,,,,,
1465825285.29,-0.221516,0.012450,-0.560757,0.018077,-0.714272,0.018664,-0.219692,-0.012450,-0.975490,0.024547,0.000380,0.005321,41.818367,2.820822,14.788467,,,,,,
1465825285.30,-0.228934,0.012558,-0.560522,0.015886,-0.762054,0.020026,-0.226922,-0.012558,-0.973832,0.019646,0.000915,0.004289,41.987606,2.810375,14.302928,,,,,,
1465825285.31,-0.236766,0.012647,-0.560273,0.016906,-0.796035,0.021305,-0.234542,-0.012647,-0.972024,0.015227,0.002622,0.002084,41.987606,2.810375,14.302928,,,,,,
1465825285.32,-0.244797,0.012741,-0.560022,0.017969,-0.797097,0.021313,-0.242340,-0.012741,-0.970108,0.005996,0.001724,-0.001465,42.188030,2.798726,13.702875,,,,,,
1465825285.33,-0.252454,0.012829,-0.559788,0.012705,-0.749314,0.021008,-0.249760,-0.012828,-0.968223,0.001545,0.001995,0.000068,42.188030,2.798726,13.702875,,,,,,
1465825285.34,-0.259654,0.012934,-0.559561,0.017018,-0.710023,0.018637,-0.256725,-0.012934,-0.966398,-0.001790,0.001978,0.000273,42.188030,2.798726,13.702875,,,,,,
1465825285.35,-0.266530,0.013046,-0.559340,0.015989,-0.681354,0.018456,-0.263363,-0.013045,-0.964609,-0.001697,0.000747,-0.000159,42.591171,2.770861,12.399436,,,,,,
1465825285.36,-0.273281,0.013128,-0.559127,0.014954,-0.659053,0.017250,-0.269869,-0.013128,-0.962808,-0.004988,0.001302,-0.006476,42.591171,2.770861,12.399436,,,,,,
1465825285.37,-0.279509,0.013233,-0.558926,0.015021,-0.609143,0.014809,-0.275860,-0.013232,-0.961107,-0.005940,0.000110,-0.003752,42.591171,2.770861,12.399436,,,,,,
1465825285.38,-0.285254,0.013331,-0.558723,0.015073,-0.564553,0.016658,-0.281376,-0.013330,-0.959505,-0.002010,0.001139,0.003237,42.757118,2.758805,11.817314,,,,,,
1465825285.39,-0.290792,0.013415,-0.558531,0.014022,-0.553934,0.016590,-0.286685,-0.013414,-0.957931,0.002948,-0.000593,-0.000153,42.757118,2.758805,11.817314,,,,,,
1465825285.40,-0.296368,0.013533,-0.558327,0.014001,-0.568802,0.017748,-0.292021,-0.013533,-0.956316,0.011931,-0.000780,0.002840,42.757118,2.758805,11.817314,,,,,,
1465825285.41,-0.302362,0.013617,-0.558108,0.015010,-0.611277,0.019080,-0.297749,-0.013617,-0.954547,0.021580,0.000510,0.006229,42.757118,2.758805,11.817314,,,,,,
1465825285.42,-0.309095,0.013720,-0.557883,0.017034,-0.697282,0.018557,-0.304168,-0.013719,-0.952519,0.032242,0.002840,0.010274,43.020187,2.737724,10.825885,,,,,,
1465825285.43,-0.316971,0.013819,-0.557622,0.017937,-0.821522,0.022530,-0.311660,-0.013818,-0.950093,0.042220,0.004037,0.009511,43.020187,2.737724,10.825885,,,,,,
1465825285.44,-0.326158,0.013913,-0.557314,0.019883,-0.962751,0.026611,-0.320375,-0.013913,-0.947189,0.043290,0.004635,0.005462,43.155426,2.725106,10.276875,,,,,,
1465825285.45,-0.336620,0.014049,-0.556970,0.024006,-1.068936,0.028346,-0.330266,-0.014048,-0.943783,0.036123,0.002299,0.002804,43.155426,2.725106,10.276875,,,,,,
1465825285.46,-0.347556,0.014169,-0.556624,0.023970,-1.096546,0.029583,-0.340566,-0.014168,-0.940114,0.021917,0.001977,0.002080,43.155426,2.725106,10.276875,,,,,,
1465825285.47,-0.358385,0.014294,-0.556269,0.023999,-1.075307,0.028385,-0.350726,-0.014293,-0.936369,0.014469,0.001506,0.005522,43.521305,2.687602,8.608378,,,,,,
1465825285.48,-0.368888,0.014409,-0.555917,0.024036,-1.043456,0.029250,-0.360541,-0.014409,-0.932632,0.008277,0.001271,0.003860,43.521305,2.687602,8.608378,,,,,,
1465825285.49,-0.379186,0.014514,-0.555568,0.021930,-1.026463,0.028077,-0.370126,-0.014513,-0.928868,0.005364,0.000795,-0.000957,43.521305,2.687602,8.608378,,,,,,
1465825285.50,-0.389389,0.014635,-0.555211,0.024069,-1.019031,0.028033,-0.379583,-0.014634,-0.925042,0.010686,0.002229,0.003991,43.696480,2.666241,7.677237,,,,,,
1465825285.51,-0.399773,0.014722,-0.554852,0.022966,-1.046644,0.030334,-0.389167,-0.014722,-0.921050,0.015021,0.000882,0.002028,43.696480,2.666241,7.677237,,,,,,
1465825285.52,-0.410512,0.014797,-0.554486,0.021852,-1.085930,0.030579,-0.399035,-0.014797,-0.916816,0.016894,0.002788,-0.000023,43.696480,2.666241,7.677237,,,,,,
1465825285.53,-0.421517,0.014897,-0.554118,0.025031,-1.099732,0.029604,-0.409100,-0.014896,-0.912368,0.009258,0.001453,-0.005143,43.981033,2.620772,5.850760,,,,,,
1465825285.54,-0.432209,0.015003,-0.553758,0.024029,-1.050885,0.028232,-0.418830,-0.015002,-0.907941,0.000999,0.003345,-0.004260,43.981033,2.620772,5.850760,,,,,,
1465825285.55,-0.442204,0.015091,-0.553403,0.023053,-0.980806,0.027792,-0.427884,-0.015091,-0.903708,-0.000689,0.002258,0.003042,43.981033,2.620772,5.850760,,,,,,
1465825285.56,-0.451645,0.015149,-0.553075,0.021003,-0.922397,0.024230,-0.436396,-0.015149,-0.899627,-0.003393,0.003537,0.003738,44.099064,2.597847,4.894419,,,,,,
1465825285.57,-0.460663,0.015232,-0.552754,0.022100,-0.894794,0.025123,-0.444491,-0.015231,-0.895654,0.001879,0.002002,-0.002143,44.099064,2.597847,4.894419,,,,,,
1465825285.58,-0.469713,0.015319,-0.552422,0.022075,-0.912848,0.026300,-0.452578,-0.015318,-0.891593,0.013125,0.002562,0.005485,44.099064,2.597847,4.894419,,,,,,
1465825285.59,-0.479332,0.015393,-0.552097,0.021996,-0.977615,0.025642,-0.461132,-0.015393,-0.887198,0.014171,-0.000263,-0.004541,44.254208,2.554341,3.236046,,,,,,
1465825285.60,-0.489126,0.015454,-0.551779,0.019884,-0.965931,0.024502,-0.469799,-0.015454,-0.882638,-0.001133,0.001477,-0.014929,44.254208,2.554341,3.236046,,,,,,
1465825285.61,-0.498091,0.015514,-0.551480,0.020004,-0.871427,0.022845,-0.477692,-0.015514,-0.878390,0.001053,-0.000050,0.001575,44.254208,2.554341,3.236046,,,,,,
1465825285.62,-0.506280,0.015570,-0.551198,0.016894,-0.806653,0.021371,-0.484869,-0.015570,-0.874448,0.000707,0.000998,0.008008,44.309940,2.533029,2.375765,,,,,,
1465825285.63,-0.514310,0.015606,-0.550927,0.016895,-0.803470,0.022416,-0.491875,-0.015606,-0.870526,0.001411,0.000347,-0.001773,44.309940,2.533029,2.375765,,,,,,
1465825285.64,-0.522369,0.015631,-0.550643,0.017968,-0.799221,0.021326,-0.498874,-0.015631,-0.866534,0.000827,0.003973,-0.007535,44.309940,2.533029,2.375765,,,,,,
1465825285.65,-0.530064,0.015689,-0.550383,0.018025,-0.756743,0.018930,-0.505526,-0.015688,-0.862668,0.000628,0.001635,-0.004901,44.366661,2.493883,0.900703,,,,,,
1465825285.66,-0.537202,0.015751,-0.550111,0.018095,-0.699409,0.019635,-0.511671,-0.015750,-0.859037,0.002134,0.004535,0.004927,44.366661,2.493883,0.900703,,,,,,
1465825285.67,-0.544101,0.015805,-0.549850,0.018106,-0.690914,0.019582,-0.517584,-0.015805,-0.855486,0.012473,0.002362,0.008349,44.366661,2.493883,0.900703,,,,,,
1465825285.68,-0.551294,0.015834,-0.549576,0.019104,-0.741884,0.020967,-0.523724,-0.015833,-0.851741,0.019727,0.003230,0.003276,44.376118,2.476431,0.241978,,,,,,
1465825285.69,-0.559213,0.015879,-0.549297,0.019022,-0.807715,0.021380,-0.530452,-0.015879,-0.847566,0.023158,0.002786,0.000475,44.376118,2.476431,0.241978,,,,,,
1465825285.70,-0.567679,0.015913,-0.548995,0.018955,-0.857626,0.023822,-0.537608,-0.015912,-0.843045,0.025767,0.001294,0.002911,44.376118,2.476431,0.241978,,,,,,
1465825285.71,-0.576628,0.015955,-0.548662,0.022082,-0.907538,0.026267,-0.545131,-0.015955,-0.838199,0.034511,0.001901,0.009525,44.365005,2.437722,-1.111382,,,,,,
1465825285.72,-0.586399,0.015994,-0.548285,0.025144,-1.008420,0.030096,-0.553295,-0.015993,-0.832832,0.047649,0.002123,0.015739,44.365005,2.437722,-1.111382,,,,,,
1465825285.73,-0.597778,0.016035,-0.547840,0.029167,-1.187881,0.036548,-0.562735,-0.016034,-0.826482,0.070379,0.002591,0.022268,44.365005,2.437722,-1.111382,,,,,,
1465825285.74,-0.611722,0.016079,-0.547311,0.035190,-1.472459,0.042596,-0.574204,-0.016078,-0.818554,0.095551,0.004680,0.030438,44.337776,2.412596,-1.942291,,,,,,
1465825285.75,-0.629311,0.016108,-0.546698,0.038955,-1.857910,0.050340,-0.588512,-0.016107,-0.808328,0.112789,0.006540,0.024621,44.337776,2.412596,-1.942291,,,,,,
1465825285.76,-0.650432,0.016114,-0.545972,0.045989,-2.181781,0.058765,-0.605452,-0.016114,-0.795719,0.099135,0.005371,0.000934,44.337776,2.412596,-1.942291,,,,,,
1465825285.77,-0.673404,0.016117,-0.545168,0.052195,-2.320892,0.063901,-0.623569,-0.016116,-0.781602,0.086933,0.006518,0.011262,44.337776,2.412596,-1.942291,,,,,,
1465825285.78,-0.697454,0.016097,-0.544304,0.056289,-2.444077,0.070000,-0.642185,-0.016096,-0.766380,0.097202,0.007048,0.069496,44.126991,2.327461,-4.777357,,,,,,
1465825285.79,-0.724082,0.016057,-0.543326,0.061211,-2.752023,0.079387,-0.662363,-0.016057,-0.749011,0.090128,0.003605,0.038424,44.126991,2.327461,-4.777357,,,,,,
1465825285.80,-0.754811,0.015961,-0.542254,0.068128,-3.169333,0.088398,-0.685064,-0.015960,-0.728308,0.077337,0.005050,0.032324,43.856800,2.263666,-6.847513,,,,,,
1465825285.81,-0.788500,0.015823,-0.541078,0.073127,-3.419936,0.095297,-0.709208,-0.015822,-0.704822,0.084086,0.006881,0.066562,43.856800,2.263666,-6.847513,,,,,,
1465825285.82,-0.824053,0.015633,-0.539871,0.075030,-3.597264,0.098540,-0.733815,-0.015633,-0.679170,0.051427,0.003792,0.053193,43.856800,2.263666,-6.847513,,,,,,
1465825285.83,-0.861052,0.015388,-0.538599,0.080189,-3.721509,0.103582,-0.758439,-0.015387,-0.651563,0.054993,0.004111,0.064511,42.649403,2.084519,-12.333477,,,,,,
1465825285.84,-0.899160,0.015107,-0.537301,0.082170,-3.838311,0.105381,-0.782715,-0.015107,-0.622197,0.037751,0.006409,0.052449,42.649403,2.084519,-12.333477,,,,,,
1465825285.85,-0.938555,0.014750,-0.535942,0.087327,-3.961501,0.112546,-0.806617,-0.014750,-0.590890,0.024665,0.000132,0.049142,42.649403,2.084519,-12.333477,,,,,,
1465825285.86,-0.978645,0.014300,-0.534626,0.080870,-4.017770,0.111828,-0.829657,-0.014299,-0.558090,0.016730,0.006639,0.052765,42.649403,2.084519,-12.333477,,,,,,
1465825285.87,-1.018926,0.013850,-0.533286,0.089388,-4.020954,0.109727,-0.851464,-0.013849,-0.524231,0.021981,0.003076,0.062774,40.251114,1.854535,-18.757393,,,,,,
1465825285.88,-1.059611,0.013295,-0.531966,0.087207,-4.062365,0.109985,-0.872088,-0.013295,-0.489168,-0.020994,0.012593,0.028857,40.251114,1.854535,-18.757393,,,,,,
1465825285.89,-1.100376,0.012719,-0.530676,0.082943,-4.064489,0.111058,-0.891306,-0.012719,-0.453224,-0.033117,0.001107,0.025185,40.251114,1.854535,-18.757393,,,,,,
1465825285.90,-1.139860,0.012112,-0.529470,0.084232,-3.892466,0.105723,-0.908508,-0.012111,-0.417691,-0.039078,0.009319,0.042630,38.606926,1.730364,-21.953190,,,,,,
1465825285.91,-1.176761,0.011492,-0.528323,0.074986,-3.629125,0.100869,-0.923307,-0.011491,-0.383892,-0.035541,0.009752,0.052074,38.606926,1.730364,-21.953190,,,,,,
1465825285.92,-1.212435,0.010864,-0.527238,0.077217,-3.551609,0.098256,-0.936418,-0.010863,-0.350719,-0.089492,-0.006745,-0.026295,38.606926,1.730364,-21.953190,,,,,,
1465825285.93,-1.246307,0.010214,-0.526242,0.071144,-3.305259,0.093511,-0.947764,-0.010214,-0.318809,-0.063192,0.008291,0.038520,34.822945,1.494768,-27.578243,,,,,,
1465825285.94,-1.276906,0.009593,-0.525321,0.067296,-2.989881,0.084078,-0.957080,-0.009593,-0.289665,-0.048566,-0.001516,0.009575,34.822945,1.494768,-27.578243,,,,,,
1465825285.95,-1.305406,0.008979,-0.524482,0.065405,-2.802997,0.080776,-0.964951,-0.008979,-0.262276,-0.046661,0.003806,0.022606,34.822945,1.494768,-27.578243,,,,,,
1465825285.96,-1.332664,0.008358,-0.523669,0.061272,-2.704244,0.079088,-0.971746,-0.008358,-0.235880,-0.011301,0.002605,0.011790,32.976990,1.392694,-29.765919,,,,,,
1465825285.97,-1.359739,0.007735,-0.522914,0.060205,-2.709547,0.076991,-0.977781,-0.007735,-0.209488,-0.006457,0.001739,0.005890,32.976990,1.392694,-29.765919,,,,,,
1465825285.98,-1.386819,0.007087,-0.522148,0.062338,-2.703183,0.079082,-0.983099,-0.007087,-0.182937,0.003515,0.006721,0.030028,32.976990,1.392694,-29.765919,,,,,,
1465825285.99,-1.413819,0.006413,-0.521405,0.063408,-2.701057,0.078005,-0.987684,-0.006413,-0.156331,0.029539,0.001102,0.031453,29.517754,1.214501,-33.206303,,,,,,
1465825286.00,-1.441322,0.005725,-0.520687,0.062248,-2.775386,0.079535,-0.991614,-0.005725,-0.129111,0.013541,0.011020,0.025442,29.517754,1.214501,-33.206303,,,,,,
1465825286.01,-1.469930,0.004991,-0.519971,0.062113,-2.879448,0.082316,-0.994905,-0.004991,-0.100694,0.004793,-0.003264,0.008608,27.667091,1.127648,-34.766243,,,,,,
1465825286.02,-1.498425,0.004238,-0.519266,0.065365,-2.834851,0.080975,-0.997373,-0.004238,-0.072307,0.039045,0.015377,0.059002,27.667091,1.127648,-34.766243,,,,,,
1465825286.03,-1.527037,0.003441,-0.518538,0.067427,-2.883704,0.084477,-0.999037,-0.003441,-0.043745,0.035002,0.000618,0.031340,27.667091,1.127648,-34.766243,,,,,,
1465825286.04,-1.557056,0.002598,-0.517841,0.068285,-3.045104,0.087619,-0.999902,-0.002598,-0.013740,0.018259,0.009998,0.019737,25.639790,1.039457,-36.289837,,,,,,
1465825286.05,-1.588444,0.001672,-0.517140,0.068139,-3.153423,0.093621,-0.999843,-0.001672,0.017646,0.026607,-0.003898,0.025399,25.639790,1.039457,-36.289837,,,,,,
1465825286.06,-1.619916,0.000718,-0.516452,0.074535,-3.147055,0.093587,-0.998794,-0.000718,0.049100,0.045318,0.016022,0.066195,25.639790,1.039457,-36.289837,,,,,,
1465825286.07,-1.652105,-0.000279,-0.515782,0.072272,-3.250055,0.096360,-0.996696,0.000279,0.081219,0.048820,-0.001515,0.043964,21.056225,0.851607,-39.132362,,,,,,
1465825286.08,-1.686188,-0.001323,-0.515123,0.079449,-3.468792,0.098803,-0.993349,0.001323,0.115136,0.023439,0.011189,0.020240,21.056225,0.851607,-39.132362,,,,,,
1465825286.10,-1.757779,-0.003624,-0.513870,0.081462,-3.551632,0.105711,-0.982563,0.003624,0.185894,0.057347,0.014763,0.085163,21.056225,0.851607,-39.132362,,,,,,
1465825286.09,-1.722103,-0.002451,-0.514485,0.076068,-3.611084,0.103950,-0.988572,0.002451,0.150730,0.016679,-0.001474,0.027081,21.056225,0.851607,-39.132362,,,,,,
1465825286.11,-1.793910,-0.004854,-0.513273,0.084523,-3.652513,0.109540,-0.975202,0.004854,0.221265,0.056455,0.007643,0.064288,15.481312,0.653691,-41.657330,,,,,,
1465825286.12,-1.832474,-0.006189,-0.512713,0.087345,-3.938160,0.118786,-0.965939,0.006189,0.258696,0.046261,0.008811,0.041902,15.481312,0.653691,-41.657330,,,,,,
1465825286.13,-1.874037,-0.007611,-0.512180,0.090185,-4.218481,0.121611,-0.954346,0.007611,0.298606,0.049531,0.007892,0.044442,12.330517,0.550776,-42.697617,,,,,,
1465825286.14,-1.918603,-0.009107,-0.511721,0.093163,-4.384140,0.126911,-0.940084,0.009106,0.340823,0.016118,0.000369,0.044187,12.330517,0.550776,-42.697617,,,,,,
1465825286.15,-1.962577,-0.010668,-0.511322,0.095304,-4.370347,0.130020,-0.924178,0.010668,0.381813,0.022689,0.011244,0.087425,12.330517,0.550776,-42.697617,,,,,,
1465825286.16,-2.006434,-0.012272,-0.510927,0.100610,-4.380975,0.132221,-0.906533,0.012272,0.421957,0.018578,0.002407,0.074671,8.612702,0.446031,-43.601078,,,,,,
1465825286.17,-2.051232,-0.013915,-0.510643,0.098322,-4.502028,0.136171,-0.886708,0.013914,0.462121,0.010899,0.005968,0.052833,8.612702,0.446031,-43.601078,,,,,,
1465825286.18,-2.097353,-0.015641,-0.510412,0.102443,-4.610340,0.137919,-0.864437,0.015641,0.502498,0.047497,0.011062,0.088872,8.612702,0.446031,-43.601078,,,,,,
1465825286.19,-2.145221,-0.017422,-0.510245,0.108541,-4.835458,0.143595,-0.839378,0.017422,0.543269,0.032996,0.005100,0.070836,0.724241,0.246185,-44.439240,,,,,,
1465825286.20,-2.195679,-0.019265,-0.510222,0.103942,-5.097735,0.150557,-0.810881,0.019264,0.584894,0.011824,0.006615,0.054938,0.724241,0.246185,-44.439240,,,,,,
1465825286.21,-2.247564,-0.021162,-0.510266,0.113389,-5.202865,0.153355,-0.779427,0.021161,0.626136,0.021477,0.006717,0.100167,0.724241,0.246185,-44.439240,,,,,,
1465825286.22,-2.300577,-0.023050,-0.510397,0.114298,-5.323916,0.156244,-0.745123,0.023048,0.666529,-0.042017,0.001671,0.058141,-3.641350,0.155776,-44.296135,,,,,,
1465825286.23,-2.353985,-0.024933,-0.510673,0.105775,-5.329218,0.155204,-0.708447,0.024930,0.705323,-0.093280,0.006518,0.017363,-3.641350,0.155776,-44.296135,,,,,,
1465825286.24,-2.405053,-0.026732,-0.511016,0.105135,-4.998982,0.147810,-0.671489,0.026729,0.740533,-0.097600,-0.002132,0.049598,-3.641350,0.155776,-44.296135,,,,,,
1465825286.25,-2.451564,-0.028348,-0.511424,0.095090,-4.536002,0.134252,-0.636303,0.028344,0.770918,-0.109806,0.007911,0.067568,-12.767411,0.014520,-42.572578,,,,,,
1465825286.26,-2.494420,-0.029839,-0.511841,0.088027,-4.215336,0.122643,-0.602665,0.029834,0.797436,-0.124492,0.000149,0.012012,-12.767411,0.014520,-42.572578,,,,,,
1465825286.27,-2.534708,-0.031213,-0.512286,0.085159,-3.963672,0.115739,-0.570034,0.031207,0.821028,-0.163868,0.001340,-0.026381,-12.767411,0.014520,-42.572578,,,,,,
1465825286.28,-2.571198,-0.032444,-0.512753,0.072952,-3.522994,0.104448,-0.539680,0.032438,0.841245,-0.175560,-0.001829,-0.032621,-16.515018,-0.025419,-41.263603,,,,,,
1465825286.29,-2.601742,-0.033473,-0.513158,0.063120,-2.898605,0.084555,-0.513720,0.033467,0.857305,-0.176877,0.000057,-0.020955,-16.515018,-0.025419,-41.263603,,,,,,
1465825286.30,-2.625799,-0.034265,-0.513514,0.045867,-2.246608,0.065547,-0.492936,0.034258,0.869391,-0.183684,-0.000597,-0.033835,-16.515018,-0.025419,-41.263603,,,,,,
1465825286.31,-2.643648,-0.034875,-0.513774,0.037064,-1.646646,0.047937,-0.477330,0.034868,0.878032,-0.186671,0.000837,-0.053798,-21.776375,-0.063431,-38.745537,,,,,,
1465825286.32,-2.655642,-0.035277,-0.513952,0.023986,-1.060486,0.030410,-0.466758,0.035269,0.883681,-0.185357,-0.002707,-0.068786,-21.776375,-0.063431,-38.745537,,,,,,
1465825286.33,-2.661429,-0.035483,-0.514039,0.010945,-0.443533,0.012690,-0.461633,0.035476,0.886361,-0.172491,0.000855,-0.056237,-21.776375,-0.063431,-38.745537,,,,,,
1465825286.34,-2.654411,-0.035404,-0.513794,-0.002118,0.158584,-0.002808,-0.467844,0.035396,0.883102,-0.157904,-0.001415,-0.055969,-22.922287,-0.070009,-38.078804,,,,,,
1465825286.35,-2.648589,-0.035227,-0.513699,-0.014164,0.719260,-0.020174,-0.472980,0.035220,0.880369,-0.145184,0.001172,-0.052076,-22.922287,-0.070009,-38.078804,,,,,,
1465825286.36,-2.637459,-0.034902,-0.513510,-0.022004,1.239582,-0.036219,-0.482755,0.034894,0.875060,-0.143465,-0.001966,-0.050963,-22.875591,-0.078932,-38.106857,,,,,,
1465825286.37,-2.621180,-0.034378,-0.513256,-0.036236,1.756723,-0.052250,-0.496944,0.034371,0.867101,-0.130131,0.001060,-0.040930,-22.875591,-0.078932,-38.106857,,,,,,
1465825286.38,-2.599690,-0.033716,-0.512930,-0.043022,2.273850,-0.065080,-0.515474,0.033710,0.856242,-0.105040,-0.001270,-0.009639,-22.875591,-0.078932,-38.106857,,,,,,
1465825286.39,-2.573801,-0.032897,-0.512548,-0.051010,2.679492,-0.078276,-0.537481,0.032891,0.842634,-0.089488,0.004737,-0.001265,-22.875591,-0.078932,-38.106857,,,,,,
1465825286.40,-2.544630,-0.031951,-0.512159,-0.060189,2.990623,-0.086624,-0.561846,0.031945,0.826625,-0.071043,-0.002496,-0.001567,-20.758188,-0.073039,-39.300430,,,,,,
1465825286.41,-2.512820,-0.030874,-0.511771,-0.066260,3.233796,-0.094541,-0.587872,0.030869,0.808365,-0.066776,0.007370,0.009262,-20.758188,-0.073039,-39.300430,,,,,,
1465825286.42,-2.478457,-0.029714,-0.511392,-0.073355,3.508825,-0.102660,-0.615319,0.029710,0.787718,-0.049293,0.002776,0.028475,-20.758188,-0.073039,-39.300430,,,,,,
1465825286.43,-2.441222,-0.028473,-0.511039,-0.074074,3.782773,-0.105443,-0.644240,0.028469,0.764294,-0.008699,0.007068,0.080372,-15.854815,-0.039657,-41.521736,,,,,,
1465825286.45,-2.364712,-0.025851,-0.510437,-0.075167,3.755176,-0.108465,-0.700824,0.025848,0.712866,0.023746,0.006302,0.053065,-15.854815,-0.039657,-41.521736,,,,,,
1465825286.44,-2.402608,-0.027159,-0.510718,-0.076090,3.864547,-0.111280,-0.673289,0.027155,0.738880,0.023707,0.007680,0.072735,-15.854815,-0.039657,-41.521736,,,,,,
1465825286.46,-2.328055,-0.024550,-0.510200,-0.075313,3.635198,-0.109841,-0.726503,0.024547,0.686725,0.033586,0.008763,0.059415,-12.663621,-0.006607,-42.603569,,,,,,
1465825286.47,-2.292058,-0.023267,-0.510036,-0.074305,3.600140,-0.103234,-0.750770,0.023264,0.660154,0.029731,0.003210,0.066195,-12.663621,-0.006607,-42.603569,,,,,,
1465825286.48,-2.255574,-0.021988,-0.509918,-0.072107,3.653232,-0.104629,-0.774372,0.021986,0.632348,0.083958,0.014009,0.128043,-12.663621,-0.006607,-42.603569,,,,,,
1465825286.49,-2.220292,-0.020777,-0.509871,-0.070236,3.458901,-0.095957,-0.796217,0.020776,0.604654,0.112638,0.006553,0.119192,-6.286394,0.081700,-43.998932,,,,,,
1465825286.50,-2.188579,-0.019706,-0.509829,-0.056911,3.058574,-0.085982,-0.815007,0.019705,0.579117,0.163594,0.008905,0.106156,-6.286394,0.081700,-43.998932,,,,,,
1465825286.51,-2.162411,-0.018779,-0.509828,-0.050235,2.454378,-0.072606,-0.829895,0.018778,0.557603,0.167999,0.011053,0.085936,-6.286394,0.081700,-43.998932,,,,,,
1465825286.52,-2.142328,-0.018048,-0.509835,-0.039265,1.880967,-0.057290,-0.840936,0.018047,0.540833,0.151544,0.005177,0.045730,-3.327066,0.130677,-44.320934,,,,,,
1465825286.53,-2.126393,-0.017463,-0.509840,-0.029104,1.507184,-0.046420,-0.849456,0.017463,0.527370,0.166671,0.014871,0.090596,-3.327066,0.130677,-44.320934,,,,,,
1465825286.54,-2.113995,-0.017049,-0.509844,-0.022123,1.149320,-0.032460,-0.855935,0.017048,0.516802,0.169275,0.009151,0.091978,-3.327066,0.130677,-44.320934,,,,,,
1465825286.55,-2.105813,-0.016761,-0.509848,-0.013122,0.699088,-0.021111,-0.860139,0.016760,0.509784,0.167604,0.012293,0.069837,-0.015594,0.192290,-44.445408,,,,,,
1465825286.56,-2.102443,-0.016637,-0.509865,-0.005232,0.216993,-0.006371,-0.861854,0.016636,0.506883,0.159797,0.006054,0.050734,-0.015594,0.192290,-44.445408,,,,,,
1465825286.57,-2.103655,-0.016677,-0.509849,0.005904,-0.228993,0.004953,-0.861239,0.016677,0.507927,0.159136,0.007051,0.054436,-0.015594,0.192290,-44.445408,,,,,,
1465825286.58,-2.108998,-0.016864,-0.509816,0.013893,-0.633573,0.018142,-0.858510,0.016863,0.512520,0.154378,0.009306,0.055946,0.497776,0.202524,-44.442577,,,,,,
1465825286.60,-2.131463,-0.017698,-0.509735,0.029915,-1.411936,0.042200,-0.846768,0.017697,0.531668,0.135495,0.010440,0.048196,0.497776,0.202524,-44.442577,,,,,,
1465825286.59,-2.118293,-0.017215,-0.509776,0.022960,-1.026477,0.032325,-0.853704,0.017214,0.520474,0.144704,0.006056,0.052875,0.497776,0.202524,-44.442577,,,,,,
1465825286.61,-2.148288,-0.018306,-0.509709,0.036905,-1.768725,0.051896,-0.837694,0.018305,0.545833,0.119555,0.005957,0.038091,-0.791950,0.173202,-44.438431,,,,,,
1465825286.62,-2.168257,-0.019020,-0.509694,0.043968,-2.068178,0.061232,-0.826617,0.019019,0.562443,0.102344,0.008187,0.039379,-0.791950,0.173202,-44.438431,,,,,,
1465825286.63,-2.190583,-0.019841,-0.509680,0.050084,-2.277371,0.067872,-0.813842,0.019840,0.580748,0.091521,0.004468,0.039064,-2.425951,0.141293,-44.379345,,,,,,
1465825286.64,-2.214806,-0.020729,-0.509685,0.053015,-2.482309,0.072354,-0.799523,0.020728,0.600278,0.107567,0.010095,0.070315,-2.425951,0.141293,-44.379345,,,,,,
1465825286.65,-2.242327,-0.021679,-0.509720,0.056801,-2.850771,0.079991,-0.782686,0.021677,0.622039,0.076631,0.006033,0.025513,-2.425951,0.141293,-44.379345,,,,,,
1465825286.66,-2.272876,-0.022762,-0.509773,0.064995,-3.097134,0.088995,-0.763303,0.022760,0.645640,0.035901,0.001288,-0.003824,-4.488255,0.101745,-44.218513,,,,,,
1465825286.67,-2.304228,-0.023858,-0.509883,0.062817,-3.134299,0.090291,-0.742670,0.023856,0.669232,0.015299,0.006280,0.024738,-4.488255,0.101745,-44.218513,,,,,,
1465825286.68,-2.334944,-0.024938,-0.510042,0.061875,-3.036613,0.089677,-0.721748,0.024935,0.691707,-0.033821,0.001417,0.002156,-4.488255,0.101745,-44.218513,,,,,,
1465825286.69,-2.363393,-0.025944,-0.510213,0.055833,-2.770079,0.081613,-0.701762,0.025941,0.711939,-0.048466,0.001342,0.008734,-9.754877,0.018668,-43.362122,,,,,,
1465825286.70,-2.388884,-0.026852,-0.510395,0.053011,-2.482315,0.074483,-0.683372,0.026849,0.729577,-0.041985,0.001930,0.027397,-9.754877,0.018668,-43.362122,,,,,,
1465825286.71,-2.412650,-0.027709,-0.510575,0.051056,-2.346397,0.071500,-0.665826,0.027705,0.745592,-0.052085,0.002492,-0.004122,-9.754877,0.018668,-43.362122,,,,,,
1465825286.72,-2.435268,-0.028513,-0.510759,0.048013,-2.235950,0.064417,-0.648778,0.028509,0.760443,-0.044932,0.004023,-0.009955,-12.078122,-0.011856,-42.773243,,,,,,
1465825286.73,-2.456794,-0.029271,-0.510958,0.043903,-2.117027,0.063667,-0.632246,0.029267,0.774214,-0.062090,-0.001633,-0.020491,-12.078122,-0.011856,-42.773243,,,,,,
1465825286.74,-2.476375,-0.029935,-0.511141,0.041006,-1.894023,0.053750,-0.616954,0.029931,0.786430,-0.069417,0.005164,-0.028633,-12.078122,-0.011856,-42.773243,,,,,,
1465825286.75,-2.492936,-0.030514,-0.511304,0.032899,-1.574401,0.046415,-0.603835,0.030509,0.796525,-0.092988,-0.002677,-0.028214,-15.768634,-0.054250,-41.554527,,,,,,
1465825286.76,-2.505596,-0.030956,-0.511436,0.027054,-1.157083,0.034212,-0.593695,0.030951,0.804095,-0.100641,0.002908,-0.028506,-15.768634,-0.054250,-41.554527,,,,,,
1465825286.77,-2.513970,-0.031259,-0.511521,0.016958,-0.732331,0.021958,-0.586935,0.031254,0.809030,-0.103281,-0.001820,-0.028772,-15.768634,-0.054250,-41.554527,,,,,,
1465825286.78,-2.518227,-0.031419,-0.511574,0.007903,-0.325632,0.010883,-0.583483,0.031414,0.811517,-0.104490,-0.000454,-0.035913,-16.975683,-0.066456,-41.076187,,,,,,
1465825286.79,-2.513999,-0.031343,-0.511421,-0.000105,0.064106,-0.002214,-0.586910,0.031338,0.809046,-0.096257,-0.001202,-0.033441,-16.975683,-0.066456,-41.076187,,,,,,
1465825286.80,-2.510495,-0.031235,-0.511377,-0.007066,0.445318,-0.012063,-0.589744,0.031230,0.806986,-0.092446,0.000935,-0.029643,-16.975683,-0.066456,-41.076187,,,,,,
1465825286.81,-2.498898,-0.030956,-0.511160,-0.015094,0.822307,-0.022951,-0.599068,0.030951,0.800100,-0.080284,0.000268,-0.025472,-17.176769,-0.075132,-40.992493,,,,,,
1465825286.82,-2.487934,-0.030600,-0.511040,-0.023141,1.184409,-0.033746,-0.607810,0.030595,0.793493,-0.068902,0.000120,-0.013448,-17.176769,-0.075132,-40.992493,,,,,,
1465825286.84,-2.457132,-0.029598,-0.510719,-0.034158,1.719596,-0.048822,-0.631979,0.029594,0.774421,-0.038905,0.000588,0.000619,-16.248058,-0.073356,-41.369392,,,,,,
1465825286.83,-2.473768,-0.030142,-0.510883,-0.028073,1.485982,-0.042029,-0.618998,0.030137,0.784814,-0.049703,0.002730,-0.000802,-16.248058,-0.073356,-41.369392,,,,,,
1465825286.85,-2.438610,-0.029005,-0.510538,-0.033943,1.886308,-0.053061,-0.646224,0.029001,0.762596,-0.010423,0.003134,0.017326,-16.248058,-0.073356,-41.369392,,,,,,
1465825286.86,-2.419043,-0.028342,-0.510369,-0.040217,1.972326,-0.056800,-0.661034,0.028338,0.749821,0.006234,0.005201,0.026928,-16.248058,-0.073356,-41.369392,,,,,,
1465825286.87,-2.399008,-0.027670,-0.510192,-0.038038,2.009491,-0.058095,-0.675936,0.027667,0.736441,0.022646,0.003568,0.024423,-13.362481,-0.047039,-42.389542,,,,,,
1465825286.88,-2.378968,-0.026962,-0.510038,-0.041248,1.993571,-0.060128,-0.690570,0.026958,0.722763,0.030338,0.008412,0.037949,-13.362481,-0.047039,-42.389542,,,,,,
1465825286.89,-2.359004,-0.026273,-0.509899,-0.040173,2.005244,-0.058071,-0.704874,0.026270,0.708846,0.024683,0.000235,0.019700,-13.362481,-0.047039,-42.389542,,,,,,
1465825286.90,-2.338757,-0.025584,-0.509757,-0.039058,2.042413,-0.060432,-0.719094,0.025581,0.694442,0.040535,0.009102,0.053559,-11.653822,-0.027937,-42.890778,,,,,,
1465825286.91,-2.318486,-0.024849,-0.509652,-0.043322,2.038167,-0.060409,-0.733036,0.024847,0.679736,0.027835,-0.000387,0.038068,-11.653822,-0.027937,-42.890778,,,,,,
1465825286.92,-2.297927,-0.024105,-0.509539,-0.040093,2.062592,-0.062688,-0.746868,0.024102,0.664536,0.033351,0.007849,0.038086,-11.653822,-0.027937,-42.890778,,,,,,
1465825286.93,-2.276833,-0.023376,-0.509449,-0.042147,2.124175,-0.062012,-0.760731,0.023374,0.648646,0.041402,0.000216,0.057104,-8.144009,0.018667,-43.693321,,,,,,
1465825286.94,-2.255824,-0.022657,-0.509378,-0.040086,2.076381,-0.057452,-0.774202,0.022655,0.632532,0.078219,0.010746,0.083532,-8.144009,0.018667,-43.693321,,,,,,
1465825286.95,-2.236935,-0.022003,-0.509355,-0.038278,1.826844,-0.051628,-0.786023,0.022002,0.617805,0.100904,0.005601,0.071922,-8.144009,0.018667,-43.693321,,,,,,
1465825286.96,-2.221291,-0.021464,-0.509331,-0.029154,1.474298,-0.040892,-0.795601,0.021462,0.605441,0.109474,0.007728,0.049100,-6.297930,0.045780,-43.997337,,,,,,
1465825286.97,-2.208823,-0.021033,-0.509309,-0.022079,1.181222,-0.033725,-0.803095,0.021031,0.595480,0.112040,0.005092,0.048487,-6.297930,0.045780,-43.997337,,,,,,
1465825286.99,-2.192150,-0.020485,-0.509270,-0.011160,0.570642,-0.016047,-0.812921,0.020484,0.582014,0.150689,0.009515,0.080996,-4.775215,0.071395,-44.188499,,,,,,
1465825286.98,-2.198845,-0.020715,-0.509273,-0.013887,0.931676,-0.025765,-0.809002,0.020713,0.587441,0.137035,0.008874,0.076484,-4.775215,0.071395,-44.188499,,,,,,
1465825287.00,-2.189852,-0.020409,-0.509267,-0.000044,0.110849,-0.003572,-0.814257,0.020407,0.580145,0.153170,0.006875,0.054544,-4.775215,0.071395,-44.188499,,,,,,
1465825287.01,-2.192083,-0.020494,-0.509268,0.005770,-0.329831,0.009842,-0.812959,0.020493,0.581960,0.147859,0.006515,0.045421,-4.775215,0.071395,-44.188499,,,,,,
1465825287.02,-2.198207,-0.020708,-0.509270,0.015933,-0.702553,0.020705,-0.809377,0.020707,0.586925,0.142827,0.007324,0.047581,-3.383940,0.093163,-44.316719,,,,,,
1465825287.03,-2.207762,-0.021047,-0.509266,0.020823,-1.037044,0.030259,-0.803726,0.021046,0.594627,0.130020,0.004772,0.047966,-3.383940,0.093163,-44.316719,,,,,,
1465825287.04,-2.220391,-0.021471,-0.509273,0.027893,-1.335426,0.036395,-0.796145,0.021469,0.604725,0.106555,0.008301,0.036968,-3.383940,0.093163,-44.316719,,,,,,
1465825287.05,-2.235241,-0.021981,-0.509284,0.030847,-1.520193,0.041815,-0.787069,0.021980,0.616473,0.074392,0.002267,0.012922,-4.735504,0.069037,-44.192780,,,,,,
1465825287.06,-2.250892,-0.022553,-0.509284,0.035035,-1.572232,0.045339,-0.777315,0.022551,0.628707,0.061327,0.007020,0.030655,-4.735504,0.069037,-44.192780,,,,,,
1465825287.07,-2.267028,-0.023123,-0.509334,0.031763,-1.630635,0.047831,-0.767060,0.023121,0.641159,0.055603,0.003918,0.035705,-4.735504,0.069037,-44.192780,,,,,,
1465825287.08,-2.284151,-0.023736,-0.509384,0.035878,-1.740012,0.051714,-0.755958,0.023734,0.654190,0.039588,0.004800,0.019089,-6.080938,0.044593,-44.027847,,,,,,
1465825287.09,-2.302066,-0.024366,-0.509440,0.037935,-1.799471,0.051025,-0.744106,0.024364,0.667617,0.012524,0.003911,-0.009490,-6.080938,0.044593,-44.027847,,,,,,
1465825287.10,-2.319476,-0.024967,-0.509510,0.034865,-1.703901,0.048293,-0.732360,0.024964,0.680460,-0.017320,0.004134,-0.014078,-6.080938,0.044593,-44.027847,,,,,,
1465825287.11,-2.334662,-0.025506,-0.509587,0.029869,-1.450116,0.042439,-0.721933,0.025503,0.691493,-0.030234,-0.000036,0.003987,-9.083607,-0.002219,-43.507698,,,,,,
1465825287.12,-2.347314,-0.025963,-0.509648,0.026984,-1.210135,0.036673,-0.713118,0.025960,0.700563,-0.019289,0.005077,0.012190,-9.083607,-0.002219,-43.507698,,,,,,
1465825287.13,-2.358278,-0.026379,-0.509709,0.023972,-1.067846,0.033649,-0.705387,0.026376,0.708332,-0.022641,0.001792,0.010479,-9.083607,-0.002219,-43.507698,,,,,,
1465825287.14,-2.368615,-0.026751,-0.509774,0.021899,-1.028550,0.030207,-0.698020,0.026748,0.715578,-0.008859,0.003053,0.000196,-10.290958,-0.019843,-43.238029,,,,,,
1465825287.15,-2.378872,-0.027115,-0.509821,0.021910,-1.021114,0.029096,-0.690637,0.027111,0.722693,-0.012991,0.004322,-0.016547,-10.290958,-0.019843,-43.238029,,,,,,
1465825287.16,-2.388391,-0.027437,-0.509903,0.017785,-0.915991,0.027368,-0.683720,0.027433,0.729228,-0.029491,-0.000410,-0.014568,-10.290958,-0.019843,-43.238029,,,,,,
1465825287.18,-2.401216,-0.027925,-0.509983,0.010911,-0.470004,0.014984,-0.674303,0.027922,0.737926,-0.031385,0.001390,0.013157,-12.057630,-0.043993,-42.779003,,,,,,
1465825287.17,-2.395977,-0.027723,-0.509946,0.017001,-0.699371,0.021751,-0.678163,0.027719,0.734388,-0.023100,0.004965,-0.018247,-12.057630,-0.043993,-42.779003,,,,,,
1465825287.19,-2.404738,-0.028071,-0.509986,0.011107,-0.320278,0.009787,-0.671697,0.028067,0.740294,-0.014704,0.003976,0.000765,-12.057630,-0.043993,-42.779003,,,,,,
1465825287.20,-2.407293,-0.028175,-0.509989,0.006958,-0.236387,0.007128,-0.669801,0.028171,0.742006,-0.014265,0.000805,-0.007081,-12.605151,-0.052170,-42.620872,,,,,,
1465825287.21,-2.408137,-0.028470,-0.509981,0.003878,-0.148246,0.004444,-0.669169,0.028466,0.742564,-0.007481,0.003531,-0.013515,-12.605151,-0.052170,-42.620872,,,,,,
1465825287.22,-2.408669,-0.028500,-0.509978,0.001915,-0.018699,0.001501,-0.668774,0.028496,0.742920,-0.013599,0.000252,0.006699,-12.605151,-0.052170,-42.620872,,,,,,
1465825287.23,-2.407438,-0.028558,-0.509963,-0.003208,0.134216,-0.003721,-0.669687,0.028555,0.742095,-0.004828,0.001719,-0.000746,-12.922498,-0.065550,-42.525711,,,,,,
1465825287.24,-2.405070,-0.028496,-0.509939,-0.003034,0.269071,-0.006695,-0.671443,0.028492,0.740508,-0.007802,0.001660,0.006608,-12.922498,-0.065550,-42.525711,,,,,,
1465825287.25,-2.401549,-0.028380,-0.509911,-0.007151,0.377386,-0.010572,-0.674048,0.028376,0.738142,-0.000543,0.001913,0.003923,-12.922498,-0.065550,-42.525711,,,,,,
1465825287.26,-2.397110,-0.028231,-0.509869,-0.008102,0.463401,-0.014306,-0.677322,0.028228,0.735145,0.001327,0.003343,0.001381,-12.769406,-0.066931,-42.571930,,,,,,
1465825287.27,-2.391916,-0.028062,-0.509812,-0.009069,0.537734,-0.016902,-0.681134,0.028058,0.731621,0.000058,0.002216,0.002418,-12.769406,-0.066931,-42.571930,,,,,,
1465825287.28,-2.385904,-0.027863,-0.509746,-0.011115,0.623716,-0.019582,-0.685524,0.027859,0.727517,0.001396,0.004688,0.006324,-12.430196,-0.063529,-42.672211,,,,,,
1465825287.29,-2.378909,-0.027622,-0.509684,-0.013116,0.724591,-0.021281,-0.690600,0.027618,0.722709,0.007495,0.003235,0.008278,-12.430196,-0.063529,-42.672211,,,,,,
1465825287.30,-2.371430,-0.027424,-0.509630,-0.015124,0.818035,-0.023998,-0.695990,0.027421,0.717528,0.012839,0.002731,0.020006,-12.430196,-0.063529,-42.672211,,,,,,
1465825287.31,-2.363091,-0.027198,-0.509590,-0.017178,0.879616,-0.023321,-0.701954,0.027194,0.711703,0.029041,0.004483,0.017881,-11.330651,-0.054068,-42.977257,,,,,,
1465825287.32,-2.354494,-0.026935,-0.509544,-0.016123,0.872181,-0.023274,-0.708051,0.026931,0.705647,0.030195,0.003312,0.015391,-11.330651,-0.054068,-42.977257,,,,,,
1465825287.33,-2.346284,-0.026667,-0.509496,-0.017253,0.818033,-0.024000,-0.713826,0.026664,0.699815,0.025014,0.002023,0.006560,-11.330651,-0.054068,-42.977257,,,,,,
1465825287.34,-2.338540,-0.026411,-0.509454,-0.016228,0.786177,-0.023799,-0.719229,0.026408,0.694271,0.021246,0.002798,0.006184,-10.601278,-0.046132,-43.162971,,,,,,
1465825287.35,-2.330889,-0.026191,-0.509417,-0.016185,0.822273,-0.022960,-0.724523,0.026188,0.688752,0.011846,0.002270,0.016295,-10.601278,-0.046132,-43.162971,,,,,,
1465825287.36,-2.323123,-0.025990,-0.509407,-0.019265,0.908284,-0.026696,-0.729854,0.025987,0.683108,0.017605,0.002318,0.018140,-10.601278,-0.046132,-43.162971,,,,,,
1465825287.37,-2.313588,-0.025658,-0.509338,-0.019163,0.984742,-0.030369,-0.736341,0.025655,0.676125,0.011228,0.001689,0.019142,-9.242338,-0.029644,-43.474243,,,,,,
1465825287.38,-2.303398,-0.025296,-0.509289,-0.020176,1.026153,-0.030629,-0.743199,0.025293,0.668592,0.018132,0.003577,0.012102,-9.242338,-0.029644,-43.474243,,,,,,
1465825287.39,-2.292846,-0.024939,-0.509227,-0.019066,1.063313,-0.029797,-0.750219,0.024936,0.660719,0.034002,0.004223,0.028689,-9.242338,-0.029644,-43.474243,,,,,,
1465825287.40,-2.282215,-0.024574,-0.509183,-0.021203,1.055884,-0.030817,-0.757208,0.024572,0.652712,0.053777,0.006907,0.035765,-9.242338,-0.029644,-43.474243,,,,,,
1465825287.41,-2.272499,-0.024249,-0.509147,-0.016029,0.943318,-0.025848,-0.763520,0.024246,0.645329,0.063538,0.004501,0.024211,-7.456892,-0.005642,-43.815819,,,,,,
1465825287.42,-2.264332,-0.023979,-0.509112,-0.014120,0.772358,-0.021580,-0.768770,0.023977,0.639076,0.074357,0.004221,0.028206,-7.456892,-0.005642,-43.815819,,,,,,
1465825287.43,-2.258024,-0.023755,-0.509091,-0.011171,0.582285,-0.017192,-0.772790,0.023753,0.634218,0.083687,0.004262,0.032302,-6.672247,0.005290,-43.942150,,,,,,
1465825287.44,-2.253708,-0.023610,-0.509071,-0.007174,0.381588,-0.010607,-0.775523,0.023608,0.630878,0.083750,0.004041,0.031811,-6.672247,0.005290,-43.942150,,,,,,
1465825287.45,-2.255260,-0.023874,-0.509152,-0.003159,0.191495,-0.006217,-0.774538,0.023872,0.632077,0.080797,0.005486,0.030444,-6.672247,0.005290,-43.942150,,,,,,
1465825287.46,-2.254688,-0.023872,-0.509146,-0.000202,0.013093,0.001292,-0.774899,0.023870,0.631634,0.080975,0.002375,0.028904,-6.205080,0.012237,-44.010544,,,,,,
1465825287.47,-2.255868,-0.023926,-0.509139,0.004895,-0.163178,0.005596,-0.774152,0.023923,0.632548,0.077756,0.005511,0.028631,-6.205080,0.012237,-44.010544,,,,,,
1465825287.48,-2.258823,-0.024035,-0.509140,0.006800,-0.338382,0.008825,-0.772278,0.024033,0.634830,0.072937,0.003662,0.027279,-6.205080,0.012237,-44.010544,,,,,,
1465825287.49,-2.266551,-0.024471,-0.509228,0.010840,-0.502996,0.016249,-0.767341,0.024469,0.640773,0.068061,0.004325,0.021047,-6.430040,0.005098,-43.978245,,,,,,
1465825287.50,-2.272676,-0.024699,-0.509245,0.013848,-0.648471,0.019293,-0.763397,0.024697,0.645457,0.059006,0.005745,0.018209,-6.430040,0.005098,-43.978245,,,,,,
1465825287.51,-2.280662,-0.025019,-0.509259,0.017952,-0.770586,0.021128,-0.758212,0.025017,0.651528,0.047366,0.003029,0.010978,-6.430040,0.005098,-43.978245,,,,,,
1465825287.52,-2.289158,-0.025334,-0.509284,0.015725,-0.844918,0.023721,-0.752643,0.025331,0.657941,0.032551,0.003630,0.005633,-7.038530,-0.006153,-43.884968,,,,,,
1465825287.53,-2.297882,-0.025642,-0.509316,0.017843,-0.852355,0.024834,-0.746869,0.025639,0.664477,0.019376,0.001643,0.007261,-7.038530,-0.006153,-43.884968,,,,,,
1465825287.54,-2.306393,-0.025969,-0.509357,0.017881,-0.821564,0.024641,-0.741181,0.025966,0.670803,0.006287,0.001164,0.002735,-7.038530,-0.006153,-43.884968,,,,,,
1465825287.55,-2.313994,-0.026252,-0.509378,0.015834,-0.761031,0.021066,-0.736055,0.026249,0.676413,-0.011595,0.000622,-0.006979,-8.513792,-0.031060,-43.622768,,,,,,
1465825287.56,-2.320538,-0.026554,-0.509405,0.012782,-0.649535,0.019300,-0.731607,0.026551,0.681209,-0.014090,0.002655,-0.007427,-8.513792,-0.031060,-43.622768,,,,,,
1465825287.57,-2.325520,-0.026748,-0.509402,0.012984,-0.495560,0.014076,-0.728200,0.026744,0.684842,-0.018015,0.000111,-0.002897,-8.513792,-0.031060,-43.622768,,,,,,
1465825287.58,-2.328768,-0.026932,-0.509396,0.008919,-0.345833,0.009940,-0.725968,0.026928,0.687201,-0.016433,0.001056,-0.004263,-9.129930,-0.042653,-43.497978,,,,,,
1465825287.59,-2.330720,-0.027060,-0.509388,0.005885,-0.221592,0.007029,-0.724623,0.027057,0.688614,-0.015092,0.000821,-0.004608,-9.129930,-0.042653,-43.497978,,,,,,
1465825287.60,-2.331681,-0.027140,-0.509369,0.003886,-0.122832,0.003214,-0.723959,0.027137,0.689309,-0.010934,0.000588,-0.006524,-9.129930,-0.042653,-43.497978,,,,,,
1465825287.61,-2.331548,-0.027244,-0.509354,0.001885,-0.021953,0.001515,-0.724049,0.027240,0.689210,-0.013286,0.001919,-0.007554,-9.614143,-0.057494,-43.393505,,,,,,
1465825287.62,-2.330451,-0.027280,-0.509338,-0.002232,0.086364,-0.002361,-0.724804,0.027276,0.688415,-0.011905,0.001380,-0.005614,-9.614143,-0.057494,-43.393505,,,,,,
1465825287.63,-2.328466,-0.027236,-0.509311,-0.003153,0.195740,-0.006241,-0.726170,0.027232,0.686975,-0.008144,0.000554,-0.001398,-9.614143,-0.057494,-43.393505,,,,,,
1465825287.64,-2.325576,-0.027208,-0.509275,-0.004091,0.293434,-0.008984,-0.728153,0.027205,0.684875,-0.005261,0.001695,0.000184,-9.560787,-0.061891,-43.405289,,,,,,
1465825287.65,-2.321840,-0.027034,-0.509245,-0.007167,0.383695,-0.011682,-0.730710,0.027031,0.682153,-0.002826,-0.001183,0.000800,-9.560787,-0.061891,-43.405289,,,,,,
1465825287.66,-2.317463,-0.026878,-0.509212,-0.007072,0.458024,-0.013213,-0.733692,0.026875,0.678950,0.001713,-0.000156,0.002644,-9.560787,-0.061891,-43.405289,,,,,,
1465825287.67,-2.312661,-0.026784,-0.509177,-0.009110,0.525988,-0.016834,-0.736945,0.026781,0.675422,0.008186,0.002379,0.007775,-8.996363,-0.057437,-43.525784,,,,,,
1465825287.68,-2.307453,-0.026627,-0.509153,-0.010108,0.579076,-0.017168,-0.740456,0.026624,0.671577,0.012643,0.001071,0.011407,-8.996363,-0.057437,-43.525784,,,,,,
1465825287.69,-2.302012,-0.026471,-0.509135,-0.011137,0.607742,-0.017348,-0.744102,0.026468,0.667541,0.025398,0.001395,0.012589,-8.996363,-0.057437,-43.525784,,,,,,
1465825287.70,-2.296747,-0.026330,-0.509113,-0.010091,0.593932,-0.016196,-0.747610,0.026327,0.663616,0.037099,0.001642,0.018452,-8.560289,-0.053935,-43.613647,,,,,,
1465825287.71,-2.292136,-0.026193,-0.509112,-0.009126,0.517472,-0.013587,-0.750664,0.026190,0.660165,0.042992,0.001139,0.016730,-8.560289,-0.053935,-43.613647,,,,,,
1465825287.72,-2.288742,-0.026103,-0.509105,-0.007131,0.410224,-0.012912,-0.752902,0.026100,0.657615,0.050494,0.001777,0.010247,-8.560289,-0.053935,-43.613647,,,,,,
1465825287.73,-2.286766,-0.026062,-0.509129,-0.006211,0.299780,-0.009025,-0.754201,0.026059,0.656126,0.048909,0.001728,0.015764,-7.742825,-0.043724,-43.766178,,,,,,
1465825287.74,-2.285922,-0.026103,-0.509154,-0.002086,0.199950,-0.004137,-0.754754,0.026100,0.655489,0.051949,0.002541,0.015211,-7.742825,-0.043724,-43.766178,,,,,,
1465825287.75,-2.286095,-0.026170,-0.509183,-0.002212,0.099072,-0.003504,-0.754639,0.026167,0.655618,0.052857,0.002779,0.015372,-7.742825,-0.043724,-43.766178,,,,,,
1465825287.76,-2.287325,-0.026217,-0.509227,-0.001298,-0.015619,0.000410,-0.753831,0.026214,0.656545,0.049837,0.001450,0.016017,-7.619326,-0.041861,-43.787849,,,,,,
1465825287.77,-2.289530,-0.026356,-0.509249,0.004938,-0.134556,0.003291,-0.752379,0.026353,0.658203,0.049178,0.002394,0.006912,-7.619326,-0.041861,-43.787849,,,,,,
1465825287.78,-2.292735,-0.026499,-0.509275,0.005860,-0.244995,0.006114,-0.750262,0.026496,0.660609,0.042132,0.001427,0.007970,-7.619326,-0.041861,-43.787849,,,,,,
1465825287.79,-2.296738,-0.026649,-0.509309,0.007876,-0.329953,0.009842,-0.747609,0.026645,0.663604,0.036641,0.000607,0.007889,-7.917356,-0.046351,-43.734940,,,,,,
1465825287.80,-2.301139,-0.026903,-0.509327,0.009935,-0.385174,0.011256,-0.744676,0.026900,0.666884,0.031984,0.003480,0.001589,-7.917356,-0.046351,-43.734940,,,,,,
1465825287.81,-2.305755,-0.027090,-0.509343,0.008822,-0.423401,0.011494,-0.741587,0.027087,0.670310,0.020304,0.001203,0.002236,-7.917356,-0.046351,-43.734940,,,,,,
1465825287.82,-2.310379,-0.027299,-0.509350,0.010929,-0.441454,0.011610,-0.738474,0.027296,0.673729,0.015772,0.001345,-0.004249,-8.284578,-0.053651,-43.666855,,,,,,
1465825287.83,-2.314800,-0.027473,-0.509353,0.010937,-0.435083,0.011570,-0.735485,0.027470,0.676983,0.005124,0.000133,-0.005414,-8.284578,-0.053651,-43.666855,,,,,,
1465825287.84,-2.318760,-0.027648,-0.509361,0.008854,-0.397918,0.011335,-0.732795,0.027645,0.679888,-0.000710,0.000691,-0.009340,-8.284578,-0.053651,-43.666855,,,,,,
1465825287.86,-2.324028,-0.027881,-0.509335,0.006948,-0.224831,0.007054,-0.729198,0.027878,0.683734,-0.014866,0.000168,-0.008319,-9.052696,-0.069462,-43.514080,,,,,,
1465825287.85,-2.321883,-0.027776,-0.509350,0.008948,-0.326770,0.008760,-0.730666,0.027772,0.682170,-0.010316,0.000121,-0.011348,-9.052696,-0.069462,-43.514080,,,,,,
1465825287.87,-2.324974,-0.027926,-0.509321,0.004968,-0.109085,0.004197,-0.728550,0.027922,0.684423,-0.015392,-0.000609,-0.009511,-9.052696,-0.069462,-43.514080,,,,,,
1465825287.88,-2.324860,-0.027939,-0.509295,0.000851,-0.002889,-0.000731,-0.728629,0.027936,0.684339,-0.015344,-0.000134,-0.008436,-9.281853,-0.075807,-43.465763,,,,,,
1465825287.89,-2.323812,-0.027925,-0.509269,0.000964,0.085245,-0.002348,-0.729345,0.027921,0.683576,-0.013773,-0.000120,-0.009732,-9.281853,-0.075807,-43.465763,,,,,,
1465825287.90,-2.321987,-0.027884,-0.509246,-0.003187,0.168076,-0.005000,-0.730593,0.027881,0.682244,-0.009687,0.000333,-0.008767,-9.281853,-0.075807,-43.465763,,,,,,
1465825287.92,-2.316454,-0.027712,-0.509201,-0.004064,0.312491,-0.009100,-0.734360,0.027708,0.678194,0.000473,-0.000258,-0.000002,-9.193199,-0.079270,-43.484600,,,,,,
1465825287.91,-2.319504,-0.027809,-0.509223,-0.003082,0.249838,-0.006578,-0.732286,0.027806,0.680429,-0.005919,-0.000309,-0.002100,-9.193199,-0.079270,-43.484600,,,,,,
1465825287.93,-2.313153,-0.027611,-0.509179,-0.006148,0.347534,-0.010387,-0.736597,0.027607,0.675768,0.010217,0.000347,0.001798,-9.193199,-0.079270,-43.484600,,,,,,
1465825287.94,-2.309979,-0.027529,-0.509166,-0.006154,0.344344,-0.009302,-0.738739,0.027526,0.673429,0.019135,0.001267,0.004916,-8.952494,-0.077006,-43.534798,,,,,,
1465825287.95,-2.307214,-0.027443,-0.509153,-0.005145,0.300805,-0.007964,-0.740600,0.027440,0.671385,0.027603,-0.000080,0.001573,-8.952494,-0.077006,-43.534798,,,,,,
1465825287.96,-2.305163,-0.027384,-0.509140,-0.003100,0.233908,-0.007542,-0.741977,0.027380,0.669866,0.030185,0.000177,0.003992,-8.952494,-0.077006,-43.534798,,,,,,
1465825287.97,-2.303883,-0.027355,-0.509141,-0.004254,0.165945,-0.004988,-0.742834,0.027352,0.668916,0.034231,0.000984,0.004149,-8.460463,-0.071777,-43.633091,,,,,,
1465825287.98,-2.303308,-0.027351,-0.509140,0.000978,0.095854,-0.002414,-0.743219,0.027347,0.668489,0.033380,0.000119,0.005965,-8.460463,-0.071777,-43.633091,,,,,,
1465825287.99,-2.303450,-0.027386,-0.509139,0.000889,0.026831,-0.000917,-0.743123,0.027383,0.668594,0.033254,0.001319,0.006073,-8.460463,-0.071777,-43.633091,,,,,,
1465825288.00,-2.304298,-0.027440,-0.509136,0.002921,-0.049625,0.000629,-0.742555,0.027436,0.669223,0.034135,0.001036,0.002133,-8.379477,-0.071015,-43.648720,,,,,,
1465825288.01,-2.305811,-0.027506,-0.509149,0.003894,-0.117592,0.004250,-0.741540,0.027503,0.670345,0.029855,0.000177,0.002492,-8.379477,-0.071015,-43.648720,,,,,,
1465825288.02,-2.307912,-0.027581,-0.509164,0.003817,-0.177059,0.005687,-0.740129,0.027578,0.671900,0.028230,0.000132,0.001623,-8.379477,-0.071015,-43.648720,,,,,,
1465825288.03,-2.310354,-0.027671,-0.509184,0.005885,-0.222725,0.008105,-0.738484,0.027668,0.673703,0.021550,-0.000660,-0.002652,-8.580355,-0.075415,-43.609673,,,,,,
1465825288.04,-2.313041,-0.027797,-0.509195,0.005852,-0.249271,0.008271,-0.736668,0.027794,0.675683,0.015736,0.000771,-0.001931,-8.580355,-0.075415,-43.609673,,,,,,
1465825288.05,-2.315695,-0.027913,-0.509225,-0.001599,-0.254565,0.004039,-0.734870,0.027910,0.677634,0.015616,0.002104,-0.010870,-8.580355,-0.075415,-43.609673,,,,,,
1465825288.06,-2.318105,-0.027910,-0.509191,0.010117,-0.242905,0.009300,-0.733235,0.027906,0.679402,0.009343,-0.005491,-0.015615,-8.803886,-0.079180,-43.565086,,,,,,
1465825288.07,-2.320251,-0.028009,-0.509216,0.001656,-0.202544,0.005845,-0.731773,0.028006,0.680972,-0.008339,0.002634,0.004986,-8.803886,-0.079180,-43.565086,,,,,,
1465825288.08,-2.321626,-0.027887,-0.509184,0.007046,-0.149455,0.005517,-0.730839,0.027884,0.681980,-0.000271,-0.010840,-0.018314,-8.803886,-0.079180,-43.565086,,,,,,
1465825288.09,-2.322459,-0.027949,-0.509184,0.000748,-0.082549,0.001898,-0.730269,0.027946,0.682588,-0.016923,0.002312,0.002974,-9.177561,-0.081688,-43.487896,,,,,,
1465825288.10,-2.322430,-0.027843,-0.509186,-0.001296,-0.015649,0.000411,-0.730291,0.027840,0.682569,-0.007197,-0.006676,-0.017987,-9.177561,-0.081688,-43.487896,,,,,,
1465825288.11,-2.321836,-0.027905,-0.509151,0.005177,0.056542,0.003158,-0.730695,0.027902,0.682134,-0.009112,0.001746,-0.004811,-9.177561,-0.081688,-43.487896,,,,,,
1465825288.12,-2.320608,-0.027851,-0.509164,-0.003254,0.119205,-0.001501,-0.731533,0.027847,0.681237,-0.002948,-0.000977,-0.008431,-9.212557,-0.080601,-43.480499,,,,,,
1465825288.13,-2.318902,-0.027776,-0.509121,0.002129,0.165923,-0.001789,-0.732696,0.027772,0.679989,-0.002182,-0.003755,-0.006603,-9.212557,-0.080601,-43.480499,,,,,,
1465825288.14,-2.317028,-0.027884,-0.509115,-0.002080,0.200973,-0.005206,-0.733967,0.027880,0.678613,0.008778,0.008115,-0.001275,-9.212557,-0.080601,-43.480499,,,,,,
1465825288.15,-2.315007,-0.027794,-0.509111,-0.007389,0.210534,-0.006336,-0.735339,0.027790,0.677130,0.013018,-0.002201,-0.003729,-8.977594,-0.084251,-43.529613,,,,,,
1465825288.16,-2.313222,-0.027947,-0.509098,-0.001022,0.193541,-0.006222,-0.736543,0.027944,0.675813,0.025422,0.010966,-0.005968,-8.977594,-0.084251,-43.529613,,,,,,
1465825288.17,-2.311802,-0.027897,-0.509103,-0.006393,0.152138,-0.008096,-0.737503,0.027893,0.674768,0.020599,0.001526,-0.002404,-8.977594,-0.084251,-43.529613,,,,,,
1465825288.18,-2.310932,-0.027846,-0.509081,-0.000068,0.108588,-0.003559,-0.738091,0.027842,0.674127,0.024071,-0.001246,0.001853,-8.811901,-0.086322,-43.563454,,,,,,
1465825288.19,-2.310576,-0.027779,-0.509084,-0.001194,0.060803,-0.002196,-0.738332,0.027776,0.673865,0.022726,-0.002095,0.004968,-8.811901,-0.086322,-43.563454,,,,,,
1465825288.20,-2.310689,-0.027672,-0.509084,0.000863,0.008763,0.001325,-0.738258,0.027669,0.673950,0.021782,-0.006856,0.002807,-8.811901,-0.086322,-43.563454,,,,,,
1465825288.21,-2.311351,-0.027761,-0.509074,0.006114,-0.047520,0.002748,-0.737810,0.027757,0.674437,0.027407,0.001891,-0.003386,-8.701506,-0.080555,-43.585648,,,,,,
1465825288.22,-2.312422,-0.027749,-0.509099,0.000736,-0.088932,0.004067,-0.737088,0.027746,0.675227,0.020977,-0.003454,-0.000926,-8.701506,-0.080555,-43.585648,,,,,,
1465825288.23,-2.313815,-0.027862,-0.509094,0.007079,-0.123979,0.005357,-0.736144,0.027859,0.676252,0.024672,0.001591,-0.007886,-8.701506,-0.080555,-43.585648,,,,,,
1465825288.24,-2.315444,-0.027901,-0.509097,0.004921,-0.148397,0.004444,-0.735041,0.027898,0.677449,0.014704,-0.001607,-0.001454,-8.777016,-0.081748,-43.570503,,,,,,
1465825288.25,-2.317156,-0.028000,-0.509102,0.004903,-0.159022,0.006639,-0.733878,0.027997,0.678704,0.013297,0.000461,-0.004632,-8.777016,-0.081748,-43.570503,,,,,,
1465825288.26,-2.318799,-0.028136,-0.509118,0.002786,-0.152644,0.004469,-0.732759,0.028132,0.679907,0.011979,0.004171,-0.007177,-8.777016,-0.081748,-43.570503,,,,,,
1465825288.27,-2.320093,-0.028626,-0.509084,0.003910,-0.127126,-0.008462,-0.731868,0.028622,0.680845,0.018825,0.026875,-0.022535,-9.054691,-0.089892,-43.513630,,,,,,
1465825288.28,-2.320860,-0.027965,-0.509152,-0.020590,-0.101668,-0.002270,-0.731359,0.027961,0.681419,-0.001002,-0.033729,-0.029045,-9.054691,-0.089892,-43.513630,,,,,,
1465825288.29,-2.321333,-0.029188,-0.509299,-0.047003,0.015219,-0.030700,-0.731011,0.029184,0.681741,0.039758,0.085028,-0.017724,-9.054691,-0.089892,-43.513630,,,,,,
1465825288.30,-2.319858,-0.028413,-0.509129,-0.021168,0.182008,-0.067911,-0.732032,0.028410,0.680677,0.132728,0.181399,-0.088728,-9.144331,-0.084703,-43.494892,,,,,,
1465825288.31,-2.318423,-0.028135,-0.509170,-0.038428,0.104330,-0.003574,-0.733015,0.028132,0.679631,-0.108050,-0.117823,0.070705,-9.144331,-0.084703,-43.494892,,,,,,
1465825288.32,-2.318243,-0.027893,-0.509121,0.021089,-0.005025,-0.017731,-0.733142,0.027889,0.679504,-0.045255,-0.036052,0.039719,-9.144331,-0.084703,-43.494892,,,,,,
1465825288.33,-2.317717,-0.027087,-0.509269,-0.111737,0.093983,-0.088739,-0.733515,0.027084,0.679133,0.037379,0.018555,-0.021800,-9.030481,-0.084199,-43.518673,,,,,,
1465825288.34,-2.315929,-0.026705,-0.508863,0.042629,0.187157,-0.021044,-0.734736,0.026701,0.677827,0.161311,0.177187,-0.125459,-9.030481,-0.084199,-43.518673,,,,,,
1465825288.35,-2.314000,-0.026231,-0.509135,-0.068129,0.179756,-0.012593,-0.736051,0.026228,0.676418,-0.185686,-0.194639,0.216252,-9.030481,-0.084199,-43.518673,,,,,,
1465825288.36,-2.313683,-0.026029,-0.509097,0.004030,-0.024129,-0.017629,-0.736270,0.026026,0.676188,0.057910,-0.021754,-0.103968,-8.929976,-0.066752,-43.539436,,,,,,
1465825288.37,-2.315393,-0.025875,-0.509033,-0.004751,-0.209981,-0.001570,-0.735115,0.025872,0.677449,0.093132,-0.004006,-0.119343,-8.929976,-0.066752,-43.539436,,,,,,
1465825288.38,-2.316885,-0.025944,-0.509103,0.004966,-0.101685,-0.001175,-0.734102,0.025941,0.678543,-0.135633,-0.077165,0.153793,-8.929976,-0.066752,-43.539436,,,,,,
1465825288.40,-2.316556,-0.026130,-0.509064,0.001868,-0.026292,-0.002715,-0.734322,0.026128,0.678298,0.074624,-0.016118,-0.096801,-8.971308,-0.040157,-43.530972,,,,,,
1465825288.39,-2.316626,-0.026148,-0.509041,0.010469,0.055436,0.006361,-0.734274,0.026145,0.678350,0.000265,-0.003730,0.048579,-8.971308,-0.040157,-43.530972,,,,,,
1465825288.41,-2.318313,-0.026301,-0.509120,0.000525,-0.211110,0.021861,-0.733126,0.026298,0.679584,0.011523,-0.042549,-0.063358,-8.971308,-0.040157,-43.530972,,,,,,
1465825288.42,-2.320284,-0.026412,-0.509062,0.024016,-0.174991,0.011013,-0.731783,0.026409,0.681026,-0.025496,0.053761,0.034428,-8.957016,-0.045923,-43.533905,,,,,,
1465825288.43,-2.320792,-0.026430,-0.509083,-0.013025,-0.012487,-0.000688,-0.731436,0.026427,0.681398,-0.008188,0.009080,0.016494,-8.957016,-0.045923,-43.533905,,,,,,
1465825288.44,-2.320310,-0.026363,-0.509030,0.010492,0.051227,-0.007450,-0.731766,0.026360,0.681046,0.053757,0.015281,-0.052231,-8.957016,-0.045923,-43.533905,,,,,,
1465825288.45,-2.319895,-0.026304,-0.509079,-0.012941,0.043806,-0.007427,-0.732050,0.026301,0.680743,-0.034979,-0.048685,-0.000644,-9.120449,-0.052543,-43.499954,,,,,,
1465825288.46,-2.319174,-0.026349,-0.509029,0.007332,0.085194,-0.003409,-0.732539,0.026346,0.680215,-0.026631,0.023855,0.037650,-9.120449,-0.052543,-43.499954,,,,,,
1465825288.47,-2.317981,-0.026247,-0.509007,-0.006443,0.129812,-0.009025,-0.733352,0.026244,0.679342,0.044280,0.009721,-0.047018,-9.120449,-0.052543,-43.499954,,,,,,
1465825288.48,-2.316805,-0.026172,-0.509011,-0.009682,0.107492,-0.000372,-0.734152,0.026169,0.678481,0.015295,-0.002350,-0.001616,-9.071028,-0.052277,-43.510288,,,,,,
1465825288.49,-2.316069,-0.026161,-0.508982,0.012608,0.060747,0.005265,-0.734651,0.026158,0.677940,0.012712,-0.012028,-0.012215,-9.071028,-0.052277,-43.510288,,,,,,
1465825288.50,-2.315584,-0.026220,-0.508988,-0.001241,0.048024,0.001074,-0.734979,0.026217,0.677583,-0.026709,-0.023883,0.030532,-9.071028,-0.052277,-43.510288,,,,,,
1465825288.52,-2.314793,-0.026192,-0.508981,-0.008708,0.024688,-0.006239,-0.735515,0.026189,0.677002,0.020870,-0.007955,-0.014709,-8.914797,-0.050862,-43.542568,,,,,,
1465825288.51,-2.315097,-0.026248,-0.508951,0.006211,0.044838,0.000036,-0.735308,0.026245,0.677224,0.035388,0.009064,-0.021203,-8.914797,-0.050862,-43.542568,,,,,,
1465825288.53,-2.314864,-0.026264,-0.508964,0.006125,-0.014638,0.005732,-0.735466,0.026261,0.677053,0.019828,0.004913,-0.011251,-8.914797,-0.050862,-43.542568,,,,,,
1465825288.54,-2.315095,-0.026302,-0.508937,0.007181,-0.025251,0.003670,-0.735309,0.026299,0.677222,0.004413,0.017189,0.015604,-8.880360,-0.050465,-43.549606,,,,,,
1465825288.55,-2.315427,-0.026266,-0.508944,-0.005591,-0.036898,-0.005849,-0.735085,0.026263,0.677467,0.021339,-0.006915,-0.012397,-8.880360,-0.050465,-43.549606,,,,,,
1465825288.56,-2.316003,-0.026279,-0.508924,0.002873,-0.066656,0.002861,-0.734694,0.026276,0.677890,0.029479,0.010696,-0.021716,-8.893566,-0.054658,-43.546906,,,,,,
1465825288.57,-2.316781,-0.026267,-0.508925,0.003929,-0.080448,-0.001309,-0.734167,0.026264,0.678461,0.000951,-0.008930,0.001425,-8.893566,-0.054658,-43.546906,,,,,,
1465825288.58,-2.317511,-0.026360,-0.508899,0.003928,-0.068789,0.006069,-0.733669,0.026357,0.678995,0.001919,-0.007573,0.004385,-8.893566,-0.054658,-43.546906,,,,,,
1465825288.60,-2.318818,-0.026487,-0.508925,0.001800,-0.069847,0.005009,-0.732778,0.026484,0.679952,-0.002588,0.012823,0.001628,-8.998789,-0.057440,-43.525276,,,,,,
1465825288.59,-2.318136,-0.026405,-0.508924,0.006067,-0.061357,0.006025,-0.733244,0.026402,0.679453,0.009352,-0.016163,-0.019388,-8.998789,-0.057440,-43.525276,,,,,,
1465825288.61,-2.319357,-0.026583,-0.508909,0.010339,-0.047562,0.008071,-0.732410,0.026580,0.680345,0.004306,-0.002120,-0.011430,-8.998789,-0.057440,-43.525276,,,,,,
1465825288.62,-2.319536,-0.026581,-0.508910,-0.002366,-0.007178,-0.002839,-0.732289,0.026577,0.680475,0.020222,0.021198,-0.026239,-8.998789,-0.057440,-43.525276,,,,,,
1465825288.63,-2.319426,-0.026568,-0.508880,0.001927,0.021486,-0.001950,-0.732364,0.026565,0.680395,-0.006787,0.001816,0.012689,-9.086897,-0.062104,-43.506966,,,,,,
1465825288.64,-2.319300,-0.026919,-0.508907,-0.007609,0.046991,-0.008505,-0.732442,0.026916,0.680297,-0.000987,0.016953,0.012559,-9.086897,-0.062104,-43.506966,,,,,,
1465825288.65,-2.318470,-0.027102,-0.508864,-0.007580,0.066110,-0.010753,-0.733004,0.027098,0.679685,0.002108,0.009294,-0.011213,-9.076674,-0.069988,-43.509087,,,,,,
1465825288.66,-2.317844,-0.027444,-0.508878,-0.012867,0.084180,-0.017256,-0.733422,0.027440,0.679220,0.024651,0.017512,-0.013311,-9.076674,-0.069988,-43.509087,,,,,,
1465825288.67,-2.317070,-0.027195,-0.508857,-0.010761,0.077787,-0.009763,-0.733952,0.027192,0.678657,0.009800,-0.004182,-0.006965,-9.076674,-0.069988,-43.509087,,,,,,
1465825288.68,-2.316504,-0.026835,-0.508844,-0.006501,0.073546,-0.012926,-0.734343,0.026832,0.678248,0.003554,-0.005851,0.007055,-9.013363,-0.083143,-43.522221,,,,,,
1465825288.69,-2.315990,-0.026564,-0.508828,-0.011859,0.048062,-0.011708,-0.734697,0.026561,0.677875,0.010698,-0.005626,-0.007434,-9.013363,-0.083143,-43.522221,,,,,,
1465825288.70,-2.315839,-0.025434,-0.508789,0.004050,0.012994,-0.004025,-0.734821,0.025432,0.677784,0.004978,-0.042262,-0.000324,-9.013363,-0.083143,-43.522221,,,,,,
1465825288.71,-2.316120,-0.025066,-0.508829,-0.002417,-0.039049,0.002680,-0.734637,0.025064,0.677997,0.005084,-0.015207,-0.003512,-9.013363,-0.083143,-43.522221,,,,,,
1465825288.72,-2.316810,-0.024787,-0.508794,0.015629,-0.067751,0.011392,-0.734175,0.024785,0.678508,0.001661,-0.017720,0.002171,-8.926102,-0.040376,-43.540264,,,,,,
1465825288.73,-2.317801,-0.025366,-0.508828,0.006059,-0.063491,0.008164,-0.733491,0.025364,0.679226,0.012788,0.018826,0.004628,-8.926102,-0.040376,-43.540264,,,,,,
1465825288.74,-2.318193,-0.025050,-0.508778,0.014571,-0.059262,0.013467,-0.733231,0.025047,0.679519,0.007980,-0.020424,-0.017882,-8.926102,-0.040376,-43.540264,,,,,,
1465825288.75,-2.318748,-0.025036,-0.508780,0.009247,-0.070918,0.006083,-0.732854,0.025034,0.679925,0.003835,-0.004404,-0.010354,-9.028582,-0.031973,-43.519135,,,,,,
1465825288.76,-2.319480,-0.025422,-0.508776,0.008163,-0.083665,0.008292,-0.732348,0.025419,0.680455,-0.002133,0.009538,-0.003637,-9.028582,-0.031973,-43.519135,,,,,,
1465825288.77,-2.320026,-0.025707,-0.508763,0.009246,-0.068799,0.008200,-0.731972,0.025705,0.680850,0.013756,0.005545,-0.023425,-9.028582,-0.031973,-43.519135,,,,,,
1465825288.78,-2.320340,-0.025927,-0.508738,0.008246,-0.021012,0.005771,-0.731754,0.025924,0.681076,0.010852,0.004197,-0.011246,-9.084602,-0.040596,-43.507465,,,,,,
1465825288.79,-2.320266,-0.026121,-0.508751,0.001901,0.016149,0.007661,-0.731801,0.026118,0.681018,-0.001476,0.005681,0.001279,-9.084602,-0.040596,-43.507465,,,,,,
1465825288.80,-2.319760,-0.026208,-0.508696,0.010467,0.048011,0.003212,-0.732144,0.026205,0.680646,-0.005894,0.002039,0.000201,-9.084602,-0.040596,-43.507465,,,,,,
1465825288.81,-2.319069,-0.026500,-0.508696,-0.005463,0.068214,-0.004381,-0.732608,0.026497,0.680135,0.018787,0.012733,-0.019689,-9.096870,-0.061701,-43.504879,,,,,,
1465825288.82,-2.318356,-0.026295,-0.508650,0.006252,0.072452,-0.003332,-0.733096,0.026292,0.679616,0.008212,-0.009599,-0.006322,-9.096870,-0.061701,-43.504879,,,,,,
1465825288.83,-2.317782,-0.026093,-0.508668,-0.003350,0.060771,-0.001140,-0.733490,0.026090,0.679199,0.006455,-0.008527,-0.001251,-9.096870,-0.061701,-43.504879,,,,,,
1465825288.84,-2.317330,-0.026100,-0.508635,0.008346,0.053323,0.002111,-0.733797,0.026097,0.678867,0.006762,-0.003285,0.000149,-9.035858,-0.065418,-43.517586,,,,,,
1465825288.85,-2.317034,-0.026144,-0.508649,0.001939,0.044819,0.006416,-0.733997,0.026141,0.678649,0.015674,-0.001621,-0.004150,-9.035858,-0.065418,-43.517586,,,,,,
1465825288.86,-2.316762,-0.026043,-0.508616,0.010405,0.005526,0.007735,-0.734183,0.026040,0.678452,0.013282,-0.008966,-0.018341,-9.035858,-0.065418,-43.517586,,,,,,
1465825288.87,-2.317009,-0.025921,-0.508600,0.008225,-0.033760,0.007978,-0.734019,0.025918,0.678635,0.006663,-0.010384,-0.005081,-8.966511,-0.060933,-43.531937,,,,,,
1465825288.88,-2.317615,-0.026083,-0.508586,0.011398,-0.052871,0.007037,-0.733604,0.026080,0.679076,0.011085,0.001707,-0.003356,-8.966511,-0.060933,-43.531937,,,,,,
1465825288.89,-2.318174,-0.025913,-0.508567,0.010315,-0.058194,0.012390,-0.733227,0.025910,0.679490,0.002759,-0.016358,-0.004349,-8.966511,-0.060933,-43.531937,,,,,,
1465825288.90,-2.318806,-0.026119,-0.508581,0.011390,-0.055001,0.009178,-0.732794,0.026116,0.679949,0.014609,0.002128,-0.009417,-9.003633,-0.063008,-43.524269,,,,,,
1465825288.91,-2.319387,-0.026279,-0.508556,0.013517,-0.051826,0.012353,-0.732396,0.026276,0.680372,0.005711,-0.002228,-0.002561,-9.003633,-0.063008,-43.524269,,,,,,
1465825288.92,-2.319767,-0.026520,-0.508536,0.015663,-0.036964,0.013327,-0.732133,0.026517,0.680646,-0.001403,0.002978,-0.001386,-9.003633,-0.063008,-43.524269,,,,,,
1465825288.93,-2.319878,-0.026481,-0.508512,0.011422,-0.024217,0.012178,-0.732058,0.026478,0.680728,0.007830,-0.010639,-0.017047,-9.097378,-0.074963,-43.504753,,,,,,
1465825288.94,-2.320066,-0.026578,-0.508503,0.014619,-0.022094,0.012167,-0.731928,0.026575,0.680864,-0.006964,-0.003336,0.003081,-9.097378,-0.074963,-43.504753,,,,,,
1465825288.95,-2.320053,-0.026553,-0.508464,0.016747,-0.018915,0.014277,-0.731937,0.026550,0.680854,-0.000194,-0.012680,-0.013786,-9.097378,-0.074963,-43.504753,,,,,,
1465825288.96,-2.320072,-0.026825,-0.508446,0.016774,0.000201,0.013093,-0.731919,0.026822,0.680863,0.006135,0.003055,-0.006409,-9.110437,-0.077548,-43.502014,,,,,,
1465825288.97,-2.319956,-0.026898,-0.508413,0.015719,0.011875,0.015147,-0.731997,0.026895,0.680777,0.006640,-0.008493,-0.008338,-9.110437,-0.077548,-43.502014,,,,,,
1465825288.98,-2.319802,-0.027124,-0.508394,0.016792,0.017187,0.014051,-0.732097,0.027120,0.680661,-0.001134,0.001078,0.000278,-9.110437,-0.077548,-43.502014,,,,,,
1465825288.99,-2.319537,-0.027281,-0.508368,0.016796,0.023552,0.016139,-0.732274,0.027278,0.680463,0.008275,-0.004390,-0.010221,-9.099102,-0.094206,-43.504356,,,,,,
1465825289.00,-2.319233,-0.027606,-0.508370,0.015740,0.028864,0.015041,-0.732475,0.027603,0.680235,0.004142,0.005509,-0.005460,-9.099102,-0.094206,-43.504356,,,,,,
1465825289.01,-2.318854,-0.027620,-0.508346,0.015731,0.023553,0.016138,-0.732732,0.027617,0.679956,0.006902,-0.010801,-0.014582,-9.099102,-0.094206,-43.504356,,,,,,
1465825289.02,-2.318760,-0.028118,-0.508340,0.012533,0.010828,0.010893,-0.732785,0.028115,0.679879,0.015287,0.015266,-0.011254,-9.074389,-0.106199,-43.509491,,,,,,
1465825289.03,-2.318734,-0.028155,-0.508289,0.021020,-0.002998,0.017374,-0.732802,0.028151,0.679859,0.005492,-0.011153,-0.005954,-9.074389,-0.106199,-43.509491,,,,,,
1465825289.04,-2.318935,-0.028583,-0.508299,0.014636,-0.008289,0.012080,-0.732657,0.028579,0.679998,0.006186,0.013337,0.002497,-9.074389,-0.106199,-43.509491,,,,,,
1465825289.05,-2.318983,-0.028711,-0.508263,0.014629,-0.010419,0.014222,-0.732622,0.028707,0.680031,0.016786,-0.006521,-0.019478,-9.061609,-0.131327,-43.512085,,,,,,
1465825289.06,-2.319252,-0.029063,-0.508242,0.017835,-0.002986,0.013114,-0.732431,0.029059,0.680220,0.009943,0.006723,0.004701,-9.061609,-0.131327,-43.512085,,,,,,
1465825289.07,-2.319167,-0.029367,-0.508264,0.007200,0.012935,0.017262,-0.732483,0.029362,0.680152,0.012207,0.004390,-0.011146,-9.061609,-0.131327,-43.512085,,,,,,
1465825289.08,-2.319008,-0.030172,-0.508216,0.015781,0.041633,0.004320,-0.732573,0.030167,0.680020,0.037871,0.033996,-0.019573,-9.075493,-0.144500,-43.509148,,,,,,
1465825289.09,-2.318720,-0.030759,-0.508252,-0.010821,0.042725,-0.002098,-0.732756,0.030754,0.679797,0.025038,0.030251,-0.013979,-9.075493,-0.144500,-43.509148,,,,,,
1465825289.10,-2.318438,-0.031934,-0.508233,-0.004387,0.053377,-0.015990,-0.732920,0.031928,0.679565,0.044245,0.066704,-0.024307,-9.075493,-0.144500,-43.509148,,,,,,
1465825289.11,-2.318377,-0.031649,-0.508247,-0.025744,-0.011356,-0.025186,-0.732969,0.031643,0.679526,0.042554,0.013218,-0.062842,-9.040480,-0.210766,-43.516167,,,,,,
1465825289.12,-2.318851,-0.031552,-0.508219,-0.004544,-0.054956,-0.004667,-0.732648,0.031547,0.679876,-0.035723,-0.042960,0.048335,-9.040480,-0.210766,-43.516167,,,,,,
1465825289.13,-2.319307,-0.031364,-0.508266,-0.011962,-0.039005,-0.012225,-0.732343,0.031359,0.680213,0.034025,-0.004793,-0.022773,-9.040480,-0.210766,-43.516167,,,,,,
1465825289.14,-2.319573,-0.031386,-0.508202,0.002919,-0.028447,0.006883,-0.732161,0.031381,0.680408,-0.035371,-0.044045,0.032345,-9.058420,-0.202530,-43.512474,,,,,,
1465825289.15,-2.320108,-0.031266,-0.508255,-0.000296,-0.068753,-0.007769,-0.731800,0.031261,0.680802,0.021961,0.005452,-0.032792,-9.058420,-0.202530,-43.512474,,,,,,
1465825289.16,-2.321427,-0.031511,-0.508212,0.009139,-0.147398,0.017216,-0.730896,0.031506,0.681762,-0.040757,-0.070187,0.009660,-9.058420,-0.202530,-43.512474,,,,,,
1465825289.17,-2.322748,-0.031671,-0.508229,0.023019,-0.121913,0.013876,-0.729991,0.031666,0.682723,-0.009542,-0.003239,0.016908,-9.170483,-0.201842,-43.488998,,,,,,
1465825289.18,-2.323537,-0.031915,-0.508214,0.007129,-0.059256,0.012403,-0.729446,0.031909,0.683293,0.005493,-0.006626,-0.019826,-9.170483,-0.201842,-43.488998,,,,,,
1465825289.19,-2.323656,-0.032096,-0.508190,0.018909,0.000190,0.015235,-0.729361,0.032090,0.683376,-0.004679,0.006957,-0.006375,-9.170483,-0.201842,-43.488998,,,,,,
1465825289.20,-2.323395,-0.032108,-0.508226,-0.005504,0.033165,-0.002027,-0.729539,0.032103,0.683186,0.032868,0.028750,-0.046024,-9.262264,-0.211040,-43.469501,,,,,,
1465825289.22,-2.321828,-0.031994,-0.508203,-0.008587,0.108578,-0.011019,-0.730611,0.031988,0.682044,0.017568,0.027124,-0.011405,-9.262264,-0.211040,-43.469501,,,,,,
1465825289.21,-2.322823,-0.032124,-0.508193,0.001987,0.065013,-0.001155,-0.729929,0.032119,0.682768,0.011194,0.014176,-0.019316,-9.262264,-0.211040,-43.469501,,,,,,
1465825289.24,-2.319151,-0.031646,-0.508186,-0.013870,0.134076,-0.015442,-0.732443,0.031641,0.680093,0.026937,0.010824,-0.021325,-9.187984,-0.213275,-43.485252,,,,,,
1465825289.23,-2.320524,-0.031876,-0.508181,-0.010680,0.136189,-0.012258,-0.731503,0.031871,0.681093,0.013195,0.010839,-0.003587,-9.187984,-0.213275,-43.485252,,,,,,
1465825289.25,-2.318016,-0.031405,-0.508166,-0.014959,0.106484,-0.020592,-0.733219,0.031400,0.679267,0.016819,0.012897,-0.002112,-9.187984,-0.213275,-43.485252,,,,,,
1465825289.26,-2.317264,-0.031177,-0.508167,-0.017153,0.062937,-0.014999,-0.733735,0.031172,0.678720,0.019227,-0.009687,-0.013040,-9.071503,-0.205947,-43.509735,,,,,,
1465825289.27,-2.317075,-0.030969,-0.508151,-0.010865,0.006639,-0.015714,-0.733868,0.030964,0.678586,0.014630,-0.000279,-0.004743,-9.071503,-0.205947,-43.509735,,,,,,
1465825289.28,-2.317375,-0.030850,-0.508146,-0.009877,-0.041166,-0.006897,-0.733667,0.030845,0.678809,-0.001043,-0.029761,0.004816,-9.071503,-0.205947,-43.509735,,,,,,
1465825289.29,-2.317983,-0.030769,-0.508126,0.001804,-0.064534,-0.005674,-0.733256,0.030764,0.679256,0.006908,-0.005617,0.005162,-8.994173,-0.189172,-43.525860,,,,,,
1465825289.30,-2.318830,-0.030764,-0.508120,-0.004631,-0.093214,-0.000179,-0.732681,0.030759,0.679877,0.001754,-0.027113,-0.004935,-8.994173,-0.189172,-43.525860,,,,,,
1465825289.31,-2.320001,-0.030765,-0.508111,0.004909,-0.125076,0.001095,-0.731884,0.030760,0.680734,0.004040,-0.006315,-0.010370,-8.994173,-0.189172,-43.525860,,,,,,
1465825289.32,-2.321338,-0.030767,-0.508126,-0.004680,-0.132501,0.000068,-0.730974,0.030762,0.681712,0.003297,-0.010300,-0.009562,-9.057505,-0.188214,-43.512730,,,,,,
1465825289.33,-2.322540,-0.030834,-0.508100,0.011300,-0.114476,0.006357,-0.730152,0.030829,0.682589,-0.004009,-0.017081,-0.006716,-9.057505,-0.188214,-43.512730,,,,,,
1465825289.34,-2.323430,-0.030906,-0.508107,0.003891,-0.081553,0.005079,-0.729542,0.030901,0.683237,-0.012386,-0.010698,0.003897,-9.057505,-0.188214,-43.512730,,,,,,
1465825289.35,-2.323674,-0.030559,-0.508073,0.011374,-0.047593,0.010194,-0.729383,0.030554,0.683422,-0.006701,-0.019766,-0.010617,-9.257610,-0.191966,-43.470577,,,,,,
1465825289.36,-2.323643,-0.030978,-0.508089,0.000793,-0.008279,0.002487,-0.729396,0.030973,0.683391,0.002360,0.014819,-0.014415,-9.257610,-0.191966,-43.470577,,,,,,
1465825289.37,-2.323140,-0.031220,-0.508066,-0.000218,0.027836,-0.001998,-0.729734,0.031215,0.683019,0.010785,0.007878,-0.027364,-9.257610,-0.191966,-43.470577,,,,,,
1465825289.38,-2.322401,-0.031410,-0.508052,-0.000171,0.060759,-0.004332,-0.730234,0.031405,0.682475,0.006616,0.009305,-0.016475,-9.266870,-0.194285,-43.468597,,,,,,
1465825289.39,-2.321430,-0.031256,-0.508032,-0.004398,0.086245,-0.004497,-0.730899,0.031251,0.681769,-0.000592,-0.004532,-0.008292,-9.266870,-0.194285,-43.468597,,,,,,
1465825289.40,-2.320437,-0.031069,-0.508010,-0.001183,0.102174,-0.005658,-0.731581,0.031064,0.681047,0.005430,-0.005627,-0.004487,-9.266870,-0.194285,-43.468597,,,,,,
1465825289.41,-2.319429,-0.030835,-0.507987,-0.001188,0.103227,-0.002472,-0.732272,0.030830,0.680314,0.005191,-0.008919,-0.002305,-9.127581,-0.199384,-43.498032,,,,,,
1465825289.42,-2.318539,-0.030802,-0.507975,-0.002259,0.094738,-0.004549,-0.732878,0.030797,0.679663,0.010466,0.000102,-0.003179,-9.127581,-0.199384,-43.498032,,,,,,
1465825289.43,-2.317795,-0.030791,-0.507961,-0.003367,0.061820,-0.003279,-0.733384,0.030786,0.679118,0.019776,0.000418,-0.019053,-9.127581,-0.199384,-43.498032,,,,,,
1465825289.44,-2.317525,-0.031024,-0.507953,-0.004472,0.022546,-0.007290,-0.733562,0.031019,0.678915,0.016124,0.013186,-0.011800,-9.044998,-0.194584,-43.515305,,,,,,
1465825289.45,-2.317609,-0.031074,-0.507936,-0.005576,-0.011429,-0.008142,-0.733504,0.031069,0.678975,0.018813,0.005614,-0.014211,-9.044998,-0.194584,-43.515305,,,,,,
1465825289.46,-2.318033,-0.031179,-0.507914,-0.005587,-0.027345,-0.012299,-0.733213,0.031174,0.679284,0.019148,0.010147,-0.007104,-9.044998,-0.194584,-43.515305,,,,,,
1465825289.47,-2.318504,-0.031032,-0.507898,-0.009860,-0.040082,-0.013288,-0.732896,0.031027,0.679632,0.020860,-0.000830,-0.013357,-9.023127,-0.205557,-43.519794,,,,,,
1465825289.48,-2.319098,-0.030976,-0.507903,-0.012004,-0.050703,-0.012159,-0.732494,0.030971,0.680068,0.014126,0.004704,-0.007202,-9.023127,-0.205557,-43.519794,,,,,,
1465825289.49,-2.319724,-0.030805,-0.507903,-0.012012,-0.057074,-0.012119,-0.732072,0.030800,0.680531,0.015412,-0.000404,-0.010685,-9.023127,-0.205557,-43.519794,,,,,,
1465825289.50,-2.320333,-0.030387,-0.507886,-0.008821,-0.059199,-0.012104,-0.731667,0.030383,0.680985,0.003685,-0.012438,-0.003129,-9.069437,-0.201322,-43.510185,,,,,,
1465825289.51,-2.320899,-0.029958,-0.507878,-0.005636,-0.057092,-0.006793,-0.731291,0.029953,0.681408,0.002455,-0.014710,-0.003414,-9.069437,-0.201322,-43.510185,,,,,,
1465825289.52,-2.321400,-0.029404,-0.507856,-0.002458,-0.063472,-0.003558,-0.730961,0.029399,0.681786,-0.007915,-0.023876,-0.001717,-9.123129,-0.188464,-43.499016,,,,,,
1465825289.53,-2.321900,-0.029000,-0.507835,0.001800,-0.056053,0.000656,-0.730629,0.028996,0.682159,-0.009499,-0.019017,0.003113,-9.123129,-0.188464,-43.499016,,,,,,
1465825289.54,-2.322222,-0.028654,-0.507837,0.001813,-0.043314,0.001639,-0.730416,0.028650,0.682401,-0.004066,-0.017420,-0.005475,-9.123129,-0.188464,-43.499016,,,,,,
1465825289.55,-2.322352,-0.028377,-0.507811,0.006075,-0.032708,0.005833,-0.730333,0.028374,0.682501,-0.010511,-0.017448,-0.005728,-9.205120,-0.150536,-43.481888,,,,,,
1465825289.56,-2.322416,-0.028352,-0.507797,0.008220,-0.022088,0.004704,-0.730290,0.028348,0.682549,-0.001811,-0.005323,-0.010338,-9.205120,-0.150536,-43.481888,,,,,,
1465825289.57,-2.322278,-0.028234,-0.507777,0.007172,-0.002982,0.007775,-0.730387,0.028230,0.682450,-0.005942,-0.011446,-0.009553,-9.205120,-0.150536,-43.481888,,,,,,
1465825289.58,-2.321952,-0.028263,-0.507755,0.009350,0.031004,0.004371,-0.730609,0.028260,0.682212,0.001010,-0.002991,-0.006964,-9.213570,-0.145109,-43.480118,,,,,,
1465825289.59,-2.321372,-0.028315,-0.507718,0.007259,0.056497,0.001015,-0.731003,0.028311,0.681787,0.004639,-0.001547,-0.008477,-9.213570,-0.145109,-43.480118,,,,,,
1465825289.60,-2.320605,-0.028498,-0.507692,0.004090,0.077732,0.001944,-0.731522,0.028494,0.681222,0.010667,0.006037,-0.011788,-9.213570,-0.145109,-43.480118,,,,,,
1465825289.61,-2.319741,-0.028749,-0.507664,0.004106,0.083053,-0.002346,-0.732105,0.028745,0.680585,0.012562,0.011081,-0.012723,-9.134924,-0.152448,-43.496681,,,,,,
1465825289.62,-2.318940,-0.028904,-0.507635,-0.000148,0.086240,-0.002370,-0.732647,0.028900,0.679995,0.020244,0.007538,-0.013431,-9.134924,-0.152448,-43.496681,,,,,,
1465825289.63,-2.318288,-0.028985,-0.507629,-0.001228,0.070319,-0.004400,-0.733089,0.028981,0.679515,0.015651,0.005825,-0.006099,-9.134924,-0.152448,-43.496681,,,,,,
1465825289.64,-2.317848,-0.029072,-0.507624,-0.001255,0.050141,-0.003208,-0.733385,0.029068,0.679192,0.018084,0.006043,-0.007423,-9.134924,-0.152448,-43.496681,,,,,,
1465825289.65,-2.317678,-0.028817,-0.507630,-0.002399,0.016139,-0.000878,-0.733506,0.028814,0.679072,0.010972,-0.011998,-0.004588,-9.015142,-0.168233,-43.521606,,,,,,
1465825289.66,-2.317887,-0.028719,-0.507630,0.002878,-0.015728,0.002520,-0.733366,0.028715,0.679227,0.011839,-0.006453,-0.001279,-9.015142,-0.168233,-43.521606,,,,,,
1465825289.67,-2.318341,-0.028551,-0.507636,0.002838,-0.045461,0.003771,-0.733061,0.028547,0.679563,0.005736,-0.011259,-0.001814,-9.016769,-0.159914,-43.521301,,,,,,
1465825289.68,-2.319068,-0.028573,-0.507614,0.007069,-0.068821,0.002857,-0.732566,0.028569,0.680096,0.013572,-0.002492,-0.006649,-9.016769,-0.159914,-43.521301,,,,,,
1465825289.69,-2.319849,-0.028595,-0.507604,0.005987,-0.082623,0.002942,-0.732035,0.028591,0.680667,0.011194,-0.002636,-0.012805,-9.016769,-0.159914,-43.521301,,,,,,
1465825289.70,-2.320716,-0.028506,-0.507621,0.001711,-0.089004,0.007235,-0.731447,0.028502,0.681303,-0.000472,-0.009489,-0.000959,-9.068190,-0.157162,-43.510628,,,,,,
1465825289.71,-2.321509,-0.028666,-0.507600,0.011289,-0.093255,0.007271,-0.730903,0.028662,0.681879,0.010642,0.002710,-0.021677,-9.068190,-0.157162,-43.510628,,,,,,
1465825289.72,-2.322221,-0.028520,-0.507617,0.002791,-0.073082,0.009264,-0.730420,0.028517,0.682403,-0.010837,-0.013395,0.002229,-9.068190,-0.157162,-43.510628,,,,,,
1465825289.73,-2.322587,-0.028701,-0.507588,0.012423,-0.039100,0.005868,-0.730166,0.028697,0.682667,0.011080,0.003560,-0.019077,-9.205301,-0.155813,-43.481831,,,,,,
1465825289.74,-2.322630,-0.028590,-0.507593,-0.001384,-0.017844,0.001462,-0.730139,0.028586,0.682700,-0.001062,-0.008978,-0.012137,-9.205301,-0.155813,-43.481831,,,,,,
1465825289.75,-2.322530,-0.028640,-0.507554,0.011318,-0.057169,0.014494,-0.730206,0.028636,0.682626,-0.030124,-0.003779,-0.011301,-9.205301,-0.155813,-43.481831,,,,,,
1465825289.76,-2.323359,-0.028570,-0.507640,-0.009963,-0.078339,-0.005619,-0.729642,0.028566,0.683233,-0.070575,-0.040163,-0.095968,-9.223125,-0.158320,-43.478043,,,,,,
1465825289.78,-2.309234,-0.027647,-0.507669,-0.050224,1.691856,-0.071048,-0.739238,0.027643,0.672876,-0.431401,0.061056,-0.187250,-9.223125,-0.158320,-43.478043,,,,,,
1465825289.79,-2.274625,-0.026252,-0.507720,-0.114196,4.113955,-0.120364,-0.762107,0.026249,0.646918,-0.581429,-0.039555,-0.111213,-9.223125,-0.158320,-43.478043,,,,,,
1465825289.77,-2.321909,-0.028435,-0.507698,-0.028665,0.282698,-0.013224,-0.730635,0.028431,0.682176,-0.220827,-0.032704,-0.188371,-9.223125,-0.158320,-43.478043,,,,,,
1465825289.80,-2.214104,-0.024404,-0.507242,-0.071573,6.622026,-0.177565,-0.799878,0.024402,0.599666,-0.467029,0.061856,0.120701,-8.639706,-0.133803,-43.597809,,,,,,
1465825289.81,-2.136534,-0.021927,-0.507317,-0.153875,8.044960,-0.214256,-0.843990,0.021925,0.535910,-0.352344,-0.092497,0.263284,-8.639706,-0.133803,-43.597809,,,,,,
1465825289.82,-2.053163,-0.019547,-0.507259,-0.123728,8.326296,-0.206411,-0.885730,0.019546,0.463788,-0.011166,0.032242,0.311099,-4.459600,-0.075595,-44.221462,,,,,,
1465825289.83,-1.975597,-0.016859,-0.507892,-0.166269,7.487543,-0.219289,-0.919050,0.016858,0.393780,0.198317,0.009753,0.274906,-4.459600,-0.075595,-44.221462,,,,,,
1465825289.84,-1.911642,-0.014675,-0.508295,-0.127728,6.008344,-0.178040,-0.942371,0.014675,0.334248,0.253818,0.074940,0.168925,-4.459600,-0.075595,-44.221462,,,,,,
1465825289.85,-1.861952,-0.012602,-0.508919,-0.090046,4.643905,-0.168380,-0.957837,0.012601,0.287037,0.304608,0.078570,0.097775,8.915527,0.187837,-43.542046,,,,,,
1465825289.86,-1.823427,-0.011020,-0.509369,-0.104147,3.626638,-0.137532,-0.968199,0.011019,0.249937,0.300215,-0.017977,0.138186,8.915527,0.187837,-43.542046,,,,,,
1465825289.87,-1.793376,-0.009687,-0.509754,-0.043482,2.789851,-0.111999,-0.975285,0.009687,0.220736,0.313451,0.063052,0.265333,8.915527,0.187837,-43.542046,,,,,,
1465825289.88,-1.772453,-0.008649,-0.510148,-0.070246,1.846945,-0.092274,-0.979699,0.008648,0.200286,0.350961,-0.027661,0.158159,12.716710,0.312629,-42.586605,,,,,,
1465825289.89,-1.762987,-0.008045,-0.510105,0.005864,0.621478,-0.045128,-0.981556,0.008045,0.191003,0.374684,0.062465,0.143408,12.716710,0.312629,-42.586605,,,,,,
1465825289.90,-1.766394,-0.007807,-0.510201,-0.005351,-0.643188,-0.013790,-0.980902,0.007807,0.194347,0.347311,-0.052134,0.046147,12.716710,0.312629,-42.586605,,,,,,
1465825289.91,-1.780880,-0.008116,-0.509798,0.044342,-1.704069,0.034426,-0.977981,0.008116,0.208535,0.319671,0.016801,0.113608,15.122806,0.418050,-41.791836,,,,,,
1465825289.93,-1.839640,-0.010008,-0.509012,0.073674,-3.670742,0.119173,-0.964031,0.010007,0.265603,0.246410,-0.037427,0.062980,15.122806,0.418050,-41.791836,,,,,,
1465825289.92,-1.805267,-0.008750,-0.509568,0.055834,-2.688436,0.066158,-0.972600,0.008749,0.232319,0.319997,-0.046912,0.097439,15.122806,0.418050,-41.791836,,,,,,
1465825289.94,-1.882786,-0.011558,-0.508543,0.113026,-4.523442,0.143720,-0.951661,0.011558,0.306932,0.244676,-0.030052,0.065993,15.122806,0.418050,-41.791836,,,,,,
1465825289.95,-1.933589,-0.013531,-0.508050,0.093964,-5.249776,0.173803,-0.934824,0.013531,0.354854,0.180597,-0.049175,0.063695,10.167594,0.268817,-43.266376,,,,,,
1465825289.96,-1.990200,-0.015725,-0.507536,0.161401,-5.787126,0.193207,-0.913219,0.015724,0.407165,0.138485,0.028420,0.103394,10.167594,0.268817,-43.266376,,,,,,
1465825289.97,-2.051270,-0.018005,-0.507298,0.105536,-6.189513,0.192481,-0.886633,0.018004,0.462124,0.118841,-0.058806,0.054417,5.470592,0.134854,-44.107662,,,,,,
1465825289.98,-2.115543,-0.020569,-0.506862,0.171131,-6.504933,0.206234,-0.855078,0.020568,0.518092,0.084234,0.044496,0.075460,5.470592,0.134854,-44.107662,,,,,,
1465825290.00,-2.251961,-0.026080,-0.506890,0.188600,-6.976438,0.229433,-0.776575,0.026077,0.629484,0.035502,-0.025421,0.079759,5.470592,0.134854,-44.107662,,,,,,
1465825289.99,-2.182699,-0.023314,-0.506905,0.131352,-6.775734,0.230246,-0.818334,0.023312,0.574270,-0.040888,-0.030102,0.162623,5.470592,0.134854,-44.107662,,,,,,
1465825290.01,-2.323142,-0.028720,-0.507130,0.153269,-7.153704,0.216672,-0.729787,0.028716,0.683072,-0.130382,0.008653,0.147479,-6.130634,-0.127438,-44.020798,,,,,,
1465825290.02,-2.395123,-0.031393,-0.507613,0.151127,-7.167500,0.214627,-0.678717,0.031388,0.733729,-0.099863,0.003814,0.020681,-6.130634,-0.127438,-44.020798,,,,,,
1465825290.03,-2.463426,-0.033915,-0.508174,0.153887,-6.681166,0.200935,-0.627005,0.033908,0.778277,-0.161508,0.025113,0.178983,-12.348317,-0.221915,-42.695450,,,,,,
1465825290.04,-2.525970,-0.036255,-0.508890,0.135412,-6.122663,0.202736,-0.577087,0.036247,0.815878,-0.188675,-0.012993,0.044749,-12.348317,-0.221915,-42.695450,,,,,,
1465825290.05,-2.583715,-0.038401,-0.509606,0.147754,-5.652235,0.179574,-0.528997,0.038391,0.847755,-0.227076,-0.018387,0.042214,-12.348317,-0.221915,-42.695450,,,,,,
1465825290.06,-2.636455,-0.040286,-0.510391,0.109040,-5.143553,0.155056,-0.483535,0.040275,0.874398,-0.211137,0.003548,-0.047066,-17.812641,-0.285002,-40.719284,,,,,,
1465825290.07,-2.683668,-0.041957,-0.511155,0.118315,-4.556351,0.140738,-0.441698,0.041945,0.896183,-0.272001,-0.013167,-0.015674,-17.812641,-0.285002,-40.719284,,,,,,
1465825290.08,-2.723468,-0.043353,-0.511879,0.083137,-3.771609,0.116621,-0.405666,0.043340,0.912993,-0.265476,-0.005666,-0.029692,-17.812641,-0.285002,-40.719284,,,,,,
1465825290.09,-2.755083,-0.044532,-0.512466,0.087394,-2.949732,0.095504,-0.376584,0.044517,0.925312,-0.281650,-0.021187,-0.060475,-25.453554,-0.334268,-36.433998,,,,,,
1465825290.10,-2.778085,-0.045483,-0.512909,0.065096,-2.080054,0.071932,-0.355187,0.045467,0.933689,-0.272956,-0.023021,-0.063465,-25.453554,-0.334268,-36.433998,,,,,,
1465825290.11,-2.792600,-0.046185,-0.513197,0.054472,-1.245416,0.046462,-0.341587,0.046169,0.938715,-0.272381,-0.024120,-0.088023,-25.453554,-0.334268,-36.433998,,,,,,
1465825290.12,-2.798986,-0.046677,-0.513309,0.034232,-0.436256,0.021143,-0.335577,0.046660,0.940856,-0.264246,-0.008422,-0.088607,-25.453554,-0.334268,-36.433998,,,,,,
1465825290.13,-2.797373,-0.046924,-0.513259,0.021419,0.358023,0.000182,-0.337091,0.046907,0.940303,-0.252433,-0.019090,-0.103297,-28.128479,-0.356239,-34.410652,,,,,,
1465825290.14,-2.787995,-0.046965,-0.513066,0.005388,1.128953,-0.023829,-0.345894,0.046947,0.937099,-0.247826,-0.007717,-0.075755,-28.128479,-0.356239,-34.410652,,,,,,
1465825290.15,-2.770926,-0.046832,-0.512737,-0.003215,1.896664,-0.037168,-0.361840,0.046815,0.931064,-0.223594,-0.025803,-0.058856,-28.128479,-0.356239,-34.410652,,,,,,
1465825290.16,-2.746532,-0.046468,-0.512256,-0.017187,2.606017,-0.063984,-0.384449,0.046451,0.921977,-0.209118,-0.008869,-0.041194,-27.748913,-0.372098,-34.717300,,,,,,
1465825290.17,-2.715906,-0.045935,-0.511701,-0.033447,3.207035,-0.078414,-0.412511,0.045919,0.909795,-0.178691,-0.003667,-0.048146,-27.748913,-0.372098,-34.717300,,,,,,
1465825290.18,-2.679625,-0.045127,-0.511039,-0.045502,3.759220,-0.096792,-0.445257,0.045111,0.894266,-0.158869,0.001840,-0.014475,-27.748913,-0.372098,-34.717300,,,,,,
1465825290.19,-2.638436,-0.044103,-0.510331,-0.066182,4.220102,-0.117799,-0.481725,0.044089,0.875213,-0.137523,0.020074,-0.016662,-23.833660,-0.406931,-37.512966,,,,,,
1465825290.20,-2.593286,-0.042894,-0.509643,-0.068880,4.614035,-0.121336,-0.520763,0.042881,0.852624,-0.106571,0.006680,0.008521,-23.833660,-0.406931,-37.512966,,,,,,
1465825290.21,-2.544256,-0.041452,-0.508955,-0.088616,4.982534,-0.139634,-0.561959,0.041440,0.826126,-0.086097,0.017795,0.069031,-23.833660,-0.406931,-37.512966,,,,,,
1465825290.22,-2.492888,-0.039874,-0.508357,-0.093694,5.174729,-0.142973,-0.603674,0.039863,0.796234,-0.063592,-0.002785,0.040299,-20.511539,-0.408767,-39.427670,,,,,,
1465825290.23,-2.440015,-0.038269,-0.507814,-0.090328,5.317001,-0.140669,-0.644951,0.038260,0.763266,-0.035439,-0.010519,0.110544,-20.511539,-0.408767,-39.427670,,,,,,
1465825290.24,-2.386628,-0.036622,-0.507396,-0.095642,5.321257,-0.142830,-0.684804,0.036614,0.727807,-0.002178,-0.009987,0.100363,-20.511539,-0.408767,-39.427670,,,,,,
1465825290.25,-2.334691,-0.035044,-0.506991,-0.080973,5.137548,-0.138470,-0.721704,0.035036,0.691315,-0.012869,-0.015764,0.074799,-11.986482,-0.350205,-42.797581,,,,,,
1465825290.26,-2.284331,-0.033518,-0.506706,-0.081135,5.018609,-0.131337,-0.755628,0.033512,0.654143,0.035520,-0.016620,0.124986,-11.986482,-0.350205,-42.797581,,,,,,
1465825290.27,-2.234669,-0.032088,-0.506456,-0.067420,4.927269,-0.124364,-0.787207,0.032082,0.615854,0.088827,-0.015084,0.156195,-11.986482,-0.350205,-42.797581,,,,,,
1465825290.28,-2.187765,-0.030798,-0.506274,-0.063645,4.583226,-0.115829,-0.815249,0.030793,0.578291,0.147143,0.013931,0.154757,-7.553547,-0.305226,-43.798203,,,,,,
1465825290.29,-2.147267,-0.029786,-0.506113,-0.042255,3.855802,-0.082505,-0.838020,0.029781,0.544826,0.128883,-0.046520,0.066029,-7.553547,-0.305226,-43.798203,,,,,,
1465825290.30,-2.114259,-0.029000,-0.506058,-0.027240,3.116738,-0.062953,-0.855563,0.028996,0.516886,0.140247,0.006100,0.096365,-7.553547,-0.305226,-43.798203,,,,,,
1465825290.31,-2.087973,-0.028529,-0.505951,-0.018498,2.472175,-0.042935,-0.868865,0.028525,0.494227,0.186766,0.007226,0.068914,-0.031359,-0.226146,-44.445240,,,,,,
1465825290.32,-2.067645,-0.028082,-0.505829,0.002058,1.879685,-0.041327,-0.878742,0.028078,0.476470,0.205418,0.049116,0.060868,-0.031359,-0.226146,-44.445240,,,,,,
1465825290.33,-2.053642,-0.027698,-0.505734,-0.017902,1.239439,-0.041590,-0.885337,0.027694,0.464124,0.224922,0.098557,0.042926,-0.031359,-0.226146,-44.445240,,,,,,
1465825290.34,-2.046272,-0.027332,-0.505651,-0.009163,0.568373,-0.036308,-0.888743,0.027328,0.457590,0.261988,0.091995,-0.015146,2.039598,-0.213789,-44.398487,,,,,,
1465825290.35,-2.045750,-0.027001,-0.505700,-0.021750,-0.117566,-0.024567,-0.888990,0.026998,0.457130,0.229795,0.092936,0.004555,2.039598,-0.213789,-44.398487,,,,,,
1465825290.36,-2.051885,-0.026885,-0.505874,-0.024734,-0.762144,0.002890,-0.886171,0.026881,0.462578,0.177721,0.054845,0.023476,2.039598,-0.213789,-44.398487,,,,,,
1465825290.37,-2.063195,-0.026877,-0.506137,-0.021094,-1.239983,0.015471,-0.880883,0.026873,0.472571,0.195306,0.014676,0.024301,2.739304,-0.184589,-44.360947,,,,,,
1465825290.38,-2.078609,-0.027014,-0.506360,-0.010955,-1.634997,0.024345,-0.873491,0.027010,0.486090,0.150957,-0.007739,0.069452,2.739304,-0.184589,-44.360947,,,,,,
1465825290.39,-2.097610,-0.027298,-0.506474,0.008822,-1.986481,0.032956,-0.864091,0.027294,0.502595,0.141771,-0.046352,0.057159,1.553480,-0.169067,-44.418346,,,,,,
1465825290.40,-2.119908,-0.027774,-0.506535,0.026494,-2.309310,0.046707,-0.852660,0.027771,0.521728,0.107619,-0.038620,0.081131,1.553480,-0.169067,-44.418346,,,,,,
1465825290.41,-2.145051,-0.028566,-0.506548,0.042084,-2.575895,0.071812,-0.839255,0.028563,0.542987,0.099967,-0.061049,0.068310,1.553480,-0.169067,-44.418346,,,,,,
1465825290.42,-2.172245,-0.029536,-0.506588,0.055671,-2.758567,0.085745,-0.824157,0.029531,0.565591,0.108169,-0.041250,0.067451,-0.281647,-0.179852,-44.444569,,,,,,
1465825290.43,-2.200918,-0.030628,-0.506551,0.066130,-2.904048,0.089861,-0.807577,0.030623,0.588967,0.081838,-0.024275,0.066413,-0.281647,-0.179852,-44.444569,,,,,,
1465825290.44,-2.230779,-0.031797,-0.506598,0.068114,-3.006006,0.099018,-0.789604,0.031792,0.612793,0.081016,-0.008827,0.062729,-0.281647,-0.179852,-44.444569,,,,,,
1465825290.45,-2.262083,-0.033033,-0.506642,0.074277,-3.187574,0.099098,-0.770006,0.033027,0.637181,0.073595,0.004585,0.031199,-5.198076,-0.269830,-44.139988,,,,,,
1465825290.46,-2.295955,-0.034319,-0.506741,0.078206,-3.442423,0.106023,-0.747954,0.034313,0.662864,0.011534,-0.002468,-0.008811,-5.198076,-0.269830,-44.139988,,,,,,
1465825290.47,-2.331220,-0.035596,-0.506903,0.073827,-3.541163,0.104509,-0.724085,0.035588,0.688792,-0.017477,0.018993,-0.006953,-5.198076,-0.269830,-44.139988,,,,,,
1465825290.48,-2.366212,-0.036842,-0.507131,0.069661,-3.465776,0.105096,-0.699513,0.036834,0.713670,-0.065669,0.015672,-0.024308,-5.198076,-0.269830,-44.139988,,,,,,
1465825290.49,-2.398731,-0.037957,-0.507422,0.058349,-3.159947,0.094651,-0.675911,0.037948,0.736005,-0.067680,0.017304,-0.003126,-11.110682,-0.365350,-43.033134,,,,,,
1465825290.50,-2.427641,-0.038892,-0.507756,0.043897,-2.811645,0.083937,-0.654330,0.038882,0.755209,-0.063474,0.026105,0.005274,-11.110682,-0.365350,-43.033134,,,,,,
1465825290.51,-2.454206,-0.039724,-0.508125,0.038826,-2.609900,0.082667,-0.634019,0.039714,0.772297,-0.075286,0.006154,-0.036183,-13.731260,-0.388647,-42.269764,,,,,,
1465825290.52,-2.479217,-0.040441,-0.508534,0.030504,-2.464411,0.075359,-0.614489,0.040430,0.787889,-0.077085,0.019918,-0.044221,-13.731260,-0.388647,-42.269764,,,,,,
1465825290.53,-2.502417,-0.041090,-0.508949,0.024378,-2.261592,0.069823,-0.596031,0.041078,0.801910,-0.083901,0.000609,-0.051361,-13.731260,-0.388647,-42.269764,,,,,,
1465825290.54,-2.522844,-0.041594,-0.509323,0.019461,-1.954699,0.057249,-0.579515,0.041582,0.813900,-0.104292,-0.009402,-0.049816,-15.891446,-0.394626,-41.505875,,,,,,
1465825290.55,-2.539094,-0.041973,-0.509648,0.008331,-1.505525,0.044841,-0.566204,0.041961,0.823197,-0.112141,-0.022918,-0.025101,-15.891446,-0.394626,-41.505875,,,,,,
1465825290.56,-2.550606,-0.042208,-0.509913,0.004687,-1.030871,0.032280,-0.556684,0.042195,0.829652,-0.125566,-0.006368,-0.042817,-15.891446,-0.394626,-41.505875,,,,,,
1465825290.57,-2.557332,-0.042296,-0.510049,-0.004259,-0.551943,0.011172,-0.551089,0.042284,0.833374,-0.116345,-0.003191,-0.056748,-18.810059,-0.382731,-40.267437,,,,,,
1465825290.58,-2.559452,-0.042176,-0.510128,-0.016449,-0.102762,-0.003366,-0.549324,0.042163,0.834545,-0.110710,-0.000415,-0.060558,-18.810059,-0.382731,-40.267437,,,,,,
1465825290.59,-2.557440,-0.041925,-0.510186,-0.027648,0.299678,-0.010159,-0.551008,0.041913,0.833446,-0.115831,-0.007291,-0.050991,-18.810059,-0.382731,-40.267437,,,,,,
1465825290.60,-2.551499,-0.041527,-0.510166,-0.032451,0.692586,-0.026466,-0.555959,0.041515,0.830172,-0.097895,-0.006466,-0.058047,-19.165230,-0.373805,-40.099693,,,,,,
1465825290.61,-2.541375,-0.040997,-0.510039,-0.038269,1.121601,-0.045129,-0.564347,0.040985,0.824519,-0.086730,-0.004089,-0.044261,-19.165230,-0.373805,-40.099693,,,,,,
1465825290.62,-2.526915,-0.040281,-0.509859,-0.053683,1.547424,-0.059524,-0.576227,0.040270,0.816297,-0.073690,-0.003557,-0.034650,-19.165230,-0.373805,-40.099693,,,,,,
1465825290.63,-2.508996,-0.039417,-0.509609,-0.056459,1.858572,-0.075316,-0.590782,0.039407,0.805868,-0.074822,0.003958,-0.009955,-17.850586,-0.340557,-40.702236,,,,,,
1465825290.64,-2.489192,-0.038413,-0.509384,-0.073302,2.007242,-0.079459,-0.606648,0.038403,0.794043,-0.102626,0.019016,0.013239,-17.850586,-0.340557,-40.702236,,,,,,
1465825290.65,-2.469153,-0.037315,-0.509117,-0.062667,1.987080,-0.085708,-0.622463,0.037307,0.781760,-0.049855,0.039460,-0.069281,-17.850586,-0.340557,-40.702236,,,,,,
1465825290.66,-2.449773,-0.036164,-0.509007,-0.093616,1.926578,-0.087489,-0.637522,0.036156,0.769583,-0.079137,0.018944,0.028802,-16.303104,-0.315719,-41.346592,,,,,,
1465825290.67,-2.430300,-0.034982,-0.508803,-0.070145,1.960550,-0.089807,-0.652414,0.034975,0.757055,0.024881,-0.002916,-0.042303,-16.303104,-0.315719,-41.346592,,,,,,
1465825290.68,-2.409699,-0.033628,-0.508541,-0.085899,2.096533,-0.114094,-0.667902,0.033621,0.743489,0.016046,0.045068,0.023463,-16.303104,-0.315719,-41.346592,,,,,,
1465825290.69,-2.387814,-0.032200,-0.508310,-0.094272,2.210153,-0.115879,-0.684044,0.032194,0.728730,0.002221,0.017580,0.018341,-12.968534,-0.237934,-42.511078,,,,,,
1465825290.70,-2.365971,-0.030700,-0.508063,-0.083684,2.156008,-0.119787,-0.699830,0.030696,0.713649,0.028902,0.014898,-0.026897,-12.968534,-0.237934,-42.511078,,,,,,
1465825290.71,-2.345458,-0.029386,-0.507905,-0.087076,2.022181,-0.104048,-0.714349,0.029381,0.699173,-0.053092,-0.053399,0.052246,-12.968534,-0.237934,-42.511078,,,,,,
1465825290.72,-2.325164,-0.028282,-0.507735,-0.054079,2.044410,-0.084995,-0.728413,0.028278,0.684555,-0.018840,-0.072025,0.036912,-11.097946,-0.188916,-43.037560,,,,,,
1465825290.73,-2.303682,-0.027326,-0.507596,-0.053921,2.182424,-0.078409,-0.742969,0.027322,0.668768,-0.001400,-0.041559,0.099711,-11.097946,-0.188916,-43.037560,,,,,,
1465825290.74,-2.281851,-0.026587,-0.507473,-0.038019,2.155821,-0.060131,-0.757406,0.026584,0.652403,0.036489,-0.055469,0.078646,-11.097946,-0.188916,-43.037560,,,,,,
1465825290.75,-2.262512,-0.025919,-0.507403,-0.030974,1.839386,-0.052817,-0.769894,0.025916,0.637645,0.089215,-0.001960,0.018788,-7.442881,-0.116923,-43.818047,,,,,,
1465825290.76,-2.247448,-0.025493,-0.507351,-0.026237,1.396567,-0.034068,-0.779420,0.025490,0.625982,0.069978,-0.026009,0.019266,-7.442881,-0.116923,-43.818047,,,,,,
1465825290.77,-2.236096,-0.025219,-0.507276,-0.000058,1.059939,-0.023415,-0.786482,0.025217,0.617098,0.099104,0.001852,0.027509,-7.442881,-0.116923,-43.818047,,,,,,
1465825290.78,-2.227458,-0.025162,-0.507223,-0.005740,0.797636,-0.006874,-0.791784,0.025160,0.610283,0.099813,-0.024748,0.076195,-5.931341,-0.096440,-44.048172,,,,,,
1465825290.79,-2.222149,-0.025277,-0.507145,0.021448,0.427012,0.010380,-0.795010,0.025274,0.606069,0.131314,-0.014150,0.041666,-5.931341,-0.096440,-44.048172,,,,,,
1465825290.80,-2.221526,-0.025481,-0.507131,0.012307,-0.066728,0.015596,-0.795384,0.025478,0.605571,0.130772,0.010670,0.013906,-5.931341,-0.096440,-44.048172,,,,,,
1465825290.81,-2.225803,-0.025865,-0.507054,0.031925,-0.539266,0.028160,-0.792779,0.025862,0.608961,0.122170,0.005297,-0.015409,-4.787901,-0.104552,-44.187065,,,,,,
1465825290.82,-2.233627,-0.026292,-0.507005,0.033660,-0.852502,0.031190,-0.787981,0.026289,0.615138,0.107073,0.024187,0.022115,-4.787901,-0.104552,-44.187065,,,,,,
1465825290.83,-2.244054,-0.026855,-0.506976,0.034390,-1.102055,0.043401,-0.781512,0.026852,0.623312,0.083087,-0.020505,0.014490,-4.787901,-0.104552,-44.187065,,,,,,
1465825290.84,-2.256674,-0.027489,-0.506925,0.049028,-1.309126,0.048972,-0.773571,0.027485,0.633113,0.059704,-0.002720,0.005833,-5.322458,-0.127957,-44.125805,,,,,,
1465825290.85,-2.270841,-0.028201,-0.506944,0.039266,-1.443985,0.055130,-0.764509,0.028198,0.643996,0.035154,-0.016250,0.003144,-5.322458,-0.127957,-44.125805,,,,,,
1465825290.86,-2.285948,-0.028926,-0.506935,0.050863,-1.534247,0.056772,-0.754678,0.028922,0.655457,0.048166,0.014337,-0.008622,-5.322458,-0.127957,-44.125805,,,,,,
1465825290.87,-2.302097,-0.029616,-0.507003,0.036888,-1.643600,0.055315,-0.743980,0.029612,0.667545,0.026146,0.005484,-0.008885,-7.623199,-0.191058,-43.786777,,,,,,
1465825290.88,-2.319313,-0.030315,-0.507049,0.046347,-1.742352,0.055944,-0.732363,0.030311,0.680240,0.000383,0.011056,-0.033832,-7.623199,-0.191058,-43.786777,,,,,,
1465825290.89,-2.336784,-0.030939,-0.507118,0.037850,-1.738080,0.048457,-0.720353,0.030935,0.692918,-0.020263,0.011866,-0.044709,-7.623199,-0.191058,-43.786777,,,,,,
1465825290.90,-2.353264,-0.031559,-0.507215,0.033754,-1.606417,0.048692,-0.708823,0.031554,0.704680,-0.056756,-0.007781,-0.028289,-9.079720,-0.218643,-43.507957,,,,,,
1465825290.91,-2.367682,-0.032068,-0.507292,0.031917,-1.383420,0.040905,-0.698578,0.032063,0.714815,-0.042419,0.002926,-0.034609,-9.079720,-0.218643,-43.507957,,,,,,
1465825290.92,-2.379993,-0.032504,-0.507411,0.018329,-1.185909,0.036459,-0.689715,0.032498,0.723351,-0.050916,-0.008542,-0.012032,-9.079720,-0.218643,-43.507957,,,,,,
1465825290.93,-2.391173,-0.032864,-0.507509,0.022695,-1.107326,0.031713,-0.681578,0.032858,0.731008,-0.029436,0.009210,-0.029958,-11.701401,-0.255112,-42.877075,,,,,,
1465825290.94,-2.402167,-0.033146,-0.507629,0.009943,-1.097746,0.025254,-0.673493,0.033140,0.738450,-0.032119,0.003985,-0.048188,-11.701401,-0.255112,-42.877075,,,,,,
1465825290.95,-2.412816,-0.033385,-0.507736,0.010015,-1.042529,0.023843,-0.665587,0.033379,0.745574,-0.050524,0.003899,-0.045028,-11.701401,-0.255112,-42.877075,,,,,,
1465825290.96,-2.421972,-0.033535,-0.507840,0.003864,-0.863064,0.016324,-0.658729,0.033528,0.751633,-0.044427,0.005855,-0.040665,-12.649046,-0.261574,-42.607098,,,,,,
1465825290.97,-2.428887,-0.033654,-0.507932,0.000963,-0.632645,0.012748,-0.653513,0.033648,0.756167,-0.053579,-0.006090,-0.013720,-12.649046,-0.261574,-42.607098,,,,,,
1465825290.98,-2.433820,-0.033715,-0.507994,0.001199,-0.453186,0.006300,-0.649773,0.033709,0.759380,-0.045356,-0.004214,-0.015926,-12.649046,-0.261574,-42.607098,,,,,,
1465825290.99,-2.437489,-0.033738,-0.508050,-0.003982,-0.341691,0.004531,-0.646982,0.033732,0.761759,-0.047872,-0.009669,-0.018335,-13.990783,-0.260767,-42.185562,,,,,,
1465825291.00,-2.440208,-0.033747,-0.508103,-0.002797,-0.244009,0.004984,-0.644909,0.033740,0.763514,-0.042088,-0.007495,-0.033946,-13.990783,-0.260767,-42.185562,,,,,,
1465825291.01,-2.441725,-0.033731,-0.508118,-0.002625,-0.115516,-0.001144,-0.643750,0.033725,0.764492,-0.043216,-0.008593,-0.029324,-13.990783,-0.260767,-42.185562,,,,,,
1465825291.02,-2.439389,-0.033090,-0.508050,-0.006673,0.051206,-0.004325,-0.645548,0.033084,0.763003,-0.043112,-0.010425,-0.013964,-14.259831,-0.257313,-42.095398,,,,,,
1465825291.03,-2.437676,-0.033010,-0.508023,-0.003279,0.207296,-0.007429,-0.646856,0.033004,0.761898,-0.028773,0.001786,-0.018551,-14.259831,-0.257313,-42.095398,,,,,,
1465825291.04,-2.432825,-0.032707,-0.507938,-0.010567,0.335793,-0.010372,-0.650551,0.032701,0.758758,-0.031288,-0.002962,-0.012222,-14.225335,-0.244286,-42.107147,,,,,,
1465825291.05,-2.428673,-0.032540,-0.507896,-0.008302,0.438795,-0.014209,-0.653699,0.032534,0.756055,-0.023868,0.000623,-0.012540,-14.225335,-0.244286,-42.107147,,,,,,
1465825291.06,-2.423641,-0.032384,-0.507866,-0.012457,0.524797,-0.012624,-0.657498,0.032378,0.752760,-0.022601,-0.021651,-0.014433,-14.225335,-0.244286,-42.107147,,,,,,
1465825291.07,-2.417875,-0.032256,-0.507820,-0.007062,0.591671,-0.006651,-0.661830,0.032251,0.748960,-0.019185,-0.011377,-0.001126,-13.560586,-0.235043,-42.325958,,,,,,
1465825291.08,-2.411429,-0.032063,-0.507748,-0.004825,0.658595,-0.018778,-0.666649,0.032058,0.744682,-0.006050,0.012009,-0.015938,-13.560586,-0.235043,-42.325958,,,,,,
1465825291.09,-2.404261,-0.031860,-0.507689,-0.015364,0.738248,-0.023545,-0.671974,0.031854,0.739890,-0.024651,-0.006082,-0.005850,-13.560586,-0.235043,-42.325958,,,,,,
1465825291.10,-2.396418,-0.031549,-0.507758,-0.045129,0.796627,-0.011168,-0.677763,0.031544,0.734604,-0.001070,-0.003300,-0.014358,-13.042805,-0.232175,-42.488384,,,,,,
1465825291.11,-2.388052,-0.031029,-0.507460,0.018854,0.829589,-0.040051,-0.683896,0.031024,0.728920,0.121915,0.173291,-0.091972,-13.042805,-0.232175,-42.488384,,,,,,
1465825291.12,-2.379578,-0.030535,-0.507587,-0.070529,0.867868,-0.043573,-0.690059,0.030531,0.723109,-0.112096,-0.146330,0.095693,-13.042805,-0.232175,-42.488384,,,,,,
1465825291.13,-2.370940,-0.030463,-0.507370,0.024132,0.844364,-0.008205,-0.696281,0.030459,0.717123,0.020698,0.016462,0.011560,-11.683059,-0.203244,-42.882355,,,,,,
1465825291.14,-2.362678,-0.030087,-0.507333,-0.018421,0.828535,-0.035824,-0.702189,0.030083,0.711354,0.011531,-0.021553,-0.038259,-11.683059,-0.203244,-42.882355,,,,,,
1465825291.15,-2.354465,-0.030178,-0.507272,-0.006801,0.825223,0.007851,-0.708006,0.030174,0.705561,-0.046617,-0.077400,0.051259,-11.683059,-0.203244,-42.882355,,,,,,
1465825291.16,-2.345664,-0.029972,-0.507124,0.026337,0.894285,-0.014902,-0.714193,0.029968,0.699307,0.043737,0.077591,-0.025296,-10.956961,-0.202594,-43.073608,,,,,,
1465825291.17,-2.336215,-0.029825,-0.507126,-0.037442,0.964420,-0.023921,-0.720772,0.029821,0.692531,-0.029305,-0.071462,-0.000438,-10.956961,-0.202594,-43.073608,,,,,,
1465825291.18,-2.326166,-0.029725,-0.506974,0.024346,1.011073,-0.011379,-0.727696,0.029721,0.685255,0.017796,0.040760,0.000673,-10.956961,-0.202594,-43.073608,,,,,,
1465825291.20,-2.305816,-0.029444,-0.506892,0.001950,0.988775,-0.007004,-0.741496,0.029440,0.670311,0.027781,-0.012533,0.008156,-9.377678,-0.207958,-43.444763,,,,,,
1465825291.19,-2.315867,-0.029481,-0.506973,-0.028823,1.037692,-0.028630,-0.734720,0.029476,0.677729,-0.008490,-0.042141,0.013066,-9.377678,-0.207958,-43.444763,,,,,,
1465825291.21,-2.296664,-0.029219,-0.506886,-0.010940,0.884748,-0.014880,-0.747605,0.029214,0.663501,0.046265,0.035300,0.011914,-9.377678,-0.207958,-43.444763,,,,,,
1465825291.22,-2.288986,-0.029062,-0.506818,-0.011143,0.724413,-0.012810,-0.752680,0.029058,0.657745,0.074381,0.021098,-0.018981,-8.491728,-0.204628,-43.626598,,,,,,
1465825291.23,-2.283019,-0.028815,-0.506781,-0.004961,0.548171,-0.019150,-0.756597,0.028811,0.653246,0.061101,0.045927,0.019453,-8.491728,-0.204628,-43.626598,,,,,,
1465825291.24,-2.279001,-0.028607,-0.506775,-0.017980,0.349629,-0.021111,-0.759220,0.028603,0.650205,0.073154,-0.006524,-0.003080,-8.491728,-0.204628,-43.626598,,,,,,
1465825291.25,-2.277086,-0.028507,-0.506747,-0.001240,0.137219,-0.004860,-0.760466,0.028503,0.648752,0.068632,0.008881,0.010199,-7.319000,-0.189840,-43.838654,,,,,,
1465825291.26,-2.277255,-0.028397,-0.506791,-0.011068,-0.064507,-0.007862,-0.760359,0.028393,0.648882,0.061750,-0.014447,0.009244,-7.319000,-0.189840,-43.838654,,,,,,
1465825291.27,-2.279344,-0.028449,-0.506746,0.006769,-0.254614,0.006121,-0.759001,0.028446,0.650468,0.070768,0.013653,-0.004594,-7.319000,-0.189840,-43.838654,,,,,,
1465825291.28,-2.283007,-0.028441,-0.506820,-0.003027,-0.401130,0.003826,-0.756613,0.028437,0.653245,0.042059,-0.010065,0.018249,-7.242380,-0.184418,-43.851402,,,,,,
1465825291.29,-2.288124,-0.028616,-0.506809,0.011673,-0.548757,0.015411,-0.753257,0.028612,0.657104,0.062735,-0.003679,-0.008819,-7.242380,-0.184418,-43.851402,,,,,,
1465825291.30,-2.294581,-0.028788,-0.506864,0.010445,-0.674058,0.019389,-0.748995,0.028784,0.661951,0.026109,-0.003332,0.016211,-7.242380,-0.184418,-43.851402,,,,,,
1465825291.31,-2.301987,-0.029033,-0.506879,0.014604,-0.756875,0.017784,-0.744066,0.029029,0.667475,0.031374,-0.005637,-0.016871,-8.000980,-0.190634,-43.719322,,,,,,
1465825291.32,-2.309744,-0.029287,-0.506904,0.013507,-0.775999,0.022160,-0.738861,0.029283,0.673221,0.012085,-0.001115,-0.014774,-8.000980,-0.190634,-43.719322,,,,,,
1465825291.33,-2.317257,-0.029481,-0.506964,0.008246,-0.737751,0.014464,-0.733778,0.029476,0.678750,-0.006304,-0.004299,-0.004464,-8.000980,-0.190634,-43.719322,,,,,,
1465825291.34,-2.324228,-0.029700,-0.506975,0.011501,-0.681491,0.019437,-0.729024,0.029696,0.683844,0.009877,0.013654,-0.032400,-8.662977,-0.200528,-43.592934,,,,,,
1465825291.35,-2.330583,-0.029817,-0.507021,0.006273,-0.616698,0.011574,-0.724661,0.029813,0.688461,-0.025126,0.002291,-0.008575,-8.662977,-0.200528,-43.592934,,,,,,
1465825291.36,-2.336109,-0.029938,-0.507034,0.007455,-0.528560,0.007829,-0.720842,0.029934,0.692452,-0.018431,-0.007518,-0.038644,-8.662977,-0.200528,-43.592934,,,,,,
1465825291.38,-2.343604,-0.030050,-0.507070,0.000327,-0.277957,0.000928,-0.715630,0.030045,0.697833,-0.034568,-0.014664,-0.018984,-9.809139,-0.210553,-43.349373,,,,,,
1465825291.37,-2.340494,-0.030009,-0.507049,0.005479,-0.407511,0.006003,-0.717798,0.030005,0.695605,-0.034628,0.000711,-0.017138,-9.809139,-0.210553,-43.349373,,,,,,
1465825291.39,-2.343497,-0.030155,-0.507028,-0.000599,-0.159039,0.005503,-0.715703,0.030150,0.697754,-0.035121,0.001390,-0.015869,-9.809139,-0.210553,-43.349373,,,,,,
1465825291.40,-2.344200,-0.030141,-0.507021,0.002750,-0.042231,0.000516,-0.715212,0.030137,0.698258,-0.027586,-0.003663,-0.024613,-10.133713,-0.211754,-43.274639,,,,,,
1465825291.41,-2.343784,-0.030094,-0.507024,-0.007748,0.068217,-0.005509,-0.715504,0.030089,0.697961,-0.037624,-0.007964,-0.016015,-10.133713,-0.211754,-43.274639,,,,,,
1465825291.42,-2.342250,-0.029951,-0.506984,-0.001201,0.179729,-0.015782,-0.716576,0.029947,0.696866,-0.020820,0.015174,-0.028180,-10.133713,-0.211754,-43.274639,,,,,,
1465825291.43,-2.337619,-0.028697,-0.506951,-0.025556,0.283817,-0.019656,-0.719822,0.028693,0.693565,0.003651,0.042001,-0.021080,-10.075218,-0.212740,-43.288292,,,,,,
1465825291.44,-2.334110,-0.028502,-0.506911,-0.009502,0.369780,-0.007406,-0.722256,0.028498,0.691039,-0.010700,-0.004496,-0.016143,-10.075218,-0.212740,-43.288292,,,,,,
1465825291.45,-2.329848,-0.028166,-0.506896,-0.017911,0.439892,-0.018499,-0.725201,0.028162,0.687961,-0.021304,-0.001124,-0.004275,-9.722397,-0.182283,-43.369034,,,,,,
1465825291.47,-2.318706,-0.025817,-0.506773,-0.013546,0.517428,-0.026438,-0.732868,0.025814,0.679881,-0.006497,-0.022793,0.001699,-9.722397,-0.182283,-43.369034,,,,,,
1465825291.46,-2.324121,-0.027255,-0.506824,-0.016784,0.485563,-0.021979,-0.729148,0.027252,0.683813,-0.012078,-0.011215,-0.008749,-9.722397,-0.182283,-43.369034,,,,,,
1465825291.48,-2.313682,-0.025502,-0.506763,-0.017799,0.521677,-0.026469,-0.736280,0.025499,0.676196,0.024519,-0.001619,-0.010684,-9.722397,-0.182283,-43.369034,,,,,,
1465825291.49,-2.309363,-0.024719,-0.506742,-0.011458,0.491928,-0.022020,-0.739208,0.024716,0.673023,0.012722,-0.011212,0.011395,-8.834309,-0.119034,-43.558838,,,,,,
1465825291.50,-2.305527,-0.024866,-0.506769,-0.020054,0.423983,-0.024794,-0.741782,0.024864,0.670180,0.039344,0.010247,-0.012511,-8.834309,-0.119034,-43.558838,,,,,,
1465825291.51,-2.302751,-0.024498,-0.506755,-0.011649,0.335842,-0.023169,-0.743646,0.024495,0.668124,0.026697,-0.003728,0.002423,-8.478724,-0.104223,-43.629482,,,,,,
1465825291.52,-2.301197,-0.024618,-0.506788,-0.017058,0.263642,-0.024849,-0.744681,0.024616,0.666966,0.044471,0.007687,-0.000096,-8.478724,-0.104223,-43.629482,,,,,,
1465825291.53,-2.300658,-0.025371,-0.506806,-0.015031,0.182931,-0.022209,-0.745027,0.025368,0.666552,0.052522,0.020851,-0.001116,-8.478724,-0.104223,-43.629482,,,,,,
1465825291.54,-2.299530,-0.025211,-0.506810,-0.014100,0.091589,-0.012055,-0.745782,0.025208,0.665713,0.052575,0.021499,0.005185,-8.289701,-0.097785,-43.665810,,,,,,
1465825291.55,-2.299463,-0.025089,-0.506813,-0.008939,-0.023115,-0.001750,-0.745828,0.025087,0.665666,0.039148,0.012511,-0.000780,-8.289701,-0.097785,-43.665810,,,,,,
1465825291.56,-2.300410,-0.025014,-0.506774,0.001568,-0.122950,0.006337,-0.745199,0.025012,0.666373,0.007558,-0.023516,0.015878,-8.289701,-0.097785,-43.665810,,,,,,
1465825291.57,-2.302866,-0.026055,-0.506835,-0.010208,-0.194059,-0.003869,-0.743540,0.026052,0.668183,0.034846,0.026331,-0.010652,-8.255383,-0.107412,-43.672287,,,,,,
1465825291.58,-2.305303,-0.026057,-0.506724,0.017380,-0.271582,-0.004419,-0.741910,0.026054,0.669994,0.004529,-0.079765,-0.025508,-8.255383,-0.107412,-43.672287,,,,,,
1465825291.59,-2.308504,-0.026060,-0.506795,-0.001853,-0.327845,-0.005150,-0.739761,0.026057,0.672365,0.003692,-0.016337,0.028105,-8.255383,-0.107412,-43.672287,,,,,,
1465825291.60,-2.312029,-0.026350,-0.506813,0.006587,-0.349155,0.020539,-0.737381,0.026347,0.674963,0.015258,0.018117,-0.003760,-8.469103,-0.133232,-43.631271,,,,,,
1465825291.61,-2.315126,-0.025198,-0.506784,0.028915,-0.356620,0.029118,-0.735308,0.025196,0.677264,-0.013745,-0.035022,-0.004474,-8.469103,-0.133232,-43.631271,,,,,,
1465825291.62,-2.318662,-0.025441,-0.506809,0.012973,-0.350212,0.018418,-0.732905,0.025438,0.679855,-0.005178,0.015761,0.000321,-8.469103,-0.133232,-43.631271,,,,,,
1465825291.63,-2.322014,-0.025694,-0.506751,0.023655,-0.331091,0.012986,-0.730617,0.025691,0.682304,0.008235,-0.014308,-0.042167,-8.469103,-0.133232,-43.631271,,,,,,
1465825291.64,-2.325082,-0.025912,-0.506769,0.010934,-0.291789,0.009534,-0.728516,0.025909,0.684538,-0.015426,0.022645,0.001695,-9.051050,-0.115861,-43.514328,,,,,,
1465825291.65,-2.326474,-0.025482,-0.506724,0.018434,-0.227061,0.025099,-0.727571,0.025480,0.685559,-0.016433,-0.018171,-0.020963,-9.051050,-0.115861,-43.514328,,,,,,
1465825291.66,-2.328101,-0.025689,-0.506694,0.024939,-0.143167,0.019257,-0.726450,0.025687,0.686739,-0.039923,-0.020773,-0.001238,-9.330324,-0.128209,-43.455265,,,,,,
1465825291.67,-2.328875,-0.025943,-0.506685,0.013355,-0.052888,0.011228,-0.725914,0.025940,0.687296,-0.008613,0.012131,-0.013056,-9.330324,-0.128209,-43.455265,,,,,,
1465825291.68,-2.328829,-0.026208,-0.506648,0.020886,0.021414,0.018221,-0.725940,0.026205,0.687258,-0.011303,-0.006948,-0.030245,-9.330324,-0.128209,-43.455265,,,,,,
1465825291.69,-2.327255,-0.027124,-0.506626,0.008218,0.090468,0.008198,-0.727003,0.027121,0.686098,-0.008424,0.018976,-0.019350,-9.493252,-0.139609,-43.419930,,,,,,
1465825291.70,-2.325940,-0.027309,-0.506577,0.015724,0.142475,0.014266,-0.727901,0.027306,0.685138,-0.016987,-0.021263,-0.016513,-9.493252,-0.139609,-43.419930,,,,,,
1465825291.71,-2.324106,-0.027388,-0.506573,0.009420,0.196654,0.005404,-0.729155,0.027385,0.683800,-0.006685,0.007070,-0.010994,-9.493252,-0.139609,-43.419930,,,,,,
1465825291.72,-2.321873,-0.027532,-0.506535,0.009453,0.229558,0.009456,-0.730678,0.027529,0.682167,-0.007649,-0.007296,-0.009285,-9.367966,-0.167577,-43.447033,,,,,,
1465825291.73,-2.319162,-0.027952,-0.506501,0.010553,0.244445,0.001913,-0.732516,0.027949,0.680176,0.017535,0.007696,-0.024353,-9.367966,-0.167577,-43.447033,,,,,,
1465825291.74,-2.316806,-0.028001,-0.506454,0.003094,0.231721,-0.003336,-0.734115,0.027998,0.678447,0.014084,0.026308,-0.008846,-9.367966,-0.167577,-43.447033,,,,,,
1465825291.75,-2.314716,-0.028048,-0.506419,0.004108,0.199852,0.002187,-0.735531,0.028044,0.676911,0.018032,-0.003005,-0.018311,-8.970934,-0.188171,-43.530659,,,,,,
1465825291.76,-2.313040,-0.028051,-0.506388,0.005130,0.158453,-0.001810,-0.736664,0.028047,0.675677,0.019822,0.003599,-0.006655,-8.970934,-0.188171,-43.530659,,,,,,
1465825291.77,-2.311996,-0.027850,-0.506382,0.000798,0.114897,0.006973,-0.737373,0.027846,0.674911,0.005607,-0.006530,0.003006,-8.970934,-0.188171,-43.530659,,,,,,
1465825291.78,-2.311400,-0.028093,-0.506364,0.007165,0.077761,-0.004496,-0.737770,0.028089,0.674467,0.036064,0.005511,-0.022932,-8.970934,-0.188171,-43.530659,,,,,,
1465825291.79,-2.311481,-0.028379,-0.506359,-0.001420,0.034212,0.002156,-0.737710,0.028375,0.674521,0.013955,0.005637,0.006097,-8.735588,-0.193670,-43.578476,,,,,,
1465825291.80,-2.311534,-0.027788,-0.506327,0.012361,-0.007215,0.005621,-0.737686,0.027784,0.674572,0.022384,-0.018079,-0.016171,-8.735588,-0.193670,-43.578476,,,,,,
1465825291.81,-2.312415,-0.028580,-0.506357,-0.001520,-0.050727,-0.000504,-0.737075,0.028576,0.675206,0.011840,0.021564,0.006449,-8.741447,-0.188081,-43.577324,,,,,,
1465825291.82,-2.313230,-0.027980,-0.506331,0.007993,-0.091103,0.008272,-0.736537,0.027977,0.675819,0.018962,-0.021095,-0.017997,-8.741447,-0.188081,-43.577324,,,,,,
1465825291.83,-2.314719,-0.028971,-0.506343,0.005857,-0.114438,-0.001160,-0.735509,0.028967,0.676895,0.019201,0.027795,-0.003281,-8.741447,-0.188081,-43.577324,,,,,,
1465825291.84,-2.315892,-0.028845,-0.506346,-0.002708,-0.132516,0.010652,-0.734717,0.028841,0.677760,0.009558,-0.008074,-0.014171,-8.815363,-0.192360,-43.562412,,,,,,
1465825291.85,-2.317136,-0.028797,-0.506294,0.019662,-0.137812,0.002192,-0.733874,0.028793,0.678675,0.014453,-0.002990,-0.018686,-8.815363,-0.192360,-43.562412,,,,,,
1465825291.86,-2.318557,-0.029442,-0.506343,-0.015466,-0.134606,0.001075,-0.732896,0.029437,0.679704,0.002549,0.019955,-0.001985,-8.815363,-0.192360,-43.562412,,,,,,
1465825291.87,-2.322267,-0.027854,-0.505812,-0.127354,-0.630741,-0.262038,-0.730402,0.027851,0.682450,-0.157126,0.352719,-0.568009,-9.047482,-0.225425,-43.514637,,,,,,
1465825291.88,-2.323978,-0.027675,-0.506837,-0.154368,0.422743,0.058114,-0.729237,0.027672,0.683701,-0.554027,-0.454704,-0.456025,-9.047482,-0.225425,-43.514637,,,,,,
1465825291.89,-2.291864,-0.025745,-0.506904,-0.066520,3.898587,-0.183938,-0.750852,0.025742,0.659968,0.366102,0.497787,0.862890,-9.047482,-0.225425,-43.514637,,,,,,
1465825291.90,-2.254519,-0.024598,-0.507095,-0.165025,3.648787,-0.064316,-0.774992,0.024595,0.631492,-0.311617,-0.276731,-0.293281,-9.282457,-0.166107,-43.465385,,,,,,
1465825291.91,-2.219826,-0.023373,-0.506364,0.063484,3.189144,-0.145297,-0.796453,0.023370,0.604249,0.044134,0.233496,0.429428,-9.282457,-0.166107,-43.465385,,,,,,
1465825291.92,-2.200490,-0.023101,-0.506375,-0.080231,1.706599,-0.012666,-0.807993,0.023099,0.588740,-0.271704,-0.226239,-0.642649,-9.282457,-0.166107,-43.465385,,,,,,
1465825291.93,-2.176289,-0.022569,-0.505962,0.032956,2.741926,-0.064818,-0.822012,0.022567,0.569022,0.059164,0.087709,0.323098,-3.857964,-0.078674,-44.278000,,,,,,
1465825291.94,-2.142664,-0.021439,-0.505882,-0.085334,3.482106,-0.085545,-0.840698,0.021438,0.541079,0.175156,-0.058394,-0.008441,-3.857964,-0.078674,-44.278000,,,,,,
1465825291.95,-2.108037,-0.020181,-0.506108,-0.075829,3.389777,-0.104116,-0.858949,0.020180,0.511663,0.308320,0.045983,0.084238,-3.857964,-0.078674,-44.278000,,,,,,
1465825291.96,-2.083078,-0.019046,-0.506519,-0.103025,2.112386,-0.075907,-0.871470,0.019044,0.490078,0.294123,0.000563,-0.044735,-1.292927,-0.059278,-44.426979,,,,,,
1465825291.97,-2.073680,-0.018420,-0.506728,-0.026213,0.580087,-0.037481,-0.876048,0.018418,0.481872,0.204768,0.035384,-0.033767,-1.292927,-0.059278,-44.426979,,,,,,
1465825291.98,-2.075689,-0.018328,-0.506727,-0.005161,-0.404315,0.004905,-0.875079,0.018327,0.483633,0.146167,-0.013352,0.005274,-1.292927,-0.059278,-44.426979,,,,,,
1465825291.99,-2.082205,-0.018505,-0.506816,0.009372,-0.675129,0.023650,-0.871907,0.018504,0.489322,0.112752,0.000387,0.047955,1.684006,0.044327,-44.413891,,,,,,
1465825292.00,-2.088180,-0.018893,-0.506676,0.030779,-0.573227,0.030483,-0.868961,0.018892,0.494519,0.146152,0.004759,0.106830,1.684006,0.044327,-44.413891,,,,,,
1465825292.01,-2.094826,-0.019378,-0.506668,0.026281,-0.736789,0.048535,-0.865647,0.019377,0.500279,0.148331,-0.025984,0.079051,1.684006,0.044327,-44.413891,,,,,,
1465825292.02,-2.106220,-0.020129,-0.506618,0.050036,-1.298536,0.066984,-0.859878,0.020128,0.510102,0.190536,0.001677,0.024779,1.129129,0.029388,-44.431473,,,,,,
1465825292.03,-2.124953,-0.021061,-0.506575,0.045857,-2.075788,0.077177,-0.850156,0.021060,0.526110,0.236219,0.000760,0.036116,1.129129,0.029388,-44.431473,,,,,,
1465825292.04,-2.152436,-0.022226,-0.506462,0.084094,-2.969895,0.100918,-0.835357,0.022224,0.549259,0.195312,0.006493,0.037884,1.129129,0.029388,-44.431473,,,,,,
1465825292.05,-2.188240,-0.023555,-0.506393,0.083097,-3.754585,0.112225,-0.815135,0.023552,0.578792,0.117564,0.025550,0.023381,-1.726456,-0.055263,-44.412247,,,,,,
1465825292.06,-2.229535,-0.024832,-0.506318,0.084664,-4.227047,0.100288,-0.790521,0.024829,0.611931,0.046381,0.034573,-0.055550,-1.726456,-0.055263,-44.412247,,,,,,
1465825292.07,-2.270340,-0.026177,-0.506217,0.090312,-3.975391,0.094457,-0.764874,0.026174,0.643648,-0.026584,0.015605,0.139479,-1.726456,-0.055263,-44.412247,,,,,,
1465825292.08,-2.307395,-0.027235,-0.506447,0.048143,-3.633481,0.096529,-0.740483,0.027232,0.671523,-0.121974,0.010595,0.274339,-5.142414,-0.120584,-44.147171,,,,,,
