timestamp,attitude_roll,attitude_pitch,attitude_yaw,rotation_rate_x,rotation_rate_y,rotation_rate_z,gravity_x,gravity_y,gravity_z,user_acc_x,user_acc_y,user_acc_z,magnetic_field_x,magnetic_field_y,magnetic_field_z,latitude(degree),longitude(degree),altitude(meter),speed(m/s),course(degree),timestamp
1465846674.81,0.009244,-0.011753,-1.487260,0.000625,-0.025377,0.000461,0.009243,0.011753,-0.999888,0.004383,0.003079,0.002208,-61.737415,230.001831,-91.760704,,,,,,
1465846674.82,0.008743,-0.011713,-1.487283,0.014394,-0.088020,-0.002325,0.008742,0.011713,-0.999893,0.011735,0.004889,-0.000992,-61.737415,230.001831,-91.760704,,,,,,
1465846674.83,0.007902,-0.011570,-1.487313,0.011161,-0.121988,-0.004244,0.007901,0.011570,-0.999902,0.018512,-0.001103,-0.011771,-61.737415,230.001831,-91.760704,,,,,,
1465846674.84,0.006989,-0.011482,-1.487360,0.012259,-0.097564,-0.005461,0.006989,0.011482,-0.999910,0.008819,0.001625,-0.003661,-61.854034,230.019028,-91.638985,,,,,,
1465846674.85,0.006265,-0.011323,-1.487418,0.011245,-0.057215,-0.005715,0.006265,0.011322,-0.999916,-0.001947,-0.002075,0.002297,-61.854034,230.019028,-91.638985,,,,,,
1465846674.86,0.006159,-0.011211,-1.487449,0.002834,0.036212,-0.000987,0.006159,0.011211,-0.999918,-0.007532,-0.002926,0.006754,-61.854034,230.019028,-91.638985,,,,,,
1465846674.87,0.007043,-0.011113,-1.487483,0.011473,0.129651,-0.003693,0.007043,0.011113,-0.999913,-0.014001,-0.001423,0.010762,-62.027763,229.989807,-91.594872,,,,,,
1465846674.88,0.008290,-0.011003,-1.487543,0.009345,0.127534,-0.005811,0.008289,0.011002,-0.999905,-0.005329,0.000304,0.003186,-62.027763,229.989807,-91.594872,,,,,,
1465846674.89,0.009477,-0.010903,-1.487593,0.013552,0.087182,-0.004489,0.009477,0.010902,-0.999896,0.009627,0.000893,-0.005308,-62.027763,229.989807,-91.594872,,,,,,
,,,,,,,,,,,,,,,,29.719988,-95.399031,10.534275,-1.000000,-1.000000,1465846685.86
,,,,,,,,,,,,,,,,29.719966,-95.399045,10.534275,-1.000000,-1.000000,1465846675.87
,,,,,,,,,,,,,,,,29.719988,-95.399031,10.534275,-1.000000,-1.000000,1465846685.86
1465846674.90,0.010277,-0.010723,-1.487645,0.019882,0.039402,-0.005248,0.010277,0.010723,-0.999890,0.014855,0.001332,-0.013096,-61.772343,229.940536,-91.890732,,,,,,
1465846674.91,0.010691,-0.010530,-1.487721,0.017711,0.001189,-0.008204,0.010690,0.010530,-0.999887,0.017051,-0.000596,-0.010656,-61.772343,229.940536,-91.890732,,,,,,
1465846674.92,0.010756,-0.010342,-1.487797,0.017693,-0.011555,-0.007059,0.010756,0.010342,-0.999889,0.010027,-0.000332,-0.010121,-61.772343,229.940536,-91.890732,,,,,,
1465846674.93,0.010792,-0.010211,-1.487869,0.013455,0.003316,-0.008221,0.010792,0.010211,-0.999890,0.002484,0.000547,-0.000416,-61.689194,229.898468,-92.051704,,,,,,
1465846674.94,0.010896,-0.010062,-1.487919,0.013487,0.035157,-0.004163,0.010896,0.010062,-0.999890,-0.008973,-0.000662,0.002164,-61.689194,229.898468,-92.051704,,,,,,
1465846674.95,0.011411,-0.009965,-1.487954,0.012464,0.070194,-0.003320,0.011410,0.009964,-0.999885,-0.006726,0.001495,0.006111,-61.689194,229.898468,-92.051704,,,,,,
1465846674.96,0.012093,-0.009871,-1.488000,0.010344,0.076568,-0.004426,0.012092,0.009871,-0.999878,-0.004661,0.001207,-0.001480,-61.674732,229.832169,-92.226791,,,,,,
1465846674.97,0.012981,-0.009760,-1.488056,0.009295,0.085069,-0.006609,0.012980,0.009760,-0.999868,0.002401,-0.000895,-0.002024,-61.674732,229.832169,-92.226791,,,,,,
1465846674.98,0.013969,-0.009688,-1.488102,0.008235,0.092497,-0.004528,0.013968,0.009688,-0.999856,0.004328,0.000627,-0.004432,-61.674732,229.832169,-92.226791,,,,,,
1465846674.99,0.015045,-0.009683,-1.488141,0.006105,0.093557,-0.003472,0.015044,0.009683,-0.999840,0.006212,0.003409,-0.003197,-61.552608,229.807037,-92.370850,,,,,,
1465846675.00,0.015998,-0.009609,-1.488165,0.009281,0.080812,-0.002325,0.015997,0.009609,-0.999826,0.005137,0.000873,-0.004080,-61.552608,229.807037,-92.370850,,,,,,
1465846675.01,0.016861,-0.009650,-1.488342,0.000785,0.070249,-0.020363,0.016859,0.009650,-0.999811,0.007402,0.004342,-0.004843,-61.552608,229.807037,-92.370850,,,,,,
1465846675.02,0.017633,-0.009494,-1.488439,0.010351,0.070221,-0.011837,0.017631,0.009493,-0.999799,0.003365,-0.004931,-0.009539,-61.258625,229.779083,-92.635445,,,,,,
1465846675.03,0.018376,-0.009400,-1.488516,-0.000302,0.075518,-0.005495,0.018374,0.009400,-0.999787,-0.000445,-0.002671,-0.003463,-61.258625,229.779083,-92.635445,,,,,,
1465846675.04,0.019431,-0.009417,-1.488551,-0.002388,0.111617,-0.004659,0.019429,0.009417,-0.999767,-0.001515,-0.001620,0.001155,-61.258625,229.779083,-92.635445,,,,,,
1465846675.05,0.020510,-0.009419,-1.488582,0.001861,0.107362,-0.002499,0.020507,0.009419,-0.999745,-0.002227,0.002025,-0.001918,-61.157104,229.745178,-92.786491,,,,,,
1465846675.06,0.021521,-0.009454,-1.488594,-0.002422,0.089311,-0.001325,0.021519,0.009453,-0.999724,0.004040,0.000587,-0.006517,-61.157104,229.745178,-92.786491,,,,,,
1465846675.07,0.022415,-0.009453,-1.488606,0.001817,0.075503,-0.000170,0.022412,0.009453,-0.999704,0.006275,0.000755,-0.008841,-61.157104,229.745178,-92.786491,,,,,,
,,,,,,,,,,,,,,,,29.720866,-95.401398,10.534275,-1.000000,-1.000000,1465846730.89
,,,,,,,,,,,,,,,,29.720895,-95.401477,10.534275,-1.000000,-1.000000,1465846730.90
1465846675.08,0.023312,-0.009488,-1.488606,-0.003507,0.075505,-0.000175,0.023309,0.009488,-0.999683,0.006965,0.000903,-0.003750,-60.802681,229.744385,-93.021141,,,,,,
1465846675.09,0.024127,-0.009464,-1.488612,0.000751,0.074441,-0.000164,0.024124,0.009464,-0.999664,0.003342,-0.001468,-0.004212,-60.802681,229.744385,-93.021141,,,,,,
1465846675.10,0.024944,-0.009434,-1.488620,-0.001363,0.085063,-0.001298,0.024940,0.009434,-0.999644,-0.000633,-0.001850,-0.001424,-60.802681,229.744385,-93.021141,,,,,,
1465846675.11,0.025866,-0.009434,-1.488638,-0.002411,0.096746,-0.002436,0.025862,0.009434,-0.999621,-0.001692,-0.001072,0.000170,-60.644753,229.745041,-93.122581,,,,,,
1465846675.12,0.026984,-0.009459,-1.488648,-0.002383,0.122224,-0.000467,0.026979,0.009458,-0.999591,-0.003465,0.000582,0.000263,-60.644753,229.745041,-93.122581,,,,,,
1465846675.13,0.028306,-0.009505,-1.488675,-0.001289,0.142403,-0.002722,0.028301,0.009505,-0.999554,-0.004391,0.001497,0.000409,-60.644753,229.745041,-93.122581,,,,,,
,,,,,,,,,,,,,,,,29.719991,-95.399026,10.527831,-1.000000,-1.000000,1465846731.04
1465846675.14,0.029815,-0.009546,-1.488713,-0.001267,0.156212,-0.004937,0.029809,0.009546,-0.999510,-0.003045,0.001197,-0.000337,-60.269604,229.744843,-93.366302,,,,,,
1465846675.15,0.031440,-0.009567,-1.488734,-0.001280,0.150895,-0.001710,0.031433,0.009567,-0.999460,0.004074,0.000199,-0.007300,-60.269604,229.744843,-93.366302,,,,,,
1465846675.16,0.032986,-0.009603,-1.488769,-0.002370,0.127543,-0.003694,0.032979,0.009603,-0.999410,0.010768,0.000697,-0.008647,-60.269604,229.744843,-93.366302,,,,,,
1465846675.17,0.034231,-0.009649,-1.488802,-0.002405,0.099937,-0.003521,0.034222,0.009648,-0.999368,0.009586,0.001216,-0.008369,-59.990780,229.746796,-93.540871,,,,,,
1465846675.18,0.035306,-0.009667,-1.488829,-0.001353,0.091440,-0.002402,0.035297,0.009667,-0.999330,0.007825,-0.000024,-0.005797,-59.990780,229.746796,-93.540871,,,,,,
1465846675.19,0.036238,-0.009686,-1.488857,-0.001357,0.086134,-0.003433,0.036229,0.009686,-0.999297,0.002452,0.000263,-0.004411,-59.990780,229.746796,-93.540871,,,,,,
1465846675.21,0.038061,-0.009684,-1.488919,-0.002407,0.097814,-0.003508,0.038050,0.009684,-0.999229,-0.000559,-0.000117,-0.002068,-59.570354,229.749969,-93.801422,,,,,,
1465846675.22,0.039118,-0.009716,-1.488942,-0.001340,0.100996,-0.002462,0.039106,0.009715,-0.999188,0.001361,0.000355,-0.000629,-59.570354,229.749969,-93.801422,,,,,,
1465846675.20,0.037109,-0.009661,-1.488885,-0.001357,0.086134,-0.003433,0.037099,0.009660,-0.999265,0.000544,-0.002245,-0.006167,-59.570354,229.749969,-93.801422,,,,,,
1465846675.23,0.040184,-0.009734,-1.488971,-0.001342,0.099935,-0.002455,0.040171,0.009734,-0.999145,0.002371,-0.000075,-0.004044,-59.413471,229.745850,-93.910904,,,,,,
1465846675.24,0.041192,-0.009770,-1.488994,-0.000296,0.085070,-0.002361,0.041178,0.009770,-0.999104,0.005819,0.001888,-0.002773,-59.413471,229.745850,-93.910904,,,,,,
1465846675.25,0.041985,-0.009789,-1.489016,-0.001380,0.069144,-0.002262,0.041970,0.009789,-0.999071,0.003821,0.000907,-0.005415,-59.413471,229.745850,-93.910904,,,,,,
1465846675.26,0.042768,-0.009815,-1.489027,-0.000312,0.073388,-0.001223,0.042753,0.009815,-0.999037,0.003176,0.001599,-0.002961,-59.067608,229.749420,-94.120110,,,,,,
1465846675.28,0.044502,-0.009841,-1.489057,-0.001350,0.093566,-0.002415,0.044486,0.009841,-0.998962,0.000925,0.000169,-0.002503,-59.067608,229.749420,-94.120110,,,,,,
1465846675.27,0.043563,-0.009824,-1.489040,-0.000300,0.082944,-0.001283,0.043547,0.009824,-0.999003,-0.000792,0.000339,-0.003759,-59.067608,229.749420,-94.120110,,,,,,
1465846675.29,0.045436,-0.009848,-1.489082,-0.000276,0.100997,-0.002461,0.045418,0.009847,-0.998920,-0.003075,0.000178,-0.003568,-58.924816,229.751099,-94.205528,,,,,,
1465846675.30,0.046472,-0.009842,-1.489108,-0.001326,0.112677,-0.002535,0.046453,0.009842,-0.998872,-0.005071,-0.000519,-0.000365,-58.924816,229.751099,-94.205528,,,,,,
1465846675.31,0.047683,-0.009851,-1.489124,-0.001300,0.134972,-0.001611,0.047663,0.009851,-0.998815,-0.005991,-0.000009,0.001775,-58.924816,229.751099,-94.205528,,,,,,
1465846675.33,0.050907,-0.009851,-1.489183,-0.001217,0.198682,-0.003075,0.050882,0.009851,-0.998656,-0.008310,-0.001641,0.003508,-58.555740,229.748276,-94.442238,,,,,,
1465846675.32,0.049119,-0.009864,-1.489147,-0.002324,0.165767,-0.002869,0.049097,0.009864,-0.998745,-0.010217,-0.000694,0.002560,-58.555740,229.748276,-94.442238,,,,,,
1465846675.34,0.052989,-0.009912,-1.489215,-0.005424,0.240093,-0.003339,0.052961,0.009912,-0.998547,-0.014540,0.000815,0.006314,-58.555740,229.748276,-94.442238,,,,,,
1465846675.35,0.055560,-0.009962,-1.489262,-0.004292,0.292123,-0.004728,0.055529,0.009962,-0.998407,-0.014696,0.000429,0.006205,-58.264515,229.744507,-94.631340,,,,,,
1465846675.37,0.062090,-0.010081,-1.489380,-0.005205,0.409986,-0.007597,0.062047,0.010081,-0.998022,-0.024541,-0.000438,0.012198,-58.264515,229.744507,-94.631340,,,,,,
1465846675.36,0.058518,-0.010024,-1.489311,-0.006362,0.339903,-0.005030,0.058482,0.010024,-0.998238,-0.020884,-0.000106,0.007699,-58.264515,229.744507,-94.631340,,,,,,
1465846675.38,0.066383,-0.010125,-1.489465,-0.008289,0.495994,-0.009204,0.066331,0.010125,-0.997746,-0.031541,-0.001947,0.015050,-57.250923,229.753189,-95.226974,,,,,,
1465846675.39,0.071670,-0.010244,-1.489566,-0.011336,0.611732,-0.010998,0.071605,0.010243,-0.997380,-0.043270,-0.000173,0.022908,-57.250923,229.753189,-95.226974,,,,,,
1465846675.40,0.078478,-0.010372,-1.489693,-0.013269,0.764637,-0.014087,0.078394,0.010372,-0.996869,-0.053918,-0.000896,0.028943,-57.250923,229.753189,-95.226974,,,,,,
1465846675.41,0.087444,-0.010535,-1.489832,-0.016216,0.962133,-0.015329,0.087328,0.010535,-0.996124,-0.071627,0.001580,0.041931,-56.380997,229.756317,-95.737083,,,,,,
1465846675.42,0.098822,-0.010743,-1.489989,-0.020169,1.204228,-0.017916,0.098655,0.010743,-0.995064,-0.087150,0.000350,0.061241,-56.380997,229.756317,-95.737083,,,,,,
1465846675.43,0.112920,-0.011001,-1.490171,-0.025142,1.480306,-0.021781,0.112673,0.011000,-0.993571,-0.083864,-0.000044,0.064387,-54.930317,229.766220,-96.553185,,,,,,
1465846675.44,0.129699,-0.011305,-1.490392,-0.029067,1.741520,-0.026617,0.129327,0.011305,-0.991538,-0.087426,-0.001799,0.064658,-54.930317,229.766220,-96.553185,,,,,,
1465846675.46,0.171337,-0.012125,-1.490952,-0.041078,2.341462,-0.036778,0.170488,0.012125,-0.985285,-0.175645,0.003027,0.132670,-54.930317,229.766220,-96.553185,,,,,,
1465846675.45,0.148936,-0.011677,-1.490658,-0.034076,1.985749,-0.032411,0.148375,0.011676,-0.988862,-0.130813,0.000653,0.094087,-54.930317,229.766220,-96.553185,,,,,,
1465846675.48,0.232887,-0.013388,-1.491653,-0.061888,3.563631,-0.052979,0.230767,0.013387,-0.972917,-0.167885,0.003748,0.167100,-49.118889,229.818085,-99.515617,,,,,,
1465846675.47,0.198879,-0.012695,-1.491268,-0.052073,2.906359,-0.044589,0.197554,0.012694,-0.980210,-0.178633,-0.003646,0.162934,-49.118889,229.818085,-99.515617,,,,,,
1465846675.49,0.272773,-0.014178,-1.492068,-0.068636,4.115790,-0.062836,0.269376,0.014177,-0.962931,-0.138333,-0.004061,0.159174,-49.118889,229.818085,-99.515617,,,,,,
1465846675.50,0.317187,-0.015136,-1.492527,-0.081921,4.545850,-0.074062,0.311860,0.015136,-0.950008,-0.153519,0.007646,0.185741,-36.915543,229.955780,-104.354935,,,,,,
1465846675.51,0.365914,-0.016137,-1.492940,-0.080305,4.985436,-0.076817,0.357757,0.016137,-0.933675,-0.130584,-0.006234,0.186590,-36.915543,229.955780,-104.354935,,,,,,
1465846675.52,0.419526,-0.017348,-1.493347,-0.099900,5.486626,-0.083173,0.407266,0.017347,-0.913145,-0.128977,0.007341,0.210584,-36.915543,229.955780,-104.354935,,,,,,
1465846675.53,0.477918,-0.018638,-1.493697,-0.104617,5.968689,-0.087266,0.459851,0.018637,-0.887800,-0.130536,0.001932,0.239882,-27.396908,230.077179,-106.987282,,,,,,
1465846675.54,0.541859,-0.020005,-1.493976,-0.102850,6.521900,-0.094991,0.515627,0.020004,-0.856580,-0.057390,-0.005493,0.230039,-27.396908,230.077179,-106.987282,,,,,,
1465846675.55,0.610028,-0.021548,-1.494236,-0.121521,6.902058,-0.105910,0.572757,0.021546,-0.819442,-0.054325,0.006286,0.228072,-27.396908,230.077179,-106.987282,,,,,,
1465846675.57,0.755454,-0.024787,-1.494371,-0.125068,7.481783,-0.102098,0.685408,0.024784,-0.727737,0.065416,0.009670,0.207840,-1.681938,230.478348,-109.586845,,,,,,
1465846675.56,0.681332,-0.023151,-1.494366,-0.117948,7.202549,-0.108855,0.629660,0.023149,-0.776526,-0.012899,-0.003312,0.237738,-1.681938,230.478348,-109.586845,,,,,,
1465846675.58,0.831145,-0.026513,-1.494247,-0.133431,7.571038,-0.123955,0.738444,0.026510,-0.673794,0.121435,0.001048,0.164532,-1.681938,230.478348,-109.586845,,,,,,
1465846675.59,0.906080,-0.028166,-1.494008,-0.117653,7.444629,-0.106115,0.786780,0.028162,-0.616591,0.146860,0.005819,0.144576,13.681999,230.756317,-108.151306,,,,,,
1465846675.60,0.978659,-0.029725,-1.493736,-0.117957,7.189816,-0.111969,0.829383,0.029720,-0.557889,0.179452,0.002292,0.100004,13.681999,230.756317,-108.151306,,,,,,
1465846675.61,1.048442,-0.031241,-1.493212,-0.125787,6.903110,-0.101663,0.866224,0.031236,-0.498679,0.231478,0.004790,0.064291,13.681999,230.756317,-108.151306,,,,,,
1465846675.62,1.114656,-0.032655,-1.492716,-0.103913,6.512362,-0.101319,0.897281,0.032650,-0.440251,0.227963,0.004109,0.042516,43.172363,231.394409,-98.616196,,,,,,
1465846675.63,1.176450,-0.033953,-1.492152,-0.105556,6.063199,-0.091053,0.922716,0.033946,-0.383983,0.231825,0.007192,0.018093,43.172363,231.394409,-98.616196,,,,,,
1465846675.64,1.233752,-0.035125,-1.491609,-0.086956,5.610864,-0.089262,0.943154,0.035118,-0.330495,0.229148,-0.000801,-0.003001,43.172363,231.394409,-98.616196,,,,,,
1465846675.65,1.286454,-0.036238,-1.490970,-0.101352,5.173400,-0.083339,0.959216,0.036231,-0.280342,0.122708,0.007242,0.023812,54.919830,231.695953,-91.832291,,,,,,
1465846675.66,1.337038,-0.037152,-1.490315,-0.077056,5.036386,-0.071811,0.972131,0.037143,-0.231476,0.142844,0.002560,0.048157,54.919830,231.695953,-91.832291,,,,,,
1465846675.67,1.386802,-0.038143,-1.489720,-0.086722,4.946178,-0.086157,0.982406,0.038134,-0.182824,0.106645,-0.001635,0.016565,64.234085,231.967010,-84.839035,,,,,,
1465846675.68,1.435812,-0.039071,-1.488892,-0.091078,4.884570,-0.076195,0.990147,0.039061,-0.134472,0.067821,0.007433,0.073284,64.234085,231.967010,-84.839035,,,,,,
1465846675.70,1.533037,-0.040696,-1.487502,-0.088996,4.841043,-0.079114,0.998460,0.040685,-0.037719,0.079894,-0.002248,0.043136,64.234085,231.967010,-84.839035,,,,,,
1465846675.69,1.484521,-0.039892,-1.488292,-0.067682,4.865440,-0.073923,0.995488,0.039882,-0.086100,0.075801,0.004033,0.051310,64.234085,231.967010,-84.839035,,,,,,
1465846675.71,1.581278,-0.041519,-1.486687,-0.079442,4.821921,-0.076855,0.999083,0.041507,0.010472,0.017274,0.006985,0.081950,78.873520,232.446594,-69.856537,,,,,,
1465846675.72,1.630304,-0.042265,-1.485903,-0.077170,4.933412,-0.078617,0.997338,0.042253,0.059420,0.023185,0.001082,0.090483,78.873520,232.446594,-69.856537,,,,,,
1465846675.73,1.680948,-0.043013,-1.484948,-0.090797,5.094830,-0.086029,0.993020,0.043000,0.109827,0.024283,-0.003068,0.084341,84.866913,232.684311,-61.546730,,,,,,
1465846675.74,1.733172,-0.043797,-1.483925,-0.092698,5.273220,-0.089279,0.985900,0.043783,0.161508,-0.062270,0.011911,0.149909,84.866913,232.684311,-61.546730,,,,,,
1465846675.75,1.788627,-0.044546,-1.482860,-0.092211,5.651239,-0.098036,0.975400,0.044531,0.215898,-0.126477,0.000345,0.208357,84.866913,232.684311,-61.546730,,,,,,
1465846675.76,1.850190,-0.045235,-1.481569,-0.111585,6.333988,-0.102337,0.960240,0.045220,0.275491,-0.132847,0.005150,0.255546,94.831642,233.175140,-42.055801,,,,,,
1465846675.77,1.919470,-0.045897,-1.480136,-0.113817,7.091073,-0.113474,0.938837,0.045881,0.341292,-0.055094,0.005526,0.249712,94.831642,233.175140,-42.055801,,,,,,
1465846675.78,1.994434,-0.046561,-1.478452,-0.139769,7.615628,-0.121048,0.910611,0.046544,0.410634,-0.095914,0.004160,0.296489,94.831642,233.175140,-42.055801,,,,,,
1465846675.79,2.074725,-0.047100,-1.476559,-0.141199,8.158237,-0.134032,0.874721,0.047082,0.482334,-0.098705,0.004248,0.355038,98.991348,233.454376,-28.846725,,,,,,
1465846675.80,2.161605,-0.047480,-1.474585,-0.154155,8.862221,-0.139525,0.829554,0.047462,0.556405,-0.033427,0.006157,0.387626,98.991348,233.454376,-28.846725,,,,,,
1465846675.81,2.255532,-0.047700,-1.472391,-0.162880,9.539667,-0.148040,0.773705,0.047682,0.631749,0.043052,0.015535,0.397334,98.991348,233.454376,-28.846725,,,,,,
1465846675.82,2.354351,-0.047706,-1.470086,-0.176189,9.948495,-0.160197,0.707603,0.047688,0.704999,0.136192,0.003459,0.370593,98.991348,233.454376,-28.846725,,,,,,
1465846675.83,2.455300,-0.047410,-1.467634,-0.188754,10.122628,-0.158109,0.632962,0.047392,0.772731,0.137317,0.017686,0.403142,101.498581,234.068466,6.508709,,,,,,
1465846675.84,2.557774,-0.046982,-1.465362,-0.165144,10.263848,-0.163229,0.550606,0.046965,0.833443,0.250450,0.009630,0.382087,101.498581,234.068466,6.508709,,,,,,
1465846675.85,2.660695,-0.046224,-1.463038,-0.188571,10.264915,-0.161130,0.462081,0.046208,0.885633,0.310853,0.017528,0.346819,101.498581,234.068466,6.508709,,,,,,
1465846675.86,2.762104,-0.045262,-1.460877,-0.172853,10.073766,-0.153528,0.370066,0.045246,0.927903,0.361440,0.018642,0.318206,88.955383,234.488754,47.268822,,,,,,
1465846675.87,2.860354,-0.044212,-1.458893,-0.162665,9.705318,-0.152272,0.277275,0.044198,0.959774,0.436287,0.015754,0.255375,88.955383,234.488754,47.268822,,,,,,
1465846675.88,2.953075,-0.043019,-1.457123,-0.153864,9.101115,-0.136765,0.187230,0.043005,0.981374,0.476970,0.013696,0.185572,88.955383,234.488754,47.268822,,,,,,
1465846675.89,3.038449,-0.041851,-1.455610,-0.131424,8.319612,-0.129712,0.102870,0.041838,0.993815,0.533787,0.010698,0.107336,77.023232,234.555222,64.681061,,,,,,
1465846675.90,3.114351,-0.040624,-1.454313,-0.131618,7.319386,-0.121311,0.027216,0.040613,0.998804,0.569936,0.015738,0.001623,77.023232,234.555222,64.681061,,,,,,
1465846675.91,-3.104028,-0.039536,-1.453274,-0.097929,6.185329,-0.101391,-0.037526,0.039526,0.998514,0.561345,0.006479,-0.062021,77.023232,234.555222,64.681061,,,,,,
1465846675.92,-3.050877,-0.038647,-1.452467,-0.085574,5.020489,-0.081300,-0.090524,0.038637,0.995145,0.552361,0.011412,-0.134534,51.532551,234.473175,86.597374,,,,,,
1465846675.93,-3.009327,-0.037806,-1.451883,-0.071082,3.866259,-0.058080,-0.131786,0.037797,0.990557,0.515773,0.004394,-0.171603,51.532551,234.473175,86.597374,,,,,,
1465846675.94,-2.979319,-0.037325,-1.451492,-0.034227,2.701422,-0.043287,-0.161450,0.037316,0.986175,0.538555,0.017081,-0.226349,51.532551,234.473175,86.597374,,,,,,
1465846675.95,-2.961764,-0.036981,-1.451242,-0.027329,1.425105,-0.025695,-0.178739,0.036973,0.983202,0.534391,0.002761,-0.262895,42.741318,234.402328,91.439064,,,,,,
1465846675.96,-2.957628,-0.036859,-1.451160,-0.003489,0.077633,-0.005512,-0.182804,0.036851,0.982458,0.510487,0.009963,-0.284567,42.741318,234.402328,91.439064,,,,,,
1465846675.97,-2.966256,-0.036964,-1.451161,0.014124,-1.146658,0.010700,-0.174321,0.036955,0.983995,0.387837,0.004488,-0.226106,42.741318,234.402328,91.439064,,,,,,
1465846675.98,-2.984291,-0.037258,-1.451376,0.027949,-1.991890,0.026659,-0.156545,0.037250,0.986968,0.348333,0.010586,-0.189208,38.566177,234.369827,93.358521,,,,,,
1465846675.99,-3.008844,-0.037677,-1.451646,0.041021,-2.597139,0.035790,-0.132265,0.037668,0.990498,0.299044,0.003882,-0.132817,38.566177,234.369827,93.358521,,,,,,
1465846676.00,-3.039302,-0.038255,-1.452053,0.057286,-3.198151,0.048091,-0.102038,0.038246,0.994045,0.298754,0.009041,-0.131466,38.566177,234.369827,93.358521,,,,,,
1465846676.01,-3.076598,-0.038940,-1.452549,0.067023,-3.913828,0.058976,-0.064900,0.038930,0.997132,0.281193,0.006770,-0.101456,42.638943,234.404205,91.482025,,,,,,
1465846676.02,-3.121437,-0.039750,-1.453237,0.082029,-4.666683,0.074357,-0.020138,0.039740,0.999007,0.284725,0.005136,-0.088637,42.638943,234.404205,91.482025,,,,,,
1465846676.03,3.109996,-0.040592,-1.454012,0.084390,-5.329252,0.079579,0.031565,0.040581,0.998678,0.249471,0.008995,-0.027791,48.961941,234.462280,88.105286,,,,,,
1465846676.04,3.053145,-0.041457,-1.454933,0.095536,-5.765689,0.091908,0.088257,0.041445,0.995235,0.161835,0.002272,0.036991,48.961941,234.462280,88.105286,,,,,,
1465846676.05,2.993854,-0.042433,-1.456023,0.112310,-5.978053,0.091128,0.147070,0.042421,0.988216,0.208292,0.014617,0.057164,48.961941,234.462280,88.105286,,,,,,
1465846676.06,2.931817,-0.043229,-1.457085,0.092769,-6.279593,0.091935,0.208046,0.043215,0.977164,0.153191,0.000394,0.087564,67.134003,234.566055,74.860970,,,,,,
1465846676.07,2.866943,-0.044014,-1.458296,0.113735,-6.531268,0.099921,0.270947,0.044000,0.961588,0.085971,0.007117,0.141851,67.134003,234.566055,74.860970,,,,,,
1465846676.08,2.801256,-0.044844,-1.459617,0.115836,-6.557807,0.097960,0.333469,0.044829,0.941695,0.055279,0.009080,0.172853,67.134003,234.566055,74.860970,,,,,,
1465846676.09,2.736805,-0.045475,-1.460942,0.106460,-6.387923,0.100079,0.393416,0.045459,0.918236,0.000138,0.003461,0.212608,76.475060,234.572037,65.267891,,,,,,
1465846676.10,2.674781,-0.046083,-1.462254,0.111063,-6.123519,0.092039,0.449564,0.046067,0.892060,-0.044718,0.009384,0.222442,76.475060,234.572037,65.267891,,,,,,
1465846676.11,2.615859,-0.046562,-1.463519,0.099762,-5.797537,0.088918,0.501304,0.046545,0.864019,-0.111808,0.002680,0.235164,76.475060,234.572037,65.267891,,,,,,
1465846676.12,2.561244,-0.046906,-1.464760,0.095019,-5.337768,0.083901,0.547712,0.046889,0.835352,-0.112852,0.004488,0.232168,91.041435,234.489365,43.111240,,,,,,
1465846676.13,2.511139,-0.047232,-1.465864,0.083892,-4.891770,0.068320,0.588854,0.047215,0.806859,-0.144655,0.005520,0.217280,91.041435,234.489365,43.111240,,,,,,
1465846676.14,2.465990,-0.047404,-1.466915,0.077077,-4.371504,0.072501,0.624665,0.047387,0.779454,-0.204056,-0.001153,0.230647,91.041435,234.489365,43.111240,,,,,,
1465846676.15,2.427108,-0.047559,-1.467845,0.067278,-3.709969,0.058762,0.654487,0.047541,0.754577,-0.219566,0.000509,0.219727,95.396378,234.410522,32.918365,,,,,,
1465846676.16,2.395156,-0.047643,-1.468538,0.050062,-3.016583,0.046945,0.678257,0.047625,0.733280,-0.264850,0.005719,0.211025,95.396378,234.410522,32.918365,,,,,,
1465846676.17,2.370717,-0.047701,-1.469139,0.044658,-2.243567,0.034641,0.695971,0.047683,0.716485,-0.285799,-0.001616,0.210273,95.396378,234.410522,32.918365,,,,,,
1465846676.18,2.354306,-0.047728,-1.469539,0.024387,-1.437631,0.023179,0.707634,0.047709,0.704967,-0.288307,-0.000133,0.190221,95.396378,234.410522,32.918365,,,,,,
1465846676.19,2.345875,-0.047721,-1.469749,0.012618,-0.644440,0.011806,0.713553,0.047703,0.698976,-0.289511,0.001720,0.174712,99.534988,234.259506,18.645233,,,,,,
1465846676.20,2.345136,-0.047731,-1.469793,0.000810,0.114778,-0.001483,0.714069,0.047713,0.698448,-0.283054,-0.000029,0.165856,99.534988,234.259506,18.645233,,,,,,
1465846676.21,2.351878,-0.047695,-1.469640,-0.017412,0.858064,-0.011485,0.709345,0.047677,0.703247,-0.274973,0.002448,0.153091,100.063438,234.225555,16.064606,,,,,,
1465846676.22,2.365955,-0.047659,-1.469325,-0.026071,1.586480,-0.021384,0.699376,0.047641,0.713164,-0.257879,0.000561,0.154863,100.063438,234.225555,16.064606,,,,,,
1465846676.23,2.386943,-0.047602,-1.468855,-0.041181,2.260753,-0.033079,0.684257,0.047584,0.727687,-0.222404,0.000710,0.138707,100.063438,234.225555,16.064606,,,,,,
1465846676.24,2.414148,-0.047511,-1.468211,-0.053190,2.862819,-0.043254,0.664213,0.047493,0.746033,-0.198927,0.000221,0.137085,99.187111,234.267883,20.318699,,,,,,
1465846676.25,2.446932,-0.047393,-1.467475,-0.057826,3.409653,-0.047752,0.639406,0.047375,0.767408,-0.169130,0.003757,0.138399,99.187111,234.267883,20.318699,,,,,,
1465846676.26,2.484612,-0.047262,-1.466634,-0.065746,3.866267,-0.063397,0.610047,0.047245,0.790955,-0.097108,0.005947,0.118377,99.187111,234.267883,20.318699,,,,,,
1465846676.27,2.526004,-0.047025,-1.465674,-0.077028,4.210294,-0.064502,0.576801,0.047007,0.815531,-0.070164,0.002294,0.115087,97.575607,234.330719,26.466751,,,,,,
1465846676.28,2.570200,-0.046742,-1.464701,-0.077756,4.484231,-0.063027,0.540214,0.046724,0.840230,-0.047584,0.002424,0.111079,97.575607,234.330719,26.466751,,,,,,
1465846676.29,2.616631,-0.046429,-1.463703,-0.080701,4.671131,-0.071653,0.500640,0.046412,0.864411,0.025132,0.005559,0.093429,97.575607,234.330719,26.466751,,,,,,
1465846676.30,2.664059,-0.046034,-1.462645,-0.084853,4.750776,-0.075350,0.459103,0.046017,0.887190,0.042362,0.005939,0.089708,91.060539,234.467850,43.187763,,,,,,
1465846676.31,2.712106,-0.045601,-1.461632,-0.082646,4.819781,-0.071523,0.415971,0.045585,0.908234,0.043135,-0.000495,0.091842,91.060539,234.467850,43.187763,,,,,,
1465846676.32,2.760923,-0.045116,-1.460612,-0.084683,4.887745,-0.075145,0.371165,0.045101,0.927471,0.100027,0.007359,0.078541,91.060539,234.467850,43.187763,,,,,,
1465846676.33,2.809184,-0.044619,-1.459640,-0.079499,4.778375,-0.073389,0.325996,0.044604,0.944318,0.149956,0.003889,0.047991,86.173645,234.516754,52.042068,,,,,,
1465846676.34,2.855013,-0.044082,-1.458706,-0.080903,4.507615,-0.071692,0.282399,0.044068,0.958284,0.177135,0.010665,0.019972,86.173645,234.516754,52.042068,,,,,,
1465846676.35,2.897541,-0.043566,-1.457915,-0.065389,4.158248,-0.059906,0.241407,0.043552,0.969446,0.201907,0.005658,-0.003519,86.173645,234.516754,52.042068,,,,,,
1465846676.36,2.936046,-0.043095,-1.457191,-0.060587,3.744139,-0.056239,0.203913,0.043081,0.978041,0.229101,0.014002,-0.033094,74.382431,234.555817,67.699356,,,,,,
1465846676.37,2.969918,-0.042620,-1.456533,-0.056933,3.258900,-0.055321,0.170678,0.042607,0.984405,0.241798,0.005428,-0.062149,74.382431,234.555817,67.699356,,,,,,
1465846676.38,2.998570,-0.042211,-1.456066,-0.046873,2.808655,-0.040779,0.142409,0.042198,0.988908,0.235521,0.004280,-0.054795,74.382431,234.555817,67.699356,,,,,,
1465846676.39,3.022592,-0.041866,-1.455624,-0.040112,2.255455,-0.038367,0.118616,0.041854,0.992058,0.270544,0.010819,-0.113090,74.382431,234.555817,67.699356,,,,,,
1465846676.40,3.040406,-0.041556,-1.455303,-0.030287,1.613036,-0.025813,0.100927,0.041544,0.994026,0.271617,0.003591,-0.114571,64.879578,234.540466,76.901192,,,,,,
1465846676.41,3.051359,-0.041422,-1.455133,-0.012003,0.921772,-0.014008,0.090034,0.041410,0.995077,0.283073,0.004260,-0.146048,64.879578,234.540466,76.901192,,,,,,
1465846676.42,3.055009,-0.041361,-1.455047,-0.004407,0.192300,-0.006232,0.086401,0.041350,0.995402,0.287744,0.008592,-0.149409,64.879578,234.540466,76.901192,,,,,,
1465846676.43,3.051663,-0.041413,-1.455092,0.008546,-0.501090,0.007710,0.089731,0.041401,0.995105,0.256475,0.002574,-0.152149,62.537243,234.530167,78.848358,,,,,,
1465846676.44,3.042041,-0.041570,-1.455246,0.019485,-1.110582,0.015801,0.099302,0.041558,0.994189,0.247592,0.006233,-0.132129,62.537243,234.530167,78.848358,,,,,,
1465846676.45,3.026654,-0.041788,-1.455482,0.025158,-1.674414,0.023600,0.114586,0.041776,0.992535,0.215507,0.003695,-0.122997,62.503948,234.531708,78.870171,,,,,,
1465846676.46,3.006242,-0.042070,-1.455815,0.033094,-2.132067,0.030736,0.134818,0.042058,0.989977,0.173638,0.004008,-0.085619,62.503948,234.531708,78.870171,,,,,,
1465846676.47,2.982313,-0.042420,-1.456238,0.042242,-2.469740,0.038186,0.158464,0.042407,0.986454,0.141600,0.001370,-0.064029,62.503948,234.531708,78.870171,,,,,,
1465846676.48,2.955394,-0.042814,-1.456671,0.046145,-2.760664,0.035756,0.184955,0.042801,0.981815,0.121884,0.007508,-0.043140,68.042999,234.553024,74.077034,,,,,,
1465846676.49,2.926150,-0.043189,-1.457210,0.047994,-2.967746,0.047701,0.213581,0.043176,0.975971,0.068722,-0.000512,-0.008426,68.042999,234.553024,74.077034,,,,,,
1465846676.50,2.895403,-0.043566,-1.457760,0.047862,-3.081345,0.043091,0.243480,0.043553,0.968928,0.061208,0.008694,0.001211,68.042999,234.553024,74.077034,,,,,,
1465846676.51,2.863976,-0.043961,-1.458399,0.057325,-3.159952,0.054238,0.273800,0.043947,0.960782,0.037968,0.002470,0.026782,72.274994,234.563568,69.918732,,,,,,
1465846676.53,2.798000,-0.044718,-1.459678,0.060284,-3.352131,0.052253,0.336535,0.044703,0.940609,-0.003543,-0.001551,0.050953,72.274994,234.563568,69.918732,,,,,,
1465846676.52,2.831446,-0.044336,-1.459008,0.051868,-3.279910,0.046470,0.304898,0.044322,0.951353,0.047534,0.009298,0.015017,72.274994,234.563568,69.918732,,,,,,
1465846676.54,2.765027,-0.045094,-1.460368,0.058268,-3.265057,0.049576,0.367355,0.045079,0.928988,-0.017380,0.005565,0.060362,72.274994,234.563568,69.918732,,,,,,
1465846676.55,2.733307,-0.045381,-1.460993,0.049912,-3.136574,0.048762,0.396627,0.045365,0.916858,-0.035437,0.002501,0.070737,81.035118,234.553452,59.584969,,,,,,
1465846676.56,2.703074,-0.045678,-1.461632,0.053312,-2.977297,0.044573,0.424155,0.045662,0.904437,-0.071571,0.001976,0.086407,81.035118,234.553452,59.584969,,,,,,
1465846676.57,2.675047,-0.045938,-1.462236,0.047230,-2.733079,0.043035,0.449329,0.045922,0.892185,-0.095234,0.002967,0.094082,84.935631,234.534561,53.961536,,,,,,
1465846676.58,2.650247,-0.046162,-1.462735,0.041307,-2.380525,0.029109,0.471310,0.046145,0.880760,-0.119168,-0.011370,0.106103,84.935631,234.534561,53.961536,,,,,,
1465846676.59,2.629097,-0.046390,-1.463215,0.039592,-2.031223,0.038626,0.489826,0.046373,0.870586,-0.156696,0.018034,0.106526,84.935631,234.534561,53.961536,,,,,,
1465846676.60,2.612119,-0.046482,-1.463603,0.025263,-1.596894,0.019921,0.504534,0.046465,0.862141,-0.127321,-0.005785,0.106380,90.421028,234.492447,44.381371,,,,,,
1465846676.61,2.598349,-0.046666,-1.463867,0.029886,-1.311262,0.014941,0.516353,0.046649,0.855105,-0.118937,-0.002475,0.089155,90.421028,234.492447,44.381371,,,,,,
1465846676.62,2.587376,-0.046754,-1.464149,0.019596,-1.018214,0.018415,0.525702,0.046737,0.849384,-0.148520,0.000764,0.084103,90.421028,234.492447,44.381371,,,,,,
1465846676.63,2.580146,-0.046850,-1.464302,0.013634,-0.686912,0.011009,0.531827,0.046833,0.845557,-0.115720,0.009259,0.071588,90.421028,234.492447,44.381371,,,,,,
1465846676.64,2.575489,-0.046880,-1.464435,0.007618,-0.391725,0.008087,0.535759,0.046863,0.843070,-0.113472,0.003354,0.056833,92.640533,234.468491,39.681618,,,,,,
1465846676.65,2.573544,-0.046861,-1.464473,-0.002698,-0.127330,0.006419,0.537397,0.046844,0.842027,-0.105161,0.016800,0.055022,92.640533,234.468491,39.681618,,,,,,
1465846676.66,2.580636,-0.047010,-1.464207,-0.004472,0.158325,0.005689,0.531408,0.046993,0.845811,-0.105383,0.003956,0.052016,92.932404,234.459671,39.046219,,,,,,
1465846676.68,2.594516,-0.046374,-1.463791,-0.008111,0.633012,-0.010065,0.519634,0.046357,0.853131,-0.068813,-0.011979,0.045948,92.932404,234.459671,39.046219,,,,,,
1465846676.67,2.584274,-0.046990,-1.464121,-0.007303,0.428060,-0.008779,0.528329,0.046972,0.847740,-0.069909,-0.007101,0.054696,92.932404,234.459671,39.046219,,,,,,
1465846676.69,2.602231,-0.046354,-1.463608,-0.013197,0.815656,-0.015473,0.513037,0.046338,0.857115,-0.056326,0.002414,0.036730,92.932404,234.459671,39.046219,,,,,,
1465846676.70,2.611785,-0.046266,-1.463397,-0.019357,1.001469,-0.014516,0.504827,0.046250,0.861981,-0.057576,0.003128,0.026981,91.663116,234.467072,41.897980,,,,,,
1465846676.71,2.623508,-0.046194,-1.463138,-0.017998,1.228706,-0.020197,0.494689,0.046178,0.867842,-0.052520,-0.000814,0.038621,91.663116,234.467072,41.897980,,,,,,
1465846676.72,2.637591,-0.046120,-1.462863,-0.020933,1.441060,-0.018339,0.482420,0.046103,0.874726,-0.050962,0.005105,0.039947,90.674850,234.480591,43.923782,,,,,,
1465846676.73,2.653302,-0.045996,-1.462487,-0.030290,1.603550,-0.030011,0.468621,0.045980,0.882202,-0.020745,0.007014,0.023483,90.674850,234.480591,43.923782,,,,,,
1465846676.74,2.670160,-0.045852,-1.462110,-0.030166,1.712898,-0.024310,0.453686,0.045836,0.889982,-0.030316,0.009889,0.025560,90.674850,234.480591,43.923782,,,,,,
1465846676.75,2.688829,-0.045649,-1.461726,-0.037353,1.923141,-0.026701,0.436997,0.045633,0.898305,-0.043748,0.010901,0.031062,89.214691,234.501144,46.715443,,,,,,
1465846676.76,2.709768,-0.045412,-1.461290,-0.040280,2.134445,-0.029093,0.418097,0.045396,0.907267,-0.012198,0.005446,0.032430,89.214691,234.501144,46.715443,,,,,,
1465846676.77,2.731990,-0.045183,-1.460834,-0.039081,2.234266,-0.033976,0.397839,0.045168,0.916343,0.014851,-0.002016,0.029488,89.214691,234.501144,46.715443,,,,,,
1465846676.78,2.754301,-0.044959,-1.460356,-0.036964,2.222588,-0.034965,0.377301,0.044944,0.925000,0.032642,-0.006003,0.021274,84.991196,234.527130,53.906376,,,,,,
1465846676.79,2.776307,-0.044765,-1.459911,-0.033813,2.188609,-0.034749,0.356858,0.044751,0.933086,0.048980,-0.000515,0.006993,84.991196,234.527130,53.906376,,,,,,
1465846676.80,2.797701,-0.044555,-1.459488,-0.034971,2.117462,-0.032175,0.336819,0.044540,0.940515,0.076038,0.006897,-0.009653,84.991196,234.527130,53.906376,,,,,,
1465846676.81,2.817990,-0.044332,-1.459075,-0.034065,1.991107,-0.031381,0.317672,0.044317,0.947165,0.092301,0.001673,-0.020117,82.354919,234.544327,57.784176,,,,,,
1465846676.82,2.836239,-0.044183,-1.458712,-0.031077,1.829704,-0.028237,0.300337,0.044169,0.952810,0.095995,0.010656,-0.031011,82.354919,234.544327,57.784176,,,,,,
1465846676.83,2.853327,-0.043982,-1.458391,-0.027031,1.662993,-0.025059,0.284015,0.043968,0.957811,0.101315,0.003243,-0.030016,82.354919,234.544327,57.784176,,,,,,
1465846676.84,2.869532,-0.043729,-1.459361,0.029986,1.678205,0.223984,0.268460,0.043715,0.962298,0.125339,0.007372,-0.043277,82.354919,234.544327,57.784176,,,,,,
1465846676.85,2.865359,-0.044487,-1.460399,0.064829,-1.646438,-0.096819,0.272464,0.044472,0.961138,2.235410,0.183281,-1.021273,77.379707,234.564102,64.221748,,,,,,
1465846676.86,2.797281,-0.044120,-1.459457,-0.024709,-8.551247,-0.073828,0.337220,0.044106,0.940392,0.426208,-0.112312,-0.259209,77.379707,234.564102,64.221748,,,,,,
1465846676.87,2.683017,-0.045505,-1.461946,0.288063,-11.698314,0.232558,0.442213,0.045489,0.895756,0.116228,-0.015872,0.320278,77.016075,234.493561,64.912766,,,,,,
1465846676.88,2.579815,-0.046319,-1.464552,0.138498,-9.680591,0.138856,0.532120,0.046303,0.845402,0.088500,0.051232,0.451016,77.016075,234.493561,64.912766,,,,,,
1465846676.89,2.500538,-0.046404,-1.465751,0.084961,-7.393404,0.111685,0.597397,0.046388,0.800603,-0.148453,-0.024964,0.430431,77.016075,234.493561,64.912766,,,,,,
1465846676.90,2.434963,-0.046951,-1.467363,0.150126,-6.417561,0.076890,0.648559,0.046934,0.759716,-0.164687,0.070482,0.327381,95.834923,234.348389,32.076183,,,,,,
1465846676.91,2.364493,-0.047454,-1.466679,-0.133993,-7.592046,-0.202364,0.700425,0.047436,0.712148,-3.186143,0.235370,0.614314,95.834923,234.348389,32.076183,,,,,,
1465846676.92,2.326337,-0.042796,-1.466916,-0.156974,-1.639782,0.609713,0.727234,0.042783,0.685055,-1.524521,-0.114514,1.603672,95.834923,234.348389,32.076183,,,,,,
1465846676.93,2.377963,-0.042323,-1.472506,0.319683,6.733492,0.123379,0.690929,0.042311,0.721684,1.550450,0.265734,-0.790608,99.281403,234.381851,18.458687,,,,,,
1465846676.94,2.448817,-0.041066,-1.465833,-0.704638,6.575345,-0.484452,0.638137,0.041054,0.768828,-0.032577,-0.301705,0.069872,99.281403,234.381851,18.458687,,,,,,
1465846676.95,2.481736,-0.041333,-1.464342,0.232274,2.204236,0.023963,0.612480,0.041321,0.789405,0.145287,0.027938,0.021203,99.281403,234.381851,18.458687,,,,,,
1465846676.96,2.480107,-0.044517,-1.466790,0.258567,-0.766418,-0.060631,0.613681,0.044502,0.788299,0.642255,-0.021827,-0.455856,96.890503,234.005264,31.403023,,,,,,
1465846676.97,2.463656,-0.042868,-1.465304,-0.250740,-1.772984,0.029265,0.626611,0.042855,0.778153,0.165824,-0.029030,-0.182450,96.890503,234.005264,31.403023,,,,,,
1465846676.98,2.448414,-0.043950,-1.466118,0.238539,-1.419479,-0.034202,0.638368,0.043936,0.768476,-0.301058,-0.011999,0.225634,96.890503,234.005264,31.403023,,,,,,
1465846676.99,2.439245,-0.044392,-1.467263,0.035814,-0.717856,0.081478,0.645375,0.044378,0.762576,-0.144368,-0.074758,0.139981,97.391075,234.079056,29.229351,,,,,,
1465846677.00,2.437607,-0.044328,-1.467708,0.057047,-0.016907,0.015365,0.646626,0.044313,0.761519,0.265072,0.040175,-0.075789,97.391075,234.079056,29.229351,,,,,,
1465846677.01,2.436167,-0.045330,-1.467787,0.053723,-0.254518,-0.067239,0.647692,0.045315,0.760553,-0.023516,0.025364,-0.048578,97.391075,234.079056,29.229351,,,,,,
1465846677.02,2.429941,-0.045365,-1.467761,0.011468,-0.709168,0.015404,0.652414,0.045350,0.756505,-0.027993,0.063308,-0.062978,98.223267,234.141403,25.736675,,,,,,
1465846677.03,2.422820,-0.045851,-1.468254,0.070091,-0.678373,0.003560,0.657769,0.045835,0.751824,-0.059549,0.047518,0.002647,98.223267,234.141403,25.736675,,,,,,
1465846677.04,2.417846,-0.045692,-1.468258,-0.039287,-0.426706,0.014646,0.661506,0.045676,0.748548,-0.188316,0.037439,0.022403,98.223267,234.141403,25.736675,,,,,,
1465846677.05,2.417026,-0.045189,-1.468528,-0.002574,0.050955,0.056394,0.662134,0.045174,0.748023,-0.072336,-0.024056,0.067514,98.559387,234.157608,24.261864,,,,,,
1465846677.06,2.419788,-0.044886,-1.468653,-0.033067,0.313312,0.027043,0.660075,0.044871,0.749858,-0.073435,0.005178,0.005787,98.559387,234.157608,24.261864,,,,,,
1465846677.07,2.423251,-0.044098,-1.468517,-0.066064,0.348321,0.043821,0.657497,0.044084,0.752167,-0.041896,0.021621,-0.001541,98.559387,234.157608,24.261864,,,,,,
1465846677.08,2.426837,-0.043512,-1.468622,-0.034107,0.351505,0.038511,0.654813,0.043498,0.754538,0.138995,-0.011836,-0.061652,98.864914,233.996201,24.574108,,,,,,
1465846677.09,2.429376,-0.043128,-1.468152,-0.062924,0.208328,-0.015971,0.652906,0.043115,0.756211,-0.024228,-0.012033,0.014556,98.864914,233.996201,24.574108,,,,,,
1465846677.10,2.432084,-0.042842,-1.467823,-0.031943,0.317632,0.000405,0.650863,0.042828,0.757986,-0.052566,-0.002500,0.055536,98.864914,233.996201,24.574108,,,,,,
1465846677.11,2.436949,-0.042679,-1.467599,-0.035914,0.523664,-0.015793,0.647173,0.042666,0.761149,-0.008302,0.010953,-0.008555,98.796799,233.936218,25.405022,,,,,,
1465846677.12,2.442248,-0.042153,-1.467267,-0.060491,0.510835,0.020454,0.643145,0.042141,0.764584,-0.020494,0.014225,-0.013623,98.796799,233.936218,25.405022,,,,,,
1465846677.13,2.445979,-0.041670,-1.467321,-0.026691,0.319650,0.037654,0.640300,0.041658,0.766994,0.053349,0.025602,-0.033520,98.796799,233.936218,25.405022,,,,,,
1465846677.14,2.444605,-0.040216,-1.467490,-0.039792,0.063746,0.040312,0.641392,0.040205,0.766159,0.041179,-0.015348,-0.018997,98.431770,233.862061,27.424503,,,,,,
1465846677.15,2.444423,-0.039791,-1.467542,-0.018592,-0.033912,0.027108,0.641542,0.039780,0.766055,0.042585,-0.014451,0.025601,98.431770,233.862061,27.424503,,,,,,
1465846677.16,2.442292,-0.038436,-1.467805,0.009122,-0.028591,0.014331,0.643207,0.038427,0.764727,0.051449,-0.022100,0.012678,98.431770,233.862061,27.424503,,,,,,
1465846677.17,2.441901,-0.038385,-1.467776,-0.005784,-0.048723,0.001669,0.643507,0.038376,0.764477,-0.005461,-0.006378,0.003681,98.795746,233.690720,27.575863,,,,,,
1465846677.19,2.442065,-0.038304,-1.468049,0.010106,-0.091232,0.015790,0.643384,0.038294,0.764585,0.009692,0.013601,-0.022627,98.795746,233.690720,27.575863,,,,,,
1465846677.18,2.442911,-0.038281,-1.467852,0.020806,-0.068905,0.002887,0.642738,0.038272,0.765130,-0.024207,-0.003543,0.017509,98.795746,233.690720,27.575863,,,,,,
1465846677.20,2.439584,-0.038574,-1.468200,-0.002754,-0.158125,0.016196,0.645272,0.038564,0.762979,0.006522,0.006510,-0.021860,99.174149,233.535248,27.534599,,,,,,
1465846677.21,2.438383,-0.038670,-1.468304,0.001421,-0.221837,0.018728,0.646186,0.038661,0.762200,-0.018576,0.004033,0.006064,99.174149,233.535248,27.534599,,,,,,
1465846677.22,2.435875,-0.039325,-1.468512,0.005660,-0.233528,0.021997,0.648079,0.039315,0.760558,0.001824,0.016105,-0.001265,99.174149,233.535248,27.534599,,,,,,
1465846677.23,2.433349,-0.039932,-1.468661,0.000332,-0.246253,0.016748,0.649982,0.039921,0.758900,-0.006962,0.014965,-0.010395,99.264633,233.551559,27.066364,,,,,,
1465846677.24,2.432535,-0.040100,-1.468735,-0.000738,-0.247312,0.018882,0.650595,0.040089,0.758366,-0.033682,0.006602,0.018627,99.264633,233.551559,27.066364,,,,,,
1465846677.25,2.431073,-0.039545,-1.468948,0.008859,-0.219732,0.028299,0.651718,0.039535,0.757430,-0.019989,-0.010879,0.010178,99.264633,233.551559,27.066364,,,,,,
1465846677.26,2.429546,-0.038710,-1.469087,0.003595,-0.193144,0.014291,0.652895,0.038700,0.756459,-0.009127,-0.018345,0.006724,99.439873,233.588150,26.089550,,,,,,
1465846677.27,2.428026,-0.037840,-1.469231,0.014272,-0.175085,0.009932,0.654066,0.037831,0.755491,-0.001798,-0.022068,0.010744,99.439873,233.588150,26.089550,,,,,,
1465846677.28,2.426565,-0.038297,-1.469338,0.016392,-0.195238,0.002609,0.655158,0.038288,0.754521,-0.015021,0.008496,0.000468,99.439873,233.588150,26.089550,,,,,,
1465846677.29,2.424842,-0.039176,-1.469449,0.013201,-0.197353,0.000489,0.656434,0.039166,0.753366,-0.010072,0.020649,0.000586,99.829208,233.426941,26.045441,,,,,,
1465846677.30,2.423587,-0.040289,-1.469503,0.016390,-0.203718,-0.000535,0.657350,0.040278,0.752508,-0.029802,0.025930,-0.001287,99.829208,233.426941,26.045441,,,,,,
1465846677.31,2.421909,-0.041419,-1.469650,0.015310,-0.200560,0.010087,0.658581,0.041407,0.751369,-0.025952,0.028173,-0.014217,99.829208,233.426941,26.045441,,,,,,
1465846677.32,2.419997,-0.041973,-1.469760,-0.000678,-0.207996,0.014374,0.660002,0.041961,0.750091,-0.019743,0.016328,-0.015091,99.508728,233.705353,24.742790,,,,,,
1465846677.34,2.415446,-0.041659,-1.470065,0.007760,-0.263227,0.020051,0.663417,0.041647,0.747090,-0.006999,-0.002295,-0.005680,99.508728,233.705353,24.742790,,,,,,
1465846677.33,2.418002,-0.041799,-1.469871,0.000347,-0.234548,0.017735,0.661502,0.041787,0.748779,-0.018771,-0.002266,-0.005966,99.508728,233.705353,24.742790,,,,,,
1465846677.35,2.412562,-0.041557,-1.470224,0.001338,-0.295069,0.017051,0.665572,0.041545,0.745177,-0.004118,-0.017818,-0.003920,99.584381,233.724335,24.253986,,,,,,
1465846677.36,2.410104,-0.040905,-1.470345,0.009845,-0.309923,0.012896,0.667420,0.040894,0.743558,-0.008392,-0.018357,0.020632,99.584381,233.724335,24.253986,,,,,,
1465846677.37,2.407290,-0.040482,-1.470527,0.021553,-0.322651,0.006602,0.669521,0.040471,0.741690,-0.003078,-0.016179,0.018381,99.584381,233.724335,24.253986,,,,,,
1465846677.38,2.403611,-0.040623,-1.470714,0.023646,-0.358743,0.002573,0.672241,0.040612,0.739218,-0.001022,-0.000436,-0.008764,100.157547,233.574982,23.314503,,,,,,
1465846677.39,2.399718,-0.040806,-1.470896,0.026794,-0.400146,-0.000358,0.675108,0.040794,0.736590,-0.009352,0.012444,-0.006731,100.157547,233.574982,23.314503,,,,,,
1465846677.40,2.395468,-0.040949,-1.471112,0.022488,-0.424589,0.008307,0.678229,0.040937,0.733710,-0.010794,0.019411,-0.015127,100.157547,233.574982,23.314503,,,,,,
1465846677.41,2.391000,-0.041011,-1.471321,0.018183,-0.449029,0.015907,0.681498,0.040999,0.730670,-0.032786,0.007692,-0.019061,100.343292,233.580643,22.442982,,,,,,
1465846677.42,2.387749,-0.040878,-1.471503,0.011807,-0.428863,0.022161,0.683874,0.040867,0.728455,-0.041387,-0.003788,0.013931,100.343292,233.580643,22.442982,,,,,,
1465846677.43,2.383708,-0.040804,-1.471794,0.016104,-0.397014,0.023030,0.686814,0.040792,0.725687,-0.018830,-0.023657,0.016119,100.343292,233.580643,22.442982,,,,,,
1465846677.44,2.379658,-0.040776,-1.472042,0.015031,-0.408685,0.019908,0.689749,0.040764,0.722900,-0.009893,-0.010613,0.000748,100.841492,233.527603,20.693611,,,,,,
1465846677.45,2.375316,-0.040779,-1.472294,0.018189,-0.439476,0.019040,0.692881,0.040768,0.719899,-0.015192,0.007847,-0.008259,100.841492,233.527603,20.693611,,,,,,
1465846677.46,2.370908,-0.041627,-1.472546,0.014972,-0.460706,0.018104,0.696023,0.041615,0.716813,-0.027810,0.029155,-0.015320,100.841492,233.527603,20.693611,,,,,,
1465846677.47,2.366159,-0.041540,-1.472880,0.015992,-0.467127,0.036241,0.699422,0.041528,0.713501,-0.052770,0.030844,-0.017685,101.099213,233.496017,19.771919,,,,,,
1465846677.48,2.361729,-0.041326,-1.473190,0.001122,-0.440572,0.034995,0.702582,0.041314,0.710402,-0.041205,0.049995,-0.031706,101.099213,233.496017,19.771919,,,,,,
1465846677.49,2.357699,-0.040859,-1.473441,-0.021197,-0.373726,0.055842,0.705453,0.040848,0.707579,-0.074716,-0.001251,0.012621,101.099213,233.496017,19.771919,,,,,,
1465846677.50,2.356662,-0.040437,-1.473606,-0.001931,-0.306807,0.046926,0.706198,0.040426,0.706859,-0.073752,-0.001699,0.025304,101.607346,233.434845,17.790417,,,,,,
1465846677.51,2.354296,-0.040020,-1.473959,-0.017775,-0.203807,0.047329,0.707881,0.040009,0.705198,0.000051,0.005309,-0.063657,101.607346,233.434845,17.790417,,,,,,
1465846677.52,2.352798,-0.039383,-1.473727,-0.062375,-0.134724,0.030884,0.708954,0.039373,0.704155,-0.072739,-0.018727,0.034340,101.607346,233.434845,17.790417,,,,,,
1465846677.53,2.352025,-0.039071,-1.473954,0.012235,-0.057276,0.040053,0.709507,0.039061,0.703615,-0.060703,-0.009856,0.026304,101.890854,233.333252,17.499401,,,,,,
1465846677.54,2.350109,-0.039147,-1.474079,-0.044181,-0.064655,0.028333,0.710852,0.039137,0.702252,0.001169,0.012377,-0.057370,101.890854,233.333252,17.499401,,,,,,
1465846677.55,2.349008,-0.038481,-1.474001,-0.037900,-0.123104,0.045737,0.711643,0.038472,0.701488,-0.031741,-0.035298,0.011159,102.086609,233.253265,17.424713,,,,,,
1465846677.56,2.347563,-0.038438,-1.474453,0.045151,-0.145403,0.031058,0.712657,0.038429,0.700460,0.030599,-0.097709,0.045634,102.086609,233.253265,17.424713,,,,,,
1465846677.57,2.345595,-0.038779,-1.474603,0.026015,-0.220611,-0.030228,0.714025,0.038770,0.699046,0.108943,-0.129682,-0.012370,102.086609,233.253265,17.424713,,,,,,
1465846677.58,2.342064,-0.038528,-1.474622,0.073839,-0.332054,-0.056090,0.716495,0.038518,0.696528,0.026074,-0.032339,0.008123,102.350632,233.189835,16.709980,,,,,,
1465846677.59,2.338761,-0.039750,-1.474963,0.110078,-0.325660,-0.070996,0.718758,0.039740,0.694124,0.000771,-0.013251,0.021025,102.350632,233.189835,16.709980,,,,,,
1465846677.60,2.335697,-0.040858,-1.475057,0.079233,-0.300161,-0.071187,0.720849,0.040846,0.691887,-0.058801,0.035387,-0.002724,102.350632,233.189835,16.709980,,,,,,
1465846677.62,2.331139,-0.042299,-1.475600,0.032404,-0.195174,-0.015476,0.723952,0.042286,0.688553,-0.089064,0.115963,-0.088730,102.357651,233.250595,15.793903,,,,,,
1465846677.61,2.333153,-0.041792,-1.475392,0.088833,-0.232304,-0.037541,0.722579,0.041780,0.690025,-0.085235,0.069792,-0.055167,102.357651,233.250595,15.793903,,,,,,
1465846677.63,2.329496,-0.042216,-1.475795,0.005746,-0.148577,0.033170,0.725084,0.042203,0.687366,-0.127886,0.110568,-0.072314,102.357651,233.250595,15.793903,,,,,,
1465846677.64,2.328400,-0.041718,-1.476104,-0.022998,-0.094498,0.064735,0.725853,0.041706,0.686585,-0.080055,0.066143,-0.095429,102.357651,233.250595,15.793903,,,,,,
1465846677.65,2.327565,-0.040754,-1.476149,-0.069857,-0.090251,0.073177,0.726455,0.040743,0.686005,-0.034103,0.023558,-0.063859,102.214966,233.408768,14.311920,,,,,,
1465846677.66,2.327803,-0.039288,-1.476145,-0.056074,-0.133787,0.074530,0.726334,0.039278,0.686219,-0.054490,-0.015032,0.007003,102.214966,233.408768,14.311920,,,,,,
1465846677.67,2.326526,-0.038340,-1.476335,-0.053935,-0.114696,0.081863,0.727236,0.038331,0.685316,-0.057284,-0.038331,0.000612,102.546913,233.264420,14.290154,,,,,,
1465846677.68,2.326131,-0.037464,-1.476398,-0.054825,-0.007398,0.060965,0.727531,0.037455,0.685051,-0.017372,-0.050441,-0.007744,102.546913,233.264420,14.290154,,,,,,
1465846677.69,2.326553,-0.036965,-1.476497,-0.017441,0.058465,0.042493,0.727256,0.036956,0.685371,-0.046485,-0.020935,0.014641,102.546913,233.264420,14.290154,,,,,,
1465846677.70,2.329572,-0.036555,-1.476617,-0.013054,0.154046,0.037641,0.725194,0.036547,0.687574,-0.065862,-0.003145,0.005038,102.546913,233.264420,14.290154,,,,,,
1465846677.71,2.331735,-0.036227,-1.476735,-0.012940,0.234760,0.030748,0.723714,0.036219,0.689149,-0.061391,0.025900,-0.036180,103.259499,232.922211,14.734482,,,,,,
1465846677.72,2.334827,-0.035926,-1.476859,-0.013876,0.335635,0.029050,0.721587,0.035919,0.691391,-0.066283,0.007798,-0.030518,103.259499,232.922211,14.734482,,,,,,
1465846677.73,2.338728,-0.035560,-1.476938,-0.021250,0.408885,0.034970,0.718894,0.035552,0.694210,-0.087760,0.008362,-0.033016,103.344292,232.844910,15.348763,,,,,,
1465846677.74,2.344420,-0.034482,-1.476964,-0.030703,0.516130,0.036418,0.714958,0.034475,0.698317,-0.070198,-0.022924,-0.036864,103.344292,232.844910,15.348763,,,,,,
1465846677.75,2.350157,-0.034044,-1.476942,-0.031663,0.580933,0.024302,0.710951,0.034038,0.702418,-0.015821,-0.018870,-0.040430,103.344292,232.844910,15.348763,,,,,,
1465846677.76,2.355828,-0.033757,-1.476840,-0.024218,0.551240,0.009593,0.706963,0.033751,0.706445,0.006935,-0.037474,-0.030130,103.439056,232.645477,17.573418,,,,,,
1465846677.77,2.360462,-0.033675,-1.476774,-0.005183,0.432335,0.000778,0.703683,0.033669,0.709716,0.005255,-0.036400,-0.046111,103.439056,232.645477,17.573418,,,,,,
1465846677.78,2.363128,-0.032507,-1.476826,0.016021,0.339980,-0.012456,0.701816,0.032501,0.711616,0.014691,-0.042434,-0.034706,103.439056,232.645477,17.573418,,,,,,
1465846677.79,2.365949,-0.032886,-1.476850,0.032994,0.259328,-0.031094,0.699797,0.032880,0.713584,0.018373,-0.033353,-0.039344,103.439056,232.645477,17.573418,,,,,,
1465846677.80,2.368020,-0.033455,-1.477067,0.062711,0.198764,-0.021104,0.698305,0.033449,0.715019,-0.023179,-0.010485,-0.035163,103.322197,232.551285,19.411495,,,,,,
1465846677.81,2.369551,-0.034125,-1.477400,0.070094,0.140364,-0.021795,0.697193,0.034119,0.716071,-0.018071,0.029968,-0.067114,103.322197,232.551285,19.411495,,,,,,
1465846677.82,2.370430,-0.034622,-1.477680,0.049759,0.075572,-0.009700,0.696552,0.034615,0.716671,-0.031253,0.043525,-0.107327,103.141632,232.624863,19.489826,,,,,,
1465846677.83,2.370928,-0.034902,-1.477915,0.033724,0.039452,0.000090,0.696188,0.034895,0.717011,-0.045202,0.046618,-0.106598,103.141632,232.624863,19.489826,,,,,,
1465846677.84,2.371203,-0.034901,-1.478124,0.007053,0.033033,0.022458,0.695991,0.034894,0.717203,-0.089347,0.041156,-0.118326,103.141632,232.624863,19.489826,,,,,,
1465846677.85,2.372053,-0.034621,-1.478316,-0.009918,0.099909,0.031601,0.695388,0.034614,0.717800,-0.068328,0.013924,-0.107174,103.141632,232.624863,19.489826,,,,,,
1465846677.86,2.373360,-0.034173,-1.478461,-0.025865,0.141289,0.045164,0.694460,0.034166,0.718720,-0.097139,0.001646,-0.094376,103.164764,232.612061,19.520039,,,,,,
1465846677.87,2.375272,-0.033465,-1.478615,-0.042850,0.218745,0.068079,0.693101,0.033459,0.720064,-0.125672,0.018589,-0.097688,103.164764,232.612061,19.520039,,,,,,
1465846677.88,2.378740,-0.032567,-1.478620,-0.071369,0.384429,0.056367,0.690620,0.032561,0.722484,-0.067146,0.006700,-0.104595,103.164764,232.612061,19.520039,,,,,,
1465846677.89,2.383342,-0.031699,-1.478521,-0.064863,0.474685,0.053678,0.687307,0.031693,0.725675,-0.068380,-0.000794,-0.069990,103.337685,232.494644,19.998531,,,,,,
1465846677.90,2.388412,-0.030912,-1.478581,-0.052041,0.513960,0.055574,0.683636,0.030907,0.729168,-0.067623,-0.000680,-0.089779,103.337685,232.494644,19.998531,,,,,,
1465846677.91,2.393726,-0.030027,-1.478455,-0.078617,0.539471,0.050065,0.679769,0.030022,0.732811,-0.026861,-0.003518,-0.126778,103.439377,232.347961,21.144638,,,,,,
1465846677.92,2.397985,-0.028937,-1.478351,-0.050947,0.507636,0.036455,0.676664,0.028933,0.735723,-0.005613,-0.024843,-0.097402,103.439377,232.347961,21.144638,,,,,,
1465846677.93,2.402641,-0.028469,-1.478406,-0.026531,0.443925,0.033686,0.673240,0.028465,0.738876,0.001946,-0.023201,-0.075790,103.439377,232.347961,21.144638,,,,,,
1465846677.94,2.406172,-0.028036,-1.478462,-0.029878,0.317581,0.031282,0.670636,0.028033,0.741257,0.035221,0.000654,-0.141388,103.497665,232.074356,23.708817,,,,,,
1465846677.95,2.408316,-0.027665,-1.478529,-0.018326,0.185917,0.029990,0.669052,0.027662,0.742701,0.028657,0.017886,-0.145899,103.497665,232.074356,23.708817,,,,,,
1465846677.96,2.409322,-0.027399,-1.478844,0.004930,0.077558,0.046660,0.668309,0.027396,0.743379,-0.016316,0.006296,-0.125139,103.497665,232.074356,23.708817,,,,,,
1465846677.97,2.409544,-0.026968,-1.479117,-0.021783,0.008542,0.051324,0.668152,0.026965,0.743536,-0.009156,0.003888,-0.187719,103.507248,231.996780,24.415615,,,,,,
1465846677.98,2.409579,-0.026439,-1.479396,-0.015405,0.013825,0.059812,0.668135,0.026436,0.743570,-0.028548,-0.006782,-0.174997,103.507248,231.996780,24.415615,,,,,,
1465846677.99,2.410203,-0.026013,-1.479721,-0.012111,0.070139,0.044560,0.667679,0.026010,0.743995,0.002182,-0.000116,-0.141380,103.507248,231.996780,24.415615,,,,,,
1465846678.00,2.410869,-0.025520,-1.479842,-0.031274,0.068031,0.042425,0.667191,0.025517,0.744449,-0.005997,0.008922,-0.172214,103.921761,231.779678,24.714882,,,,,,
1465846678.01,2.411765,-0.025085,-1.479963,-0.019512,0.099894,0.036915,0.666532,0.025082,0.745055,0.001025,-0.015256,-0.159438,103.921761,231.779678,24.714882,,,,,,
1465846678.02,2.413422,-0.024787,-1.480172,-0.006612,0.197574,0.036315,0.665301,0.024785,0.746164,-0.010561,-0.015889,-0.119180,103.921761,231.779678,24.714882,,,,,,
1465846678.03,2.412749,-0.025165,-1.480393,-0.008605,0.279360,0.019832,0.665797,0.025162,0.745709,0.002324,0.012298,-0.118939,104.068054,231.683365,25.000641,,,,,,
1465846678.04,2.415936,-0.024823,-1.480400,-0.028787,0.326075,0.024841,0.663423,0.024820,0.747833,0.007049,0.014731,-0.190170,104.068054,231.683365,25.000641,,,,,,
1465846678.05,2.419385,-0.024359,-1.480498,-0.026654,0.353622,0.041702,0.660846,0.024357,0.750126,0.001110,-0.000584,-0.188938,104.068054,231.683365,25.000641,,,,,,
1465846678.06,2.422956,-0.023832,-1.480654,-0.031988,0.350430,0.044910,0.658172,0.023830,0.752490,0.043335,0.005757,-0.193637,104.078316,231.586823,25.838535,,,,,,
1465846678.07,2.425731,-0.023202,-1.480735,-0.043829,0.255921,0.050813,0.656091,0.023200,0.754325,0.060187,0.005243,-0.224281,104.078316,231.586823,25.838535,,,,,,
1465846678.08,2.427990,-0.022532,-1.480886,-0.037498,0.216619,0.055324,0.654396,0.022530,0.755817,0.092522,-0.006615,-0.200168,104.078316,231.586823,25.838535,,,,,,
1465846678.09,2.429117,-0.021955,-1.481084,-0.030227,0.064790,0.052025,0.653552,0.021953,0.756563,0.128171,-0.010753,-0.193850,104.129242,231.470169,26.665306,,,,,,
1465846678.10,2.428454,-0.021324,-1.481301,-0.033643,-0.104050,0.058403,0.654062,0.021322,0.756140,0.135138,-0.015188,-0.237051,104.129242,231.470169,26.665306,,,,,,
1465846678.11,2.418245,-0.019734,-1.481785,-0.010327,-0.189048,0.058963,0.661769,0.019733,0.749448,0.135091,-0.026538,-0.157667,104.129242,231.470169,26.665306,,,,,,
1465846678.12,2.416815,-0.019497,-1.482373,0.025964,-0.116863,0.058546,0.662843,0.019496,0.748505,0.091750,-0.004038,-0.054184,-108.070786,227.388992,-85.418800,,,,,,
1465846678.13,2.416119,-0.019239,-1.482688,-0.012260,-0.065819,0.036899,0.663367,0.019238,0.748047,0.137231,0.031406,-0.159668,-108.070786,227.388992,-85.418800,,,,,,
1465846678.14,2.415212,-0.018663,-1.482886,-0.028316,-0.096668,0.060494,0.664053,0.018662,0.747453,0.112772,-0.010499,-0.236940,-108.070786,227.388992,-85.418800,,,,,,
1465846678.15,2.407537,-0.017352,-1.483449,-0.012299,-0.040468,0.071869,0.669785,0.017351,0.742352,0.093307,-0.018251,-0.152753,-108.022308,227.478134,-85.242584,,,,,,
1465846678.16,2.407208,-0.016756,-1.483743,-0.029303,-0.037236,0.057994,0.670037,0.016755,0.742139,0.130393,0.011031,-0.136639,-108.022308,227.478134,-85.242584,,,,,,
1465846678.17,2.407329,-0.016074,-1.483768,-0.056854,0.044578,0.042551,0.669954,0.016074,0.742228,0.143461,0.016534,-0.206248,-108.022308,227.478134,-85.242584,,,,,,
1465846678.18,2.408981,-0.015500,-1.483742,-0.033230,0.195357,0.036307,0.668733,0.015499,0.743341,0.129637,0.003757,-0.058694,-108.100311,227.931702,-83.921844,,,,,,
1465846678.19,2.405812,-0.015437,-1.483992,-0.033123,0.290870,0.043158,0.671086,0.015437,0.741219,0.102733,0.010305,-0.109566,-108.100311,227.931702,-83.921844,,,,,,
1465846678.20,2.409269,-0.014558,-1.483638,-0.101164,0.353582,0.030988,0.668529,0.014558,0.743544,0.182561,0.006561,-0.201628,-108.100311,227.931702,-83.921844,,,,,,
1465846678.21,2.413201,-0.013806,-1.483393,-0.060627,0.413026,0.029591,0.665606,0.013806,0.746175,0.163129,-0.012097,-0.123769,-108.091949,228.022842,-83.684708,,,,,,
1465846678.22,2.418266,-0.013278,-1.483133,-0.060442,0.535177,0.012858,0.661824,0.013277,0.749542,0.171062,0.016325,-0.014129,-108.091949,228.022842,-83.684708,,,,,,
1465846678.23,2.424277,-0.012820,-1.482756,-0.058175,0.618043,-0.004690,0.657310,0.012820,0.753511,0.183907,0.008176,-0.045763,-108.091949,228.022842,-83.684708,,,,,,
1465846678.24,2.428896,-0.012587,-1.482089,-0.085739,0.674387,-0.028489,0.653825,0.012587,0.756541,0.242355,0.023882,-0.126781,-106.349838,228.344498,-85.028915,,,,,,
1465846678.25,2.435291,-0.012068,-1.481572,-0.066697,0.625449,0.002706,0.648977,0.012068,0.760712,0.202860,-0.007124,-0.064713,-106.349838,228.344498,-85.028915,,,,,,
1465846678.26,2.440889,-0.011517,-1.481090,-0.079579,0.533094,-0.002050,0.644713,0.011517,0.764338,0.238618,0.014240,-0.088587,-106.349838,228.344498,-85.028915,,,,,,
1465846678.27,2.445420,-0.010786,-1.480539,-0.093553,0.439642,0.005973,0.641249,0.010786,0.767257,0.246844,0.008578,-0.106674,-105.502319,228.416351,-85.887444,,,,,,
1465846678.28,2.450155,-0.010123,-1.479799,-0.096644,0.477944,-0.021946,0.637613,0.010123,0.770290,0.284048,0.017816,-0.069454,-105.502319,228.416351,-85.887444,,,,,,
1465846678.29,2.454074,-0.009698,-1.479303,-0.054233,0.358960,-0.006255,0.634592,0.009698,0.772787,0.262305,0.001578,0.036219,-105.502319,228.416351,-85.887444,,,,,,
1465846678.30,2.456741,-0.009299,-1.478690,-0.077771,0.229499,-0.029949,0.632531,0.009299,0.774480,0.306602,-0.003379,-0.058217,-103.929749,228.676575,-87.103683,,,,,,
1465846678.31,2.457636,-0.008893,-1.477962,-0.071616,0.041560,-0.029829,0.631839,0.008893,0.775048,0.297238,0.007266,-0.005471,-103.929749,228.676575,-87.103683,,,,,,
1465846678.32,2.457144,-0.008602,-1.477327,-0.061116,-0.079485,-0.031188,0.632222,0.008602,0.774739,0.281153,0.011921,0.023097,-103.741173,228.750046,-87.135529,,,,,,
1465846678.33,2.455185,-0.008336,-1.476819,-0.052806,-0.233471,-0.022763,0.633740,0.008336,0.773501,0.324542,0.005901,-0.072497,-103.741173,228.750046,-87.135529,,,,,,
1465846678.34,2.452135,-0.007897,-1.476017,-0.095490,-0.325797,-0.032871,0.636099,0.007897,0.771567,0.255533,-0.009041,0.052408,-103.741173,228.750046,-87.135529,,,,,,
1465846678.35,2.448349,-0.007453,-1.475463,-0.057276,-0.388515,-0.013279,0.639018,0.007453,0.769156,0.282888,0.010263,0.045236,-103.741173,228.750046,-87.135529,,,,,,
1465846678.36,2.444276,-0.007145,-1.474855,-0.072195,-0.422445,-0.027984,0.642146,0.007145,0.766549,0.286610,-0.006367,0.020133,-104.777023,228.877396,-85.547241,,,,,,
1465846678.37,2.439334,-0.006642,-1.474098,-0.091475,-0.513750,-0.027430,0.645929,0.006642,0.763368,0.256811,-0.006947,0.022551,-104.777023,228.877396,-85.547241,,,,,,
1465846678.38,2.434334,-0.005950,-1.473211,-0.113823,-0.482985,-0.013808,0.649741,0.005950,0.760132,0.170419,-0.005920,0.125213,-104.777023,228.877396,-85.547241,,,,,,
1465846678.39,2.430834,-0.005162,-1.472490,-0.105089,-0.298256,-0.007506,0.652400,0.005162,0.757857,0.231832,0.000773,0.070314,-105.663269,228.949402,-84.254715,,,,,,
1465846678.40,2.428817,-0.004173,-1.471557,-0.149683,-0.182526,0.002368,0.653931,0.004173,0.756543,0.236511,-0.044807,0.020801,-105.663269,228.949402,-84.254715,,,,,,
1465846678.41,2.427345,-0.002813,-1.470450,-0.179435,-0.138969,-0.001128,0.655046,0.002813,0.755584,0.180540,-0.021185,0.131532,-105.663269,228.949402,-84.254715,,,,,,
1465846678.42,2.426748,-0.001363,-1.469481,-0.165525,-0.025465,0.035429,0.655499,0.001363,0.755194,0.163577,-0.023122,0.190103,-106.724167,229.358032,-81.769562,,,,,,
1465846678.43,2.427763,0.000047,-1.468632,-0.169551,0.137034,0.019504,0.654733,-0.000047,0.755860,0.223014,-0.025023,0.110107,-106.724167,229.358032,-81.769562,,,,,,
1465846678.44,2.429897,0.001863,-1.467327,-0.237578,0.238983,0.025183,0.653117,-0.001863,0.757255,0.134404,-0.030424,0.167993,-106.724167,229.358032,-81.769562,,,,,,
1465846678.45,2.433755,0.003862,-1.466034,-0.233086,0.440697,0.033503,0.650188,-0.003862,0.759764,0.095921,-0.010451,0.221437,-106.575844,229.684158,-81.044373,,,,,,
1465846678.46,2.440190,0.006108,-1.464841,-0.255163,0.711389,0.060523,0.645278,-0.006108,0.763924,0.148149,-0.003566,0.176979,-106.575844,229.684158,-81.044373,,,,,,
1465846678.47,2.448989,0.008568,-1.463368,-0.289986,0.930190,0.039956,0.638520,-0.008568,0.769558,0.077392,0.011330,0.284016,-105.971382,230.110229,-80.627335,,,,,,
1465846678.48,2.459678,0.011002,-1.462309,-0.234482,1.108428,0.081472,0.630243,-0.011002,0.776320,0.125601,-0.008926,0.272172,-105.971382,230.110229,-80.627335,,,,,,
1465846678.49,2.471279,0.013284,-1.461363,-0.255670,1.162644,0.061950,0.621177,-0.013283,0.783558,0.261895,-0.016288,0.160458,-105.971382,230.110229,-80.627335,,,,,,
1465846678.50,2.481416,0.015871,-1.459896,-0.294224,0.947181,0.039845,0.613179,-0.015871,0.789784,0.195369,-0.001585,0.229915,-105.971382,230.110229,-80.627335,,,,,,
1465846678.51,2.488618,0.018040,-1.458739,-0.220057,0.661510,0.044904,0.607453,-0.018039,0.794151,0.116470,0.055805,0.362679,-102.362862,231.192581,-82.178154,,,,,,
1465846678.52,2.493112,0.019518,-1.457975,-0.162848,0.370656,0.007401,0.603861,-0.019517,0.796851,0.142294,0.031602,0.214441,-102.362862,231.192581,-82.178154,,,,,,
1465846678.53,2.493703,0.020946,-1.455140,-0.319498,-0.018461,-0.167014,0.603373,-0.020944,0.797184,-0.727381,0.140711,0.819317,-102.362862,231.192581,-82.178154,,,,,,
1465846678.54,2.492976,0.021123,-1.453745,0.010347,-0.064509,-0.084433,0.603950,-0.021121,0.796743,-1.231177,0.049136,0.944911,-100.563820,231.980576,-82.178734,,,,,,
1465846678.55,2.493044,0.020457,-1.453304,-0.031102,0.028892,-0.063771,0.603904,-0.020456,0.796794,-1.534431,0.006464,0.895344,-100.563820,231.980576,-82.178734,,,,,,
1465846678.56,2.493367,0.021081,-1.452430,-0.076962,0.025630,-0.027605,0.603639,-0.021080,0.796979,-1.822053,0.043877,1.019107,-100.563820,231.980576,-82.178734,,,,,,
1465846678.57,2.494045,0.020173,-1.453439,0.196598,0.102767,0.058404,0.603109,-0.020172,0.797403,-1.851339,0.043975,1.075308,-101.022476,231.862350,-81.949539,,,,,,
1465846678.58,2.496400,0.019427,-1.455037,0.103073,0.271585,0.077476,0.601239,-0.019426,0.798833,-1.580594,-0.047377,0.832957,-101.022476,231.862350,-81.949539,,,,,,
1465846678.59,2.501310,0.019894,-1.456210,0.056456,0.555999,0.138449,0.597304,-0.019892,0.801768,-1.330519,-0.027639,0.840443,-101.022476,231.862350,-81.949539,,,,,,
1465846678.60,2.508721,0.019780,-1.458540,0.147150,0.796830,0.192380,0.591347,-0.019778,0.806175,-0.974388,-0.055905,0.701226,-136.860229,225.416595,-36.071079,,,,,,
1465846678.61,2.518477,0.021017,-1.460460,-0.027273,1.021897,0.235501,0.583439,-0.021016,0.811885,-0.575077,-0.080303,0.551229,-136.860229,225.416595,-36.071079,,,,,,
1465846678.63,2.543842,0.024138,-1.465046,0.005998,1.324336,0.291118,0.562621,-0.024136,0.826363,0.339601,-0.054126,0.077263,-135.297592,225.913589,-38.756874,,,,,,
1465846678.62,2.530516,0.022676,-1.462523,0.005951,1.262792,0.276602,0.573602,-0.022674,0.818820,-0.135919,-0.036774,0.418073,-135.297592,225.913589,-38.756874,,,,,,
1465846678.64,2.556172,0.026393,-1.467047,-0.087881,1.182095,0.294045,0.552357,-0.026389,0.833190,0.739055,-0.020470,-0.239699,-135.297592,225.913589,-38.756874,,,,,,
1465846678.65,2.566119,0.028277,-1.469287,-0.020046,0.912404,0.280902,0.544015,-0.028274,0.838599,1.172935,0.016479,-0.646109,-135.297592,225.913589,-38.756874,,,,,,
1465846678.66,2.572276,0.030109,-1.471067,-0.075841,0.499514,0.238729,0.538812,-0.030104,0.841888,1.457373,0.025237,-0.976501,-130.734222,227.470490,-44.835518,,,,,,
1465846678.67,2.573523,0.031732,-1.472400,-0.050813,-0.013188,0.183425,0.537735,-0.031727,0.842517,1.670014,0.036945,-1.235110,-130.734222,227.470490,-44.835518,,,,,,
1465846678.68,2.568833,0.032787,-1.473274,-0.048251,-0.634142,0.113875,0.541662,-0.032781,0.839957,1.709864,0.024083,-1.354254,-130.734222,227.470490,-44.835518,,,,,,
1465846678.69,2.557574,0.033801,-1.473080,-0.108474,-1.274098,0.015641,0.551066,-0.033794,0.833777,1.401632,0.028866,-1.116477,-129.382050,228.109131,-45.508198,,,,,,
1465846678.70,2.541997,0.034360,-1.472639,-0.050298,-1.624446,-0.009779,0.563976,-0.034353,0.825076,0.938069,0.022085,-0.705478,-129.382050,228.109131,-45.508198,,,,,,
1465846678.71,2.525141,0.034741,-1.471933,-0.093953,-1.676364,-0.041431,0.577794,-0.034734,0.815443,0.476618,-0.016490,-0.346632,-129.382050,228.109131,-45.508198,,,,,,
1465846678.72,2.509634,0.035595,-1.470901,-0.131005,-1.487377,-0.030944,0.590352,-0.035587,0.806361,-0.010167,-0.030239,0.052419,-131.120758,228.393524,-38.577644,,,,,,
1465846678.73,2.497546,0.036355,-1.469902,-0.118801,-1.096637,-0.034447,0.600040,-0.036347,0.799144,-0.440189,0.013352,0.438954,-131.120758,228.393524,-38.577644,,,,,,
1465846678.74,2.490214,0.037067,-1.469022,-0.105437,-0.606129,-0.023672,0.605867,-0.037059,0.794702,-0.755266,-0.002675,0.663977,-131.120758,228.393524,-38.577644,,,,,,
1465846678.76,2.490287,0.038325,-1.468111,-0.046793,0.368475,0.007530,0.605780,-0.038316,0.794709,-1.017355,0.046494,0.875014,-132.282043,228.394073,-34.381569,,,,,,
1465846678.75,2.487808,0.037796,-1.468412,-0.092102,-0.113541,0.003057,0.607761,-0.037787,0.793221,-0.964710,0.006461,0.807243,-132.282043,228.394073,-34.381569,,,,,,
1465846678.77,2.497291,0.038388,-1.468547,0.049465,0.793010,0.054993,0.600198,-0.038379,0.798930,-0.793572,0.031879,0.731267,-132.282043,228.394073,-34.381569,,,,,,
1465846678.78,2.505862,0.038275,-1.469287,0.030380,0.842948,0.046145,0.593331,-0.038266,0.804049,-0.409066,-0.002979,0.344007,-132.257584,228.495422,-33.797306,,,,,,
1465846678.79,2.512397,0.038642,-1.469703,0.005519,0.563677,0.058516,0.588055,-0.038632,0.807898,-0.141491,0.027127,0.185999,-132.257584,228.495422,-33.797306,,,,,,
1465846678.80,2.514936,0.038270,-1.470584,0.100846,0.148493,0.050570,0.586011,-0.038260,0.809400,0.112308,0.058692,0.033114,-132.257584,228.495422,-33.797306,,,,,,
1465846678.81,2.512857,0.037902,-1.471372,0.053427,-0.332436,0.037573,0.587700,-0.037893,0.808191,0.315284,-0.006220,-0.217874,-131.485840,228.621017,-35.894043,,,,,,
1465846678.82,2.506491,0.037915,-1.471846,0.034826,-0.738023,0.035840,0.592833,-0.037906,0.804433,0.428697,0.003085,-0.290242,-131.485840,228.621017,-35.894043,,,,,,
1465846678.83,2.496454,0.037479,-1.472393,0.072767,-1.092608,0.010426,0.600887,-0.037471,0.798455,0.476155,0.046366,-0.310464,-131.485840,228.621017,-35.894043,,,,,,
1465846678.84,2.482933,0.036992,-1.472756,0.053199,-1.434464,-0.000223,0.611639,-0.036983,0.790272,0.429789,-0.002400,-0.335514,-131.713623,228.725327,-34.361794,,,,,,
1465846678.85,2.466750,0.036608,-1.472954,0.042283,-1.672261,-0.013645,0.624356,-0.036600,0.780282,0.369464,-0.003118,-0.309808,-131.713623,228.725327,-34.361794,,,,,,
1465846678.86,2.449167,0.036162,-1.472873,0.021982,-1.769867,-0.038600,0.637989,-0.036155,0.769197,0.182843,0.005362,-0.153413,-131.713623,228.725327,-34.361794,,,,,,
1465846678.87,2.432118,0.035727,-1.472897,0.044421,-1.680730,-0.023170,0.651019,-0.035720,0.758220,0.018826,-0.016160,-0.019771,-132.701019,228.679733,-30.667648,,,,,,
1465846678.88,2.416727,0.035441,-1.472940,0.012705,-1.485369,-0.014846,0.662619,-0.035434,0.748118,-0.087088,-0.018384,0.052068,-132.701019,228.679733,-30.667648,,,,,,
1465846678.89,2.406824,0.035502,-1.473099,0.015104,-1.238010,0.003829,0.669993,-0.035494,0.741518,-0.130106,-0.005292,0.100629,-132.701019,228.679733,-30.667648,,,,,,
1465846678.90,2.395840,0.035447,-1.473297,0.012096,-1.067097,0.016592,0.678099,-0.035440,0.734116,-0.082228,-0.019477,0.048431,-134.444641,228.573608,-22.874363,,,,,,
1465846678.91,2.385258,0.035599,-1.472205,-0.150474,-1.025218,-0.124340,0.685825,-0.035591,0.726896,-0.419071,0.014503,0.281375,-134.444641,228.573608,-22.874363,,,,,,
1465846678.92,2.377500,0.035666,-1.474394,0.282615,-0.831813,0.125025,0.691442,-0.035658,0.721551,0.178080,-0.082887,-0.221368,-134.444641,228.573608,-22.874363,,,,,,
1465846678.93,2.369846,0.035947,-1.473678,-0.208907,-0.738822,-0.010169,0.696938,-0.035939,0.716230,0.088325,0.113881,-0.002073,-135.039398,228.508438,-19.817890,,,,,,
1465846678.94,2.361377,0.036377,-1.473859,0.062453,-0.832437,0.005591,0.702967,-0.036369,0.710292,0.068517,-0.050225,-0.195994,-135.039398,228.508438,-19.817890,,,,,,
1465846678.95,2.354461,0.036272,-1.474398,0.025244,-0.668044,0.079034,0.707866,-0.036264,0.705416,-0.007533,-0.003760,0.018080,-135.039398,228.508438,-19.817890,,,,,,
1465846678.96,2.348252,0.037249,-1.474074,-0.124681,-0.591373,0.025181,0.712206,-0.037240,0.700982,0.161298,-0.007651,-0.206109,-135.124054,228.765396,-15.885986,,,,,,
1465846678.97,2.341569,0.037486,-1.474154,0.015726,-0.673252,0.043930,0.716869,-0.037478,0.696200,0.003026,0.008257,-0.005236,-135.124054,228.765396,-15.885986,,,,,,
1465846678.98,2.333370,0.037607,-1.474436,-0.035492,-0.880073,-0.029336,0.722550,-0.037598,0.690296,0.127533,0.023957,-0.150242,-135.157043,228.874573,-13.910126,,,,,,
1465846678.99,2.324953,0.038319,-1.473858,-0.051504,-0.813344,0.033033,0.728314,-0.038310,0.684172,-0.182873,0.046168,0.258379,-135.157043,228.874573,-13.910126,,,,,,
1465846679.00,2.318692,0.037861,-1.474107,0.043715,-0.553069,-0.034501,0.732596,-0.037852,0.679610,-0.233100,0.061061,0.325715,-135.157043,228.874573,-13.910126,,,,,,
1465846679.01,2.315284,0.037883,-1.474254,0.026875,-0.269779,0.043539,0.734908,-0.037874,0.677109,-0.368758,0.017534,0.467194,-135.157043,228.874573,-13.910126,,,,,,
1465846679.02,2.312588,0.037229,-1.475754,0.168441,-0.322907,0.032305,0.736749,-0.037220,0.675142,0.148109,-0.013286,-0.118440,-135.393784,228.925217,-10.307915,,,,,,
1465846679.03,2.308732,0.036839,-1.475314,-0.092665,-0.669718,-0.059453,0.739357,-0.036831,0.672306,0.150902,0.010677,-0.177066,-135.393784,228.925217,-10.307915,,,,,,
1465846679.04,2.301549,0.036304,-1.474995,0.078730,-0.693160,-0.060199,0.744182,-0.036296,0.666990,-0.138667,0.049129,0.185213,-135.393784,228.925217,-10.307915,,,,,,
1465846679.05,2.296857,0.035204,-1.475472,0.078018,-0.386343,-0.046157,0.747332,-0.035197,0.663518,-0.191088,0.014078,0.212016,-135.472321,228.902954,-9.755524,,,,,,
1465846679.06,2.294989,0.035114,-1.475299,-0.007989,-0.142182,-0.012648,0.748573,-0.035106,0.662122,-0.121895,-0.032200,0.122820,-135.472321,228.902954,-9.755524,,,,,,
1465846679.07,2.299715,0.034433,-1.475910,0.073900,-0.211234,-0.005747,0.745453,-0.034426,0.665669,0.021454,-0.009169,0.020611,-135.834579,228.741211,-8.420807,,,,,,
1465846679.08,2.295092,0.034246,-1.476265,0.025521,-0.559523,0.011292,0.748527,-0.034239,0.662219,0.128456,-0.004473,-0.101093,-135.834579,228.741211,-8.420807,,,,,,
1465846679.09,2.286977,0.034111,-1.476518,0.034718,-0.876989,0.006905,0.753880,-0.034104,0.656126,0.199748,0.001893,-0.217390,-135.834579,228.741211,-8.420807,,,,,,
1465846679.10,2.277368,0.033937,-1.476734,0.020774,-0.970400,0.000026,0.760154,-0.033931,0.648856,0.176064,0.011394,-0.211005,-135.943100,228.711472,-7.417801,,,,,,
1465846679.11,2.266554,0.033729,-1.476564,-0.002484,-0.865231,-0.017688,0.767132,-0.033722,0.640603,0.075245,0.006287,-0.107888,-135.943100,228.711472,-7.417801,,,,,,
1465846679.12,2.259150,0.033516,-1.476641,0.025386,-0.702813,-0.010163,0.771859,-0.033509,0.634910,0.027335,-0.009353,-0.051460,-135.943100,228.711472,-7.417801,,,,,,
1465846679.13,2.252801,0.033410,-1.476492,-0.018144,-0.621003,-0.021364,0.775877,-0.033404,0.629999,0.072160,-0.009946,-0.095621,-122.193909,228.106232,-35.756683,,,,,,
1465846679.14,2.246282,0.033335,-1.476341,0.004137,-0.672001,-0.013571,0.779970,-0.033329,0.624929,0.080870,0.004063,-0.095998,-122.193909,228.106232,-35.756683,,,,,,
1465846679.15,2.240388,0.032904,-1.476356,0.001904,-0.763293,-0.018324,0.783651,-0.032898,0.620330,0.090479,0.008270,-0.112258,-122.193909,228.106232,-35.756683,,,,,,
1465846679.16,2.232560,0.032749,-1.476130,-0.005546,-0.778125,-0.028883,0.788486,-0.032743,0.614180,0.056744,0.016309,-0.063475,-123.264191,227.999329,-32.627907,,,,,,
1465846679.17,2.225528,0.032361,-1.476030,0.018036,-0.667683,-0.039132,0.792796,-0.032355,0.608628,0.006612,0.013282,0.000045,-123.264191,227.999329,-32.627907,,,,,,
1465846679.18,2.220224,0.031891,-1.475801,0.007655,-0.480756,-0.056281,0.796025,-0.031886,0.604423,-0.054158,0.011470,0.067788,-123.264191,227.999329,-32.627907,,,,,,
1465846679.19,2.220071,0.030994,-1.475614,0.019699,-0.233319,-0.068466,0.796140,-0.030989,0.604319,-0.102048,0.017241,0.119146,-123.264191,227.999329,-32.627907,,,,,,
1465846679.20,2.219153,0.030368,-1.475362,0.014580,-0.058140,-0.062119,0.796710,-0.030363,0.603599,-0.078692,-0.005129,0.089730,-124.349731,227.737808,-30.248524,,,,,,
1465846679.21,2.220497,0.030745,-1.475206,0.009170,-0.087922,-0.038517,0.795889,-0.030740,0.604662,-0.028722,-0.015525,0.027311,-124.349731,227.737808,-30.248524,,,,,,
1465846679.22,2.219370,0.029810,-1.475094,0.008948,-0.269479,-0.039510,0.796592,-0.029805,0.603782,-0.007758,0.011281,0.024483,-124.437943,227.687668,-30.263290,,,,,,
1465846679.23,2.215996,0.029424,-1.474920,0.012060,-0.340613,-0.042254,0.798634,-0.029420,0.601097,-0.077611,0.024278,0.118919,-124.437943,227.687668,-30.263290,,,,,,
1465846679.24,2.213669,0.028914,-1.474823,0.023988,-0.178145,-0.049647,0.800042,-0.028910,0.599247,-0.115365,0.021784,0.161938,-124.437943,227.687668,-30.263290,,,,,,
1465846679.25,2.223375,0.027364,-1.474934,0.025369,0.051286,-0.063861,0.794223,-0.027360,0.607010,-0.123141,0.019502,0.169601,-124.851822,227.517822,-29.832832,,,,,,
1465846679.26,2.234791,0.025108,-1.475109,0.056479,0.220168,-0.073409,0.787288,-0.025105,0.616074,-0.116054,0.030721,0.179611,-124.851822,227.517822,-29.832832,,,,,,
1465846679.27,2.242345,0.022769,-1.475229,0.068320,0.289255,-0.092993,0.782656,-0.022767,0.622038,-0.056887,0.026200,0.092806,-124.851822,227.517822,-29.832832,,,,,,
1465846679.28,2.249652,0.021224,-1.475161,0.062021,0.346639,-0.101876,0.778117,-0.021223,0.627761,-0.054041,0.007581,0.073395,-125.162598,226.745285,-34.106285,,,,,,
1465846679.29,2.260413,0.020416,-1.475292,0.079211,0.485731,-0.093151,0.771329,-0.020415,0.636109,-0.107129,-0.009630,0.103637,-125.162598,226.745285,-34.106285,,,,,,
1465846679.30,2.267292,0.019395,-1.475144,0.044416,0.773471,-0.085410,0.766951,-0.019393,0.641413,-0.178099,-0.019333,0.152273,-125.162598,226.745285,-34.106285,,,,,,
1465846679.31,2.277811,0.018398,-1.474874,0.043830,1.140878,-0.096230,0.760176,-0.018397,0.649457,-0.081388,-0.003942,0.053500,-124.928162,226.467484,-36.712036,,,,,,
1465846679.32,2.290310,0.017599,-1.474568,0.023694,1.253375,-0.073538,0.752010,-0.017598,0.658917,0.063710,-0.021449,-0.110653,-124.928162,226.467484,-36.712036,,,,,,
1465846679.33,2.300875,0.017162,-1.474223,0.001015,1.023991,-0.056155,0.745012,-0.017161,0.666830,0.173735,-0.028691,-0.233359,-124.928162,226.467484,-36.712036,,,,,,
1465846679.34,2.308226,0.016639,-1.473935,0.021842,0.645987,-0.056957,0.740097,-0.016638,0.672294,0.266052,0.013830,-0.259620,-124.928162,226.467484,-36.712036,,,,,,
1465846679.35,2.311980,0.016141,-1.473700,0.004371,0.301966,-0.052688,0.737574,-0.016140,0.675074,0.267645,-0.025333,-0.294123,-124.049911,226.021820,-42.048805,,,,,,
1465846679.36,2.314230,0.015894,-1.473401,0.002112,0.222291,-0.037288,0.736056,-0.015894,0.676734,0.130323,-0.010809,-0.143836,-124.049911,226.021820,-42.048805,,,,,,
1465846679.37,2.317444,0.015372,-1.473196,0.019372,0.365687,-0.060524,0.733883,-0.015371,0.679102,0.096943,0.021963,-0.097574,-123.824890,225.871796,-43.493401,,,,,,
1465846679.38,2.316986,0.013566,-1.472697,0.008957,0.532395,-0.071163,0.734213,-0.013566,0.678783,0.107919,0.028092,-0.092159,-123.824890,225.871796,-43.493401,,,,,,
1465846679.39,2.322185,0.012891,-1.472387,0.022750,0.498401,-0.067743,0.730681,-0.012890,0.682597,0.131852,-0.006870,-0.135066,-123.824890,225.871796,-43.493401,,,,,,
1465846679.40,2.325880,0.012390,-1.472052,0.009741,0.325314,-0.059219,0.728158,-0.012389,0.685297,0.094779,-0.004380,-0.091395,-124.111877,225.410431,-45.041290,,,,,,
1465846679.41,2.328361,0.011594,-1.471814,0.050135,0.240405,-0.078871,0.726462,-0.011594,0.687108,0.050836,0.035977,-0.024816,-124.111877,225.410431,-45.041290,,,,,,
1465846679.42,2.332670,0.008933,-1.471763,0.065178,0.354001,-0.074250,0.723515,-0.008933,0.690251,-0.014821,0.037391,0.019878,-124.111877,225.410431,-45.041290,,,,,,
1465846679.43,2.337276,0.008346,-1.471493,0.001417,0.480338,-0.057011,0.720332,-0.008346,0.693579,0.023717,-0.043641,-0.070212,-124.131973,225.223038,-45.914955,,,,,,
1465846679.44,2.341545,0.008304,-1.471019,-0.031752,0.390034,-0.031995,0.717365,-0.008304,0.696648,0.027066,-0.081906,-0.054955,-124.131973,225.223038,-45.914955,,,,,,
1465846679.45,2.343628,0.007900,-1.470878,0.037165,0.141567,-0.041012,0.715914,-0.007900,0.698144,0.049650,0.022610,0.017203,-124.131973,225.223038,-45.914955,,,,,,
1465846679.46,2.340483,0.006102,-1.470907,0.044348,-0.085662,-0.044905,0.718115,-0.006102,0.695898,0.084406,0.027266,-0.017354,-124.158165,224.723083,-48.235085,,,,,,
1465846679.47,2.338898,0.005467,-1.470732,0.033626,-0.173736,-0.062459,0.719220,-0.005467,0.694761,0.117313,0.014897,-0.069746,-124.158165,224.723083,-48.235085,,,,,,
1465846679.48,2.337065,0.004584,-1.470680,0.065565,-0.186476,-0.068734,0.720496,-0.004584,0.693444,0.115137,0.020896,-0.065759,-124.158165,224.723083,-48.235085,,,,,,
1465846679.49,2.334987,0.003546,-1.470563,0.060245,-0.216148,-0.088778,0.721938,-0.003546,0.691949,0.146516,0.014471,-0.103188,-124.158165,224.723083,-48.235085,,,,,,
1465846679.50,2.324582,0.001628,-1.470368,0.081511,-0.269238,-0.106521,0.729102,-0.001628,0.684403,0.174737,0.014324,-0.119614,-125.324722,224.170853,-47.785809,,,,,,
1465846679.51,2.321443,0.000094,-1.470274,0.098501,-0.331849,-0.122078,0.731248,-0.000094,0.682112,0.221877,0.013506,-0.170729,-125.324722,224.170853,-47.785809,,,,,,
1465846679.52,2.317407,-0.001455,-1.470091,0.088810,-0.426330,-0.126817,0.733994,0.001455,0.679154,0.285324,-0.004523,-0.253938,-126.569931,223.727875,-46.564190,,,,,,
1465846679.53,2.312130,-0.003064,-1.469888,0.096098,-0.568597,-0.132304,0.737565,0.003064,0.675269,0.357665,-0.011929,-0.314368,-126.569931,223.727875,-46.564190,,,,,,
1465846679.54,2.304914,-0.004646,-1.469739,0.095822,-0.776731,-0.123548,0.742414,0.004646,0.669925,0.394396,-0.013923,-0.345187,-126.569931,223.727875,-46.564190,,,,,,
1465846679.55,2.295695,-0.006077,-1.469635,0.087037,-0.971069,-0.110629,0.748553,0.006077,0.663048,0.443403,-0.021519,-0.380073,-127.576843,223.314072,-45.796364,,,,,,
1465846679.56,2.284422,-0.007346,-1.469572,0.075032,-1.181341,-0.094420,0.755973,0.007346,0.654561,0.507775,-0.027274,-0.425908,-127.576843,223.314072,-45.796364,,,,,,
1465846679.57,2.270697,-0.008382,-1.469258,0.028955,-1.445654,-0.111968,0.764879,0.008382,0.644119,0.574934,-0.037114,-0.464066,-127.576843,223.314072,-45.796364,,,,,,
1465846679.58,2.254303,-0.009465,-1.467457,-0.102098,-1.677848,-0.210701,0.775328,0.009465,0.631487,0.414262,-0.030934,-0.293719,-130.361938,222.612991,-41.128586,,,,,,
1465846679.59,2.239503,-0.010384,-1.466932,0.092836,-1.363012,-0.059201,0.784582,0.010384,0.619938,-0.320226,0.017280,0.461605,-130.361938,222.612991,-41.128586,,,,,,
1465846679.60,2.230878,-0.011431,-1.468164,0.122323,-0.688928,-0.010176,0.789890,0.011431,0.613142,-0.240269,-0.046129,0.301211,-130.361938,222.612991,-41.128586,,,,,,
1465846679.61,2.225575,-0.011515,-1.467270,-0.097762,-0.531511,-0.069928,0.793130,0.011515,0.608944,0.166663,-0.025004,-0.065364,-130.361938,222.612991,-41.128586,,,,,,
1465846679.62,2.219356,-0.011847,-1.466783,0.027695,-0.659019,-0.058358,0.796899,0.011847,0.603997,0.041816,-0.009161,0.015770,-132.906876,222.111664,-35.277580,,,,,,
1465846679.63,2.210521,-0.012431,-1.467312,0.048529,-0.924656,0.007195,0.802198,0.012430,0.596928,0.026858,-0.002512,0.120860,-132.906876,222.111664,-35.277580,,,,,,
1465846679.64,2.202786,-0.012505,-1.466620,-0.036262,-0.742826,-0.073863,0.806791,0.012505,0.590705,0.109301,0.037040,0.031350,-133.580429,221.997604,-33.401733,,,,,,
1465846679.65,2.195335,-0.012702,-1.466905,0.011560,-0.670897,0.016212,0.811168,0.012701,0.584676,0.008153,-0.120291,0.034923,-133.580429,221.997604,-33.401733,,,,,,
1465846679.66,2.189442,-0.012887,-1.466236,-0.026551,-0.613338,-0.057634,0.814597,0.012887,0.579884,0.133142,0.111640,0.093745,-133.580429,221.997604,-33.401733,,,,,,
1465846679.68,2.178031,-0.013220,-1.466575,-0.001115,-0.649552,-0.021191,0.821157,0.013220,0.570549,0.149195,0.008341,0.055779,-134.174042,221.941574,-31.330544,,,,,,
1465846679.67,2.183929,-0.012971,-1.466457,0.030943,-0.504192,0.010928,0.817780,0.012971,0.575384,-0.063752,-0.054750,0.102320,-134.174042,221.941574,-31.330544,,,,,,
1465846679.69,2.170041,-0.013032,-1.465539,-0.102435,-0.814031,-0.038356,0.825692,0.013031,0.563971,0.130744,-0.046417,-0.059210,-134.174042,221.941574,-31.330544,,,,,,
1465846679.70,2.162782,-0.013370,-1.465681,0.062708,-0.698427,-0.020821,0.829760,0.013370,0.557960,-0.061068,0.022107,0.202217,-135.155350,221.826981,-27.715767,,,,,,
1465846679.71,2.161136,-0.012856,-1.464734,-0.141812,0.074673,-0.028002,0.830683,0.012856,0.556598,-0.093348,-0.086250,0.027936,-135.155350,221.826981,-27.715767,,,,,,
1465846679.72,2.162669,-0.013341,-1.464670,0.054175,0.135098,-0.028185,0.829823,0.013340,0.557867,0.107494,0.062053,0.176005,-135.155350,221.826981,-27.715767,,,,,,
1465846679.73,2.162232,-0.013573,-1.464606,0.010119,-0.191904,-0.030436,0.830064,0.013573,0.557502,0.079665,0.068810,0.093194,-135.464142,221.806290,-26.339725,,,,,,
1465846679.74,2.155754,-0.013509,-1.464059,-0.085326,-0.735502,-0.026058,0.833660,0.013509,0.552114,0.167088,-0.117803,-0.115239,-135.464142,221.806290,-26.339725,,,,,,
1465846679.75,2.146306,-0.013747,-1.463644,0.013387,-1.000967,-0.037068,0.838836,0.013747,0.544211,0.147416,0.062990,0.077585,-135.464142,221.806290,-26.339725,,,,,,
1465846679.76,2.138972,-0.013882,-1.463480,-0.019135,-0.600674,-0.031095,0.842803,0.013881,0.538043,-0.163146,-0.032665,0.151761,-136.137543,221.634354,-24.230751,,,,,,
1465846679.77,2.140791,-0.014026,-1.462867,-0.036704,-0.217260,-0.059064,0.841821,0.014025,0.539574,-0.390878,0.052777,0.316016,-136.137543,221.634354,-24.230751,,,,,,
1465846679.78,2.140236,-0.014412,-1.462584,0.030521,-0.062335,-0.036550,0.842116,0.014412,0.539104,-0.402587,-0.071114,0.197697,-136.137543,221.634354,-24.230751,,,,,,
1465846679.79,2.139722,-0.014566,-1.462677,-0.008875,-0.029458,-0.015507,0.842391,0.014565,0.538670,-0.169280,0.058280,0.174969,-136.414185,221.557037,-23.366600,,,,,,
1465846679.80,2.138957,-0.014743,-1.462831,0.043148,-0.111307,0.008476,0.842800,0.014742,0.538024,-0.032086,-0.069353,-0.034972,-136.414185,221.557037,-23.366600,,,,,,
1465846679.81,2.138358,-0.014612,-1.462915,-0.014271,-0.057114,0.003821,0.843125,0.014612,0.537520,0.230362,-0.006875,-0.070723,-136.414185,221.557037,-23.366600,,,,,,
1465846679.83,2.129167,-0.014699,-1.462512,-0.013933,-0.711056,-0.038913,0.848028,0.014698,0.529747,0.008783,-0.014988,-0.007653,-136.574402,221.484848,-23.113396,,,,,,
1465846679.82,2.135388,-0.014609,-1.462820,-0.012538,-0.388372,-0.003680,0.844717,0.014608,0.535014,0.208887,0.001322,-0.088557,-136.574402,221.484848,-23.113396,,,,,,
1465846679.84,2.122195,-0.014929,-1.462163,-0.033134,-0.722752,-0.028215,0.851698,0.014929,0.523821,-0.216078,0.031946,0.167357,-136.574402,221.484848,-23.113396,,,,,,
1465846679.85,2.118643,-0.015134,-1.461985,0.013281,-0.200401,-0.019735,0.853550,0.015133,0.520790,-0.247853,-0.000866,0.183860,-136.574402,221.484848,-23.113396,,,,,,
1465846679.86,2.121246,-0.015428,-1.462105,0.021470,0.393131,-0.019192,0.852188,0.015428,0.523008,-0.100205,-0.006883,0.080462,-137.209625,221.368027,-20.299179,,,,,,
1465846679.87,2.126904,-0.015483,-1.462051,-0.008132,0.586350,-0.004466,0.849214,0.015483,0.527821,0.168806,-0.020640,-0.061436,-137.209625,221.368027,-20.299179,,,,,,
1465846679.88,2.130811,-0.015576,-1.461957,0.003222,0.283760,-0.013202,0.847145,0.015575,0.531134,0.345772,-0.024639,-0.144034,-137.095276,221.326950,-21.485191,,,,,,
1465846679.89,2.130162,-0.015565,-1.461833,-0.020774,-0.164323,-0.005093,0.847489,0.015565,0.530585,0.424590,0.005431,-0.124045,-137.095276,221.326950,-21.485191,,,,,,
1465846679.90,2.127268,-0.015487,-1.461685,-0.012427,-0.288579,0.003145,0.849022,0.015486,0.528130,0.455696,-0.013258,-0.107659,-137.095276,221.326950,-21.485191,,,,,,
1465846679.91,2.126419,-0.015428,-1.461434,-0.028012,-0.008208,-0.015660,0.849471,0.015427,0.527410,0.513444,0.001937,-0.084478,-100.755722,224.161469,-10.332058,,,,,,
1465846679.93,2.127143,-0.016426,-1.459116,-0.038532,0.029082,-0.056353,0.849075,0.016425,0.528017,-0.152985,0.087900,0.286879,-100.755722,224.161469,-10.332058,,,,,,
1465846679.92,2.125753,-0.016155,-1.460285,-0.083259,-0.138393,-0.156470,0.849812,0.016154,0.526838,-0.033040,-0.012904,0.062304,-100.755722,224.161469,-10.332058,,,,,,
1465846679.94,2.131431,-0.017553,-1.459803,0.133540,0.534438,-0.067867,0.846787,0.017552,0.531642,0.062881,-0.059209,0.012654,-101.271950,223.960922,-9.608353,,,,,,
1465846679.95,2.137245,-0.017817,-1.458892,-0.127290,0.550507,-0.072485,0.843678,0.017816,0.536554,0.089916,-0.026101,-0.029336,-101.271950,223.960922,-9.608353,,,,,,
1465846679.96,2.140091,-0.017869,-1.458205,0.014837,0.154317,-0.045376,0.842147,0.017868,0.538952,0.027329,0.038453,0.062138,-101.271950,223.960922,-9.608353,,,,,,
1465846679.98,2.138581,-0.018266,-1.458321,-0.054723,-0.095228,-0.023656,0.842954,0.018265,0.537676,0.199359,-0.029114,-0.015199,-101.459503,223.823868,-10.755390,,,,,,
1465846679.97,2.139589,-0.018325,-1.458743,0.051719,-0.087904,-0.003371,0.842410,0.018324,0.538525,0.130139,-0.007444,0.028614,-101.459503,223.823868,-10.755390,,,,,,
1465846679.99,2.137700,-0.018557,-1.457922,-0.002492,-0.091992,-0.051300,0.843423,0.018556,0.536930,0.106864,0.018110,0.085522,-101.459503,223.823868,-10.755390,,,,,,
1465846680.00,2.136820,-0.018979,-1.457757,0.007086,-0.080344,-0.041783,0.843888,0.018978,0.536183,0.066237,0.022648,0.109431,-101.459503,223.823868,-10.755390,,,,,,
1465846680.01,2.136427,-0.019418,-1.457625,0.013552,-0.021942,-0.044272,0.844091,0.019417,0.535848,0.092402,-0.009835,0.061809,-101.711136,223.712006,-10.705624,,,,,,
1465846680.02,2.136718,-0.019763,-1.457366,-0.008728,0.042836,-0.043636,0.843930,0.019762,0.536089,0.114429,-0.017656,0.070189,-101.711136,223.712006,-10.705624,,,,,,
1465846680.03,2.136734,-0.020168,-1.457005,-0.005599,-0.020853,-0.050684,0.843915,0.020166,0.536098,0.060779,0.007101,0.086643,-101.922867,223.619568,-10.622841,,,,,,
1465846680.04,2.136393,-0.020523,-1.456978,0.022034,-0.025176,-0.028276,0.844091,0.020521,0.535806,0.098795,-0.008039,0.104498,-101.922867,223.619568,-10.622841,,,,,,
1465846680.05,2.136749,-0.020908,-1.456850,0.002991,0.047081,-0.044715,0.843894,0.020906,0.536103,0.155664,-0.013673,0.087325,-101.922867,223.619568,-10.622841,,,,,,
1465846680.06,2.136722,-0.021331,-1.456559,-0.001343,-0.022979,-0.050667,0.843901,0.021329,0.536075,0.115480,-0.014371,0.096600,-102.293472,223.447281,-10.686291,,,,,,
1465846680.07,2.136098,-0.021858,-1.456360,0.013524,-0.063346,-0.053590,0.844225,0.021856,0.535543,0.108884,0.003763,0.117060,-102.293472,223.447281,-10.686291,,,,,,
1465846680.08,2.135809,-0.022367,-1.456147,0.006132,-0.022979,-0.059173,0.844370,0.022365,0.535293,0.123556,-0.005992,0.102067,-102.293472,223.447281,-10.686291,,,,,,
1465846680.09,2.135473,-0.022799,-1.455694,-0.022638,-0.035715,-0.055929,0.844542,0.022797,0.535004,0.033983,0.025848,0.121933,-102.538528,223.337143,-10.639839,,,,,,
1465846680.10,2.136074,-0.023035,-1.455529,0.011548,0.109641,-0.022744,0.844216,0.023033,0.535509,0.081291,0.006798,0.166762,-102.538528,223.337143,-10.639839,,,,,,
1465846680.11,2.138037,-0.023432,-1.455321,-0.007446,0.207404,-0.047858,0.843155,0.023429,0.537159,0.086975,-0.006111,0.141903,-102.538528,223.337143,-10.639839,,,,,,
1465846680.13,2.142087,-0.024045,-1.454751,0.010652,0.215872,-0.041507,0.840961,0.024043,0.540562,0.115979,0.005544,0.196849,-102.938805,223.143799,-10.829346,,,,,,
1465846680.12,2.140019,-0.023651,-1.454934,-0.019189,0.194648,-0.040339,0.842085,0.023649,0.538827,0.090777,-0.009687,0.156074,-102.938805,223.143799,-10.829346,,,,,,
1465846680.14,2.143953,-0.024498,-1.454573,0.005294,0.171308,-0.051877,0.839941,0.024495,0.542125,0.104456,-0.035238,0.160146,-102.938805,223.143799,-10.829346,,,,,,
1465846680.15,2.145506,-0.024892,-1.454209,-0.006443,0.151140,-0.051762,0.839090,0.024890,0.543423,0.113638,0.011411,0.192051,-103.078125,223.060562,-11.211868,,,,,,
1465846680.16,2.146533,-0.025469,-1.454075,0.026486,0.081059,-0.056612,0.838520,0.025467,0.544276,0.059506,0.005310,0.198552,-103.078125,223.060562,-11.211868,,,,,,
1465846680.17,2.147299,-0.025910,-1.453939,0.008365,0.091639,-0.039665,0.838093,0.025907,0.544912,0.067211,-0.001920,0.204020,-103.078125,223.060562,-11.211868,,,,,,
1465846680.18,2.148658,-0.026456,-1.453684,0.007415,0.135256,-0.069744,0.837339,0.026453,0.546043,0.082949,0.005316,0.220284,-103.465759,222.849533,-11.821812,,,,,,
1465846680.19,2.149542,-0.026994,-1.453510,0.019010,0.077851,-0.047019,0.836844,0.026990,0.546775,0.007028,-0.003278,0.234017,-103.465759,222.849533,-11.821812,,,,,,
1465846680.20,2.150712,-0.027563,-1.453410,0.023356,0.126727,-0.060095,0.836191,0.027559,0.547745,0.061941,-0.018587,0.247055,-103.465759,222.849533,-11.821812,,,,,,
1465846680.21,2.151564,-0.028193,-1.453065,-0.000124,0.068363,-0.068268,0.835709,0.028189,0.548448,-0.026261,-0.000311,0.237578,-103.693481,222.728455,-12.104778,,,,,,
1465846680.22,2.152876,-0.028701,-1.452985,0.032961,0.154311,-0.053872,0.834977,0.028697,0.549536,0.037933,-0.027629,0.291742,-103.693481,222.728455,-12.104778,,,,,,
1465846680.23,2.154071,-0.029472,-1.452764,0.014822,0.105510,-0.065293,0.834301,0.029467,0.550521,-0.061230,0.026059,0.273957,-103.693481,222.728455,-12.104778,,,,,,
1465846680.24,2.155730,-0.030142,-1.452799,0.050063,0.187254,-0.066835,0.833370,0.030137,0.551893,0.002964,-0.044481,0.306276,-104.189720,222.461441,-12.737301,,,,,,
1465846680.25,2.157647,-0.031014,-1.452605,0.022400,0.191536,-0.074340,0.832288,0.031009,0.553475,-0.061414,-0.016742,0.285301,-104.189720,222.461441,-12.737301,,,,,,
1465846680.26,2.159971,-0.031734,-1.452273,0.016088,0.232981,-0.086315,0.830981,0.031729,0.555396,-0.032870,0.031931,0.333368,-104.189720,222.461441,-12.737301,,,,,,
1465846680.27,2.161946,-0.032610,-1.452398,0.069222,0.202075,-0.054135,0.829859,0.032604,0.557020,-0.100199,-0.034344,0.332110,-104.448677,222.308838,-13.269699,,,,,,
1465846680.28,2.164070,-0.033495,-1.452207,0.019255,0.200084,-0.093557,0.828650,0.033489,0.558765,-0.081488,-0.007381,0.324704,-104.448677,222.308838,-13.269699,,,,,,
1465846680.29,2.166286,-0.034300,-1.452114,0.050134,0.240350,-0.069296,0.827387,0.034293,0.560585,-0.107813,-0.008887,0.379570,-104.448677,222.308838,-13.269699,,,,,,
1465846680.30,2.168384,-0.035426,-1.452239,0.074592,0.188356,-0.085977,0.826177,0.035418,0.562297,-0.160619,-0.010852,0.356923,-104.995773,221.974716,-14.489250,,,,,,
1465846680.31,2.170102,-0.036397,-1.452280,0.051152,0.180927,-0.082761,0.825181,0.036388,0.563695,-0.164368,-0.023495,0.335887,-104.995773,221.974716,-14.489250,,,,,,
1465846680.32,2.172241,-0.037553,-1.452406,0.093792,0.215954,-0.086131,0.823938,0.037544,0.565435,-0.201227,0.000710,0.417215,-104.995773,221.974716,-14.489250,,,,,,
1465846680.33,2.173946,-0.039037,-1.453060,0.143765,0.160715,-0.085735,0.822926,0.039027,0.566807,-0.257679,-0.030101,0.386318,-105.303085,221.782684,-15.183052,,,,,,
1465846680.34,2.175106,-0.040551,-1.453374,0.099029,0.099235,-0.115198,0.822218,0.040540,0.567727,-0.244719,-0.035902,0.289649,-105.303085,221.782684,-15.183052,,,,,,
1465846680.35,2.175623,-0.042061,-1.453819,0.139373,0.049237,-0.088233,0.821873,0.042049,0.568116,-0.363011,-0.009837,0.302031,-105.303085,221.782684,-15.183052,,,,,,
1465846680.36,2.176317,-0.043651,-1.454564,0.146868,0.081090,-0.089490,0.821423,0.043637,0.568648,-0.419354,0.000736,0.297044,-106.055252,221.309891,-16.764519,,,,,,
1465846680.37,2.177792,-0.044954,-1.455145,0.113960,0.188299,-0.072100,0.820535,0.044938,0.569826,-0.485208,0.008650,0.220915,-106.055252,221.309891,-16.764519,,,,,,
1465846680.38,2.181313,-0.046067,-1.455678,0.106759,0.418664,-0.055456,0.818483,0.046050,0.572683,-0.571489,0.025223,0.242777,-106.055252,221.309891,-16.764519,,,,,,
1465846680.39,2.187956,-0.047028,-1.456311,0.108196,0.745645,-0.038345,0.814624,0.047010,0.578081,-0.610995,0.033282,0.231031,-106.375969,221.090469,-17.606396,,,,,,
1465846680.40,2.197496,-0.047860,-1.456958,0.091499,1.032311,-0.029515,0.809040,0.047842,0.585804,-0.609989,0.009302,0.117398,-106.375969,221.090469,-17.606396,,,,,,
1465846680.41,2.209945,-0.048381,-1.457398,0.061996,1.316825,-0.007911,0.801665,0.048362,0.595815,-0.620497,0.008797,0.081355,-106.375969,221.090469,-17.606396,,,,,,
1465846680.42,2.225104,-0.048674,-1.457891,0.056964,1.589640,0.015920,0.792530,0.048655,0.607890,-0.647266,0.013143,0.064275,-106.063988,220.858719,-21.878922,,,,,,
1465846680.43,2.242706,-0.048763,-1.458472,0.044430,1.807275,0.029444,0.781704,0.048744,0.621742,-0.582027,-0.012337,-0.033714,-106.063988,220.858719,-21.878922,,,,,,
1465846680.44,2.261829,-0.048539,-1.458797,0.000936,1.953794,0.040191,0.769681,0.048520,0.636583,-0.571698,-0.024594,-0.084016,-106.063988,220.858719,-21.878922,,,,,,
1465846680.45,2.282304,-0.048227,-1.459256,0.020231,2.093878,0.062750,0.756498,0.048208,0.652217,-0.582639,-0.039541,-0.084254,-106.063988,220.858719,-21.878922,,,,,,
1465846680.46,2.304365,-0.047913,-1.459847,0.023599,2.239331,0.066099,0.741937,0.047895,0.668757,-0.532724,-0.056074,-0.152094,-103.908592,220.958267,-29.787273,,,,,,
1465846680.47,2.327526,-0.047619,-1.460238,0.000345,2.329675,0.036769,0.726261,0.047601,0.685769,-0.393116,-0.074762,-0.285088,-103.908592,220.958267,-29.787273,,,,,,
1465846680.48,2.350391,-0.047420,-1.460488,0.010927,2.267041,0.030785,0.710399,0.047402,0.702201,-0.397732,-0.059441,-0.290549,-102.207664,221.062164,-34.524467,,,,,,
1465846680.49,2.372387,-0.047402,-1.460917,0.034230,2.182065,0.038793,0.694784,0.047385,0.717656,-0.455312,-0.019675,-0.259831,-102.207664,221.062164,-34.524467,,,,,,
1465846680.50,2.394369,-0.047255,-1.461510,0.025720,2.216000,0.055602,0.678846,0.047238,0.732760,-0.406492,-0.019345,-0.342455,-102.207664,221.062164,-34.524467,,,,,,
1465846680.51,2.416884,-0.046965,-1.462175,0.020429,2.266925,0.071245,0.662186,0.046948,0.747867,-0.276414,0.003406,-0.499485,-100.414146,221.113953,-39.146435,,,,,,
1465846680.52,2.439488,-0.046500,-1.462553,-0.020023,2.247877,0.055357,0.645128,0.046483,0.762659,-0.222948,-0.027654,-0.487345,-100.414146,221.113953,-39.146435,,,,,,
1465846680.53,2.461221,-0.045937,-1.462910,-0.018027,2.165014,0.070781,0.628418,0.045921,0.776519,-0.291214,-0.019585,-0.455779,-100.414146,221.113953,-39.146435,,,,,,
1465846680.54,2.483055,-0.045386,-1.463300,-0.022232,2.194770,0.062074,0.611331,0.045370,0.790073,-0.265063,-0.026632,-0.427555,-95.994637,221.346191,-47.934574,,,,,,
1465846680.56,2.530749,-0.043655,-1.464475,-0.058198,2.449504,0.103019,0.573012,0.043642,0.818384,0.117799,-0.000658,-0.628549,-95.994637,221.346191,-47.934574,,,,,,
1465846680.55,2.506378,-0.044582,-1.463954,-0.023144,2.385775,0.104518,0.592761,0.044567,0.804145,-0.115817,-0.035045,-0.496970,-95.994637,221.346191,-47.934574,,,,,,
1465846680.57,2.553971,-0.042512,-1.464803,-0.079685,2.269055,0.087098,0.553882,0.042499,0.831510,0.254239,-0.011981,-0.627118,-93.366379,221.524658,-52.118843,,,,,,
1465846680.58,2.574914,-0.041487,-1.465068,-0.068223,2.037632,0.068336,0.536371,0.041475,0.842963,0.285666,0.004240,-0.536429,-93.366379,221.524658,-52.118843,,,,,,
1465846680.59,2.593793,-0.040698,-1.464922,-0.076886,1.857241,0.029010,0.520379,0.040686,0.852966,0.121894,-0.002936,-0.429382,-93.366379,221.524658,-52.118843,,,,,,
1465846680.60,2.611834,-0.040179,-1.464767,-0.044986,1.786149,0.006070,0.504917,0.040168,0.862233,-0.092182,-0.011634,-0.373936,-87.825630,221.943771,-59.451241,,,,,,
1465846680.61,2.629401,-0.039778,-1.464775,-0.030170,1.741498,0.023396,0.489701,0.039767,0.870983,-0.340226,-0.027072,-0.370541,-87.825630,221.943771,-59.451241,,,,,,
1465846680.62,2.646408,-0.039450,-1.465230,0.002675,1.702040,0.080092,0.474825,0.039440,0.879196,-0.490190,-0.040432,-0.458206,-85.582138,222.026001,-62.345680,,,,,,
1465846680.63,2.666104,-0.038549,-1.467261,0.012404,2.087007,0.245870,0.457433,0.038540,0.888409,-0.093343,-0.038906,-0.531689,-85.582138,222.026001,-62.345680,,,,,,
1465846680.65,2.698901,-0.036749,-1.468737,-0.004384,1.182796,0.092921,0.428084,0.036741,0.902992,0.347657,-0.047239,-0.432792,-85.582138,222.026001,-62.345680,,,,,,
1465846680.64,2.685518,-0.037516,-1.468064,-0.079176,1.810382,0.080395,0.440117,0.037507,0.897157,0.467659,0.058242,-0.667649,-85.582138,222.026001,-62.345680,,,,,,
1465846680.66,2.707259,-0.036986,-1.469600,0.053713,0.753901,0.058413,0.420518,0.036977,0.906530,0.353713,-0.019323,-0.471319,-79.952225,222.489227,-67.919205,,,,,,
1465846680.67,2.713801,-0.036523,-1.470054,-0.039077,0.647732,0.071760,0.414586,0.036515,0.909277,0.202464,-0.026704,-0.510840,-79.952225,222.489227,-67.919205,,,,,,
1465846680.68,2.721336,-0.035978,-1.470910,-0.003824,0.805811,0.111253,0.407731,0.035970,0.912393,0.104842,-0.051153,-0.508142,-79.952225,222.489227,-67.919205,,,,,,
1465846680.69,2.730616,-0.035239,-1.471967,-0.040918,0.968242,0.126164,0.399257,0.035231,0.916162,0.178655,-0.040877,-0.512857,-78.640694,222.567413,-69.182510,,,,,,
1465846680.71,2.749139,-0.033597,-1.473438,-0.028235,0.821830,0.082388,0.382241,0.033590,0.923452,0.354133,-0.025580,-0.415746,-78.640694,222.567413,-69.182510,,,,,,
1465846680.70,2.740470,-0.034247,-1.472768,-0.057903,0.983159,0.110087,0.390224,0.034240,0.920083,0.297459,-0.024337,-0.466638,-78.640694,222.567413,-69.182510,,,,,,
1465846680.72,2.756667,-0.032948,-1.473993,-0.040022,0.737994,0.068000,0.375287,0.032942,0.926323,0.367694,-0.023375,-0.382744,-75.193359,222.989777,-71.612511,,,,,,
1465846680.74,2.771655,-0.031603,-1.474899,-0.060201,0.788953,0.074047,0.361377,0.031597,0.931884,0.366407,-0.015606,-0.410263,-75.193359,222.989777,-71.612511,,,,,,
1465846680.73,2.763905,-0.032365,-1.474459,-0.038954,0.741179,0.067981,0.368579,0.032359,0.929033,0.357984,-0.018779,-0.423372,-75.193359,222.989777,-71.612511,,,,,,
1465846680.75,2.779525,-0.030700,-1.475392,-0.065549,0.773023,0.076270,0.354041,0.030696,0.934726,0.399194,-0.016047,-0.400989,-73.812485,223.149338,-72.545975,,,,,,
1465846680.76,2.786734,-0.029730,-1.475853,-0.081601,0.706140,0.075609,0.347305,0.029726,0.937281,0.452027,-0.007708,-0.401774,-73.812485,223.149338,-72.545975,,,,,,
1465846680.77,2.792818,-0.028704,-1.476277,-0.080690,0.581912,0.075325,0.341606,0.028700,0.939405,0.476616,-0.017210,-0.350904,-72.341721,223.345566,-73.418442,,,,,,
1465846680.78,2.797729,-0.027840,-1.476699,-0.059535,0.455573,0.066558,0.336997,0.027836,0.941094,0.512155,0.003520,-0.317986,-72.341721,223.345566,-73.418442,,,,,,
1465846680.79,2.801355,-0.026910,-1.476962,-0.085222,0.327146,0.053500,0.333591,0.026907,0.942334,0.538663,-0.003561,-0.323651,-72.341721,223.345566,-73.418442,,,,,,
1465846680.80,2.803699,-0.025854,-1.477293,-0.088589,0.211373,0.068061,0.331390,0.025851,0.943140,0.533768,-0.023456,-0.306863,-70.105148,223.766388,-74.301430,,,,,,
1465846680.81,2.804555,-0.024885,-1.477695,-0.080289,0.036174,0.068103,0.330590,0.024883,0.943446,0.574408,0.001912,-0.307399,-70.105148,223.766388,-74.301430,,,,,,
1465846680.82,2.803337,-0.023588,-1.478011,-0.117831,-0.173003,0.076829,0.331749,0.023586,0.943073,0.583274,-0.011608,-0.307910,-70.105148,223.766388,-74.301430,,,,,,
1465846680.83,2.799995,-0.022343,-1.478374,-0.098931,-0.384311,0.078173,0.334909,0.022341,0.941985,0.610251,-0.014987,-0.273940,-69.560982,223.985260,-74.153221,,,,,,
1465846680.84,2.794945,-0.021089,-1.478684,-0.116136,-0.544591,0.063194,0.339672,0.021088,0.940308,0.634861,-0.020767,-0.222870,-69.560982,223.985260,-74.153221,,,,,,
1465846680.85,2.788298,-0.019760,-1.478920,-0.114219,-0.703880,0.070582,0.345923,0.019758,0.938055,0.632363,-0.012404,-0.172475,-69.560982,223.985260,-74.153221,,,,,,
1465846680.86,2.779887,-0.018427,-1.479247,-0.112344,-0.891846,0.081342,0.353810,0.018426,0.935136,0.634028,-0.009362,-0.147508,-112.778488,229.899277,-97.013512,,,,,,
1465846680.87,2.769901,-0.016925,-1.479458,-0.138045,-1.033012,0.067300,0.363140,0.016924,0.931581,0.681095,-0.004458,-0.162233,-112.778488,229.899277,-97.013512,,,,,,
1465846680.88,2.758499,-0.015478,-1.479633,-0.119065,-1.172132,0.073514,0.373747,0.015477,0.927401,0.645250,-0.001149,-0.043216,-112.778488,229.899277,-97.013512,,,,,,
1465846680.89,2.746024,-0.014216,-1.480100,-0.100034,-1.253945,0.090012,0.385294,0.014216,0.922684,0.600241,-0.016428,-0.001893,-114.190903,230.305817,-94.360786,,,,,,
1465846680.90,2.732985,-0.012853,-1.480056,-0.133035,-1.327058,0.041473,0.397299,0.012853,0.917599,0.676950,0.034892,-0.016018,-114.190903,230.305817,-94.360786,,,,,,
1465846680.91,2.719824,-0.011477,-1.479984,-0.121321,-1.309042,0.052016,0.409348,0.011477,0.912306,0.601714,-0.004366,0.059816,-114.190903,230.305817,-94.360786,,,,,,
1465846680.92,2.706931,-0.010214,-1.480071,-0.114923,-1.284653,0.062514,0.421081,0.010214,0.906965,0.588684,-0.026785,0.075151,-118.145325,231.045166,-87.430511,,,,,,
1465846680.93,2.694299,-0.008753,-1.479706,-0.156305,-1.250517,0.012230,0.432511,0.008752,0.901586,0.640381,0.002997,0.042963,-118.145325,231.045166,-87.430511,,,,,,
1465846680.94,2.682350,-0.007619,-1.479025,-0.118874,-1.161271,-0.014904,0.443257,0.007619,0.896362,0.585521,0.020503,0.179855,-118.145325,231.045166,-87.430511,,,,,,
1465846680.95,2.671769,-0.006860,-1.478388,-0.095265,-1.028531,-0.025293,0.452718,0.006860,0.891627,0.552241,0.009894,0.246892,-120.123962,231.373398,-83.790619,,,,,,
1465846680.96,2.662221,-0.005798,-1.477522,-0.144128,-0.942492,-0.029074,0.461214,0.005798,0.887270,0.583097,-0.022537,0.173048,-120.123962,231.373398,-83.790619,,,,,,
1465846680.97,2.652508,-0.004783,-1.476481,-0.134571,-0.988110,-0.044746,0.469813,0.004783,0.882753,0.607763,-0.012214,0.186674,-120.123962,231.373398,-83.790619,,,,,,
1465846680.98,2.642442,-0.003965,-1.475631,-0.104792,-1.008311,-0.040331,0.478676,0.003965,0.877983,0.525047,-0.000334,0.308465,-123.748573,231.644226,-77.534073,,,,,,
1465846680.99,2.632323,-0.003314,-1.474763,-0.101592,-1.015725,-0.047733,0.487537,0.003314,0.873096,0.540997,0.010022,0.309536,-123.748573,231.644226,-77.534073,,,,,,
1465846681.00,2.621997,-0.002533,-1.473701,-0.125037,-1.039061,-0.051868,0.496527,0.002533,0.868017,0.557229,-0.001252,0.260095,-123.748573,231.644226,-77.534073,,,,,,
1465846681.01,2.611549,-0.001706,-1.472518,-0.132484,-1.047528,-0.060338,0.505570,0.001706,0.862784,0.519790,-0.016720,0.317667,-125.470520,231.704361,-74.528679,,,,,,
1465846681.02,2.601413,-0.001011,-1.471446,-0.104747,-0.999770,-0.057416,0.514290,0.001011,0.857616,0.432426,0.004070,0.424992,-125.470520,231.704361,-74.528679,,,,,,
1465846681.03,2.591844,-0.000611,-1.470417,-0.085479,-0.943460,-0.073717,0.522473,0.000611,0.852656,0.436756,0.013122,0.427129,-125.470520,231.704361,-74.528679,,,,,,
1465846681.04,2.582355,-0.000261,-1.469145,-0.100362,-0.960380,-0.095979,0.530540,0.000261,0.847660,0.457146,-0.002214,0.410320,-128.915771,231.724426,-68.328613,,,,,,
1465846681.05,2.572554,-0.000086,-1.467743,-0.078001,-0.974168,-0.105450,0.538823,0.000086,0.842419,0.397029,0.007238,0.458713,-128.915771,231.724426,-68.328613,,,,,,
1465846681.06,2.562662,-0.000580,-1.466593,-0.007709,-0.991136,-0.125498,0.547129,0.000580,0.837048,0.351919,0.029068,0.543689,-128.915771,231.724426,-68.328613,,,,,,
1465846681.07,2.553137,-0.001312,-1.465665,0.015773,-0.949729,-0.128928,0.555077,0.001312,0.831798,0.298744,0.026917,0.542485,-128.915771,231.724426,-68.328613,,,,,,
1465846681.09,2.531918,-0.002717,-1.462388,-0.019445,-1.083407,-0.168572,0.572599,0.002717,0.819831,0.033572,-0.012330,0.613702,-132.468719,231.281021,-62.812527,,,,,,
1465846681.08,2.542771,-0.002106,-1.464047,-0.048148,-1.074852,-0.185685,0.563668,0.002106,0.825999,0.333488,-0.016144,0.451116,-132.468719,231.281021,-62.812527,,,,,,
1465846681.10,2.521435,-0.004064,-1.461307,0.063633,-1.053730,-0.164417,0.581159,0.004064,0.813780,-0.124524,0.028986,0.687196,-132.468719,231.281021,-62.812527,,,,,,
1465846681.11,2.510933,-0.005312,-1.460882,0.083711,-1.049710,-0.085653,0.589669,0.005312,0.807627,-0.211633,0.020857,0.662099,-134.578674,230.856018,-59.819466,,,,,,
1465846681.12,2.503083,-0.005482,-1.463305,0.214382,-0.389814,0.470239,0.595990,0.005482,0.802973,0.044146,0.002300,0.427877,-134.578674,230.856018,-59.819466,,,,,,
1465846681.13,2.494324,-0.008234,-1.464534,0.131852,-1.496728,-0.477712,0.602989,0.008234,0.797707,2.571831,-0.071680,-0.425835,-134.578674,230.856018,-59.819466,,,,,,
1465846681.14,2.449386,-0.006640,-1.451971,-1.063648,-4.997508,-0.619810,0.638223,0.006640,0.769823,1.177634,-0.395632,-0.452455,-137.103638,230.319519,-56.033909,,,,,,
1465846681.15,2.417045,-0.011899,-1.460095,1.753706,-2.434340,0.406892,0.662750,0.011898,0.748746,-2.167969,0.938679,2.536730,-137.103638,230.319519,-56.033909,,,,,,
1465846681.16,2.405077,-0.015329,-1.463531,-0.605057,-1.028009,-0.130119,0.671632,0.015328,0.740727,0.889800,-0.631707,-0.242344,-142.345078,229.513412,-45.230129,,,,,,
1465846681.17,2.390692,-0.007292,-1.452568,-0.878375,-1.810099,-0.242576,0.682279,0.007292,0.731055,0.792544,-0.358259,-0.225440,-142.345078,229.513412,-45.230129,,,,,,
1465846681.18,2.360243,-0.015601,-1.460875,1.499769,-3.359238,0.097362,0.704152,0.015600,0.709878,-0.201085,0.499735,1.241676,-142.345078,229.513412,-45.230129,,,,,,
1465846681.19,2.321202,-0.014978,-1.460732,-0.666480,-4.022501,-0.025179,0.731330,0.014978,0.681859,0.366250,-0.109720,0.565868,-144.031982,229.518402,-39.501644,,,,,,
1465846681.20,2.283567,-0.013498,-1.455537,-0.134175,-3.617537,-0.275205,0.756484,0.013498,0.653873,0.585511,-0.258783,0.012799,-144.031982,229.518402,-39.501644,,,,,,
1465846681.21,2.252837,-0.018229,-1.459075,0.597792,-2.898560,-0.075674,0.776159,0.018228,0.630274,-0.235845,0.228140,1.026159,-144.031982,229.518402,-39.501644,,,,,,
1465846681.22,2.228360,-0.017850,-1.458545,-0.259769,-2.290985,-0.005828,0.791358,0.017849,0.611093,0.057245,-0.126477,0.371314,-149.097443,228.618851,-22.083023,,,,,,
1465846681.23,2.209018,-0.017800,-1.457449,0.045411,-1.866232,-0.075248,0.803030,0.017799,0.595673,0.102412,0.061455,0.570892,-149.097443,228.618851,-22.083023,,,,,,
1465846681.24,2.188269,-0.019251,-1.458341,0.113113,-2.178503,-0.048740,0.815193,0.019250,0.578869,-0.089958,-0.020074,0.590565,-149.097443,228.618851,-22.083023,,,,,,
1465846681.25,2.166029,-0.019020,-1.457713,-0.079657,-2.185901,-0.026532,0.827868,0.019019,0.560600,0.058011,-0.036383,0.539146,-150.064651,228.549301,-15.169106,,,,,,
1465846681.27,2.135064,-0.020601,-1.456971,-0.040998,-1.185511,-0.101957,0.844801,0.020600,0.534683,-0.118956,-0.012940,0.614654,-150.064651,228.549301,-15.169106,,,,,,
1465846681.26,2.148003,-0.019789,-1.457583,0.059530,-1.654922,-0.082946,0.837826,0.019788,0.545578,-0.006131,-0.005033,0.612320,-150.064651,228.549301,-15.169106,,,,,,
1465846681.28,2.125678,-0.021392,-1.456084,-0.008644,-0.872269,-0.113470,0.849768,0.021390,0.526722,-0.151862,0.016589,0.604152,-150.064651,228.549301,-15.169106,,,,,,
1465846681.29,2.118314,-0.022464,-1.456012,0.050082,-0.705654,-0.093167,0.853604,0.022463,0.520438,-0.102429,-0.019563,0.533319,-151.374191,228.148529,-4.288437,,,,,,
1465846681.30,2.112004,-0.023118,-1.455363,-0.038189,-0.628093,-0.095870,0.856858,0.023115,0.515034,-0.058930,-0.017149,0.512554,-151.374191,228.148529,-4.288437,,,,,,
1465846681.31,2.105308,-0.023841,-1.454876,0.010691,-0.677010,-0.077419,0.860273,0.023839,0.509276,-0.053846,0.005413,0.553148,-151.901306,227.831299,-1.783836,,,,,,
1465846681.32,2.097951,-0.024697,-1.454719,0.027636,-0.759821,-0.083270,0.863978,0.024695,0.502923,-0.047923,-0.008673,0.524711,-151.901306,227.831299,-1.783836,,,,,,
1465846681.33,2.089418,-0.025549,-1.454263,0.000891,-0.891419,-0.101631,0.868220,0.025547,0.495522,-0.111430,0.005352,0.530525,-151.901306,227.831299,-1.783836,,,,,,
1465846681.34,2.079928,-0.026538,-1.454063,0.044444,-0.966837,-0.097921,0.872861,0.026535,0.487248,-0.150036,0.037476,0.540554,-152.696289,227.291290,2.609676,,,,,,
1465846681.35,2.069870,-0.027614,-1.454256,0.072036,-1.009376,-0.078467,0.877692,0.027610,0.478430,-0.165167,0.000375,0.530436,-152.696289,227.291290,2.609676,,,,,,
1465846681.36,2.059197,-0.028724,-1.454379,0.059189,-1.085784,-0.090774,0.882720,0.028720,0.469021,-0.205413,-0.008136,0.514011,-152.696289,227.291290,2.609676,,,,,,
1465846681.37,2.048245,-0.029863,-1.454631,0.087920,-1.109141,-0.096985,0.887774,0.029858,0.459310,-0.223117,-0.003674,0.529841,-97.967300,222.547668,-20.355255,,,,,,
1465846681.38,2.036706,-0.031199,-1.455133,0.104889,-1.156939,-0.093475,0.892979,0.031193,0.449017,-0.298542,-0.008733,0.538715,-97.967300,222.547668,-20.355255,,,,,,
1465846681.39,2.025907,-0.032472,-1.455550,0.093343,-1.031629,-0.098531,0.897739,0.032466,0.439330,-0.366001,-0.005412,0.579530,-97.967300,222.547668,-20.355255,,,,,,
1465846681.40,2.017593,-0.033916,-1.456122,0.118196,-0.751308,-0.106651,0.901317,0.033910,0.431830,-0.454784,-0.014272,0.555475,-99.610420,222.117157,-16.766973,,,,,,
1465846681.42,2.013054,-0.036647,-1.456656,0.071344,0.087552,-0.116216,0.903181,0.036639,0.427693,-0.594664,-0.031649,0.470546,-99.610420,222.117157,-16.766973,,,,,,
1465846681.41,2.013168,-0.035293,-1.456462,0.081460,-0.327633,-0.108280,0.903176,0.035286,0.427817,-0.519128,-0.011253,0.543619,-99.610420,222.117157,-16.766973,,,,,,
1465846681.43,2.017826,-0.037713,-1.456667,0.041067,0.605659,-0.095013,0.901094,0.037704,0.431982,-0.539476,0.002045,0.503611,-99.610420,222.117157,-16.766973,,,,,,
1465846681.44,2.025970,-0.038751,-1.456955,0.081793,0.856157,-0.072061,0.897510,0.038742,0.439288,-0.483616,-0.009872,0.410779,-100.683533,221.638474,-16.691542,,,,,,
1465846681.45,2.033167,-0.039761,-1.457390,0.077270,0.637443,-0.076017,0.894290,0.039750,0.445719,-0.420001,-0.040406,0.284979,-100.683533,221.638474,-16.691542,,,,,,
1465846681.46,2.036500,-0.040680,-1.457415,0.039514,0.239297,-0.077815,0.892767,0.040669,0.448680,-0.533956,-0.032612,0.306829,-100.749695,221.457870,-18.582684,,,,,,
1465846681.47,2.038056,-0.041801,-1.457627,0.075669,0.177739,-0.093360,0.892026,0.041788,0.450048,-0.798978,-0.035349,0.342753,-100.749695,221.457870,-18.582684,,,,,,
1465846681.48,2.045682,-0.042584,-1.457930,0.064895,1.006871,-0.047477,0.888539,0.042571,0.456823,-0.782047,0.009996,0.364604,-100.749695,221.457870,-18.582684,,,,,,
1465846681.49,2.062394,-0.043495,-1.458363,0.074515,1.858479,-0.069839,0.880746,0.043482,0.471588,-0.691766,-0.023355,0.197693,-101.037048,221.263229,-19.326031,,,,,,
1465846681.50,2.083319,-0.044053,-1.458339,0.014080,2.111134,-0.040615,0.870665,0.044039,0.489902,-0.634275,-0.003069,0.060910,-101.037048,221.263229,-19.326031,,,,,,
1465846681.51,2.102595,-0.044433,-1.458613,0.054164,1.858323,-0.009185,0.861046,0.044418,0.506584,-0.635780,-0.016662,0.059242,-101.037048,221.263229,-19.326031,,,,,,
1465846681.52,2.119334,-0.044776,-1.459092,0.057055,1.620471,-0.005562,0.852433,0.044761,0.520917,-0.613877,-0.025841,0.011019,-99.970428,221.029831,-26.289303,,,,,,
1465846681.53,2.135238,-0.045074,-1.459479,0.047451,1.607726,-0.002298,0.844029,0.045059,0.534401,-0.615132,-0.032501,-0.057976,-99.970428,221.029831,-26.289303,,,,,,
1465846681.54,2.152247,-0.045443,-1.460067,0.081664,1.727681,0.001242,0.834804,0.045428,0.548670,-0.564250,-0.026705,-0.180949,-99.970428,221.029831,-26.289303,,,,,,
1465846681.55,2.169250,-0.045914,-1.461017,0.102886,1.685172,0.011110,0.825337,0.045898,0.562772,-0.403477,-0.041946,-0.443326,-99.075439,220.990143,-29.779188,,,,,,
1465846681.56,2.184670,-0.046367,-1.461637,0.076038,1.484534,0.001697,0.816544,0.046350,0.575419,-0.377503,-0.036310,-0.498210,-99.075439,220.990143,-29.779188,,,,,,
1465846681.57,2.198235,-0.046820,-1.462397,0.088603,1.314642,0.001710,0.808647,0.046803,0.586430,-0.353080,-0.023350,-0.448994,-99.075439,220.990143,-29.779188,,,,,,
1465846681.58,2.210816,-0.047060,-1.463056,0.059742,1.267861,0.029650,0.801196,0.047043,0.596550,-0.393344,-0.011566,-0.385964,-96.933472,220.896057,-36.718288,,,,,,
1465846681.59,2.224104,-0.047126,-1.463709,0.052403,1.362359,0.031179,0.793196,0.047109,0.607141,-0.353178,-0.013555,-0.417078,-96.933472,220.896057,-36.718288,,,,,,
1465846681.60,2.239057,-0.046958,-1.464169,0.022775,1.538583,0.048140,0.784035,0.046940,0.618939,-0.319939,-0.006673,-0.397030,-96.933472,220.896057,-36.718288,,,,,,
1465846681.61,2.255434,-0.046771,-1.464730,0.032523,1.673422,0.049433,0.773801,0.046754,0.631701,-0.272916,-0.014390,-0.394228,-95.826569,220.900848,-39.490261,,,,,,
1465846681.62,2.272828,-0.046517,-1.465109,0.002837,1.762648,0.041393,0.762706,0.046500,0.645072,-0.265788,-0.032584,-0.364921,-95.826569,220.900848,-39.490261,,,,,,
1465846681.63,2.291124,-0.046153,-1.465306,-0.004508,1.853958,0.044006,0.750789,0.046137,0.658928,-0.323147,-0.015787,-0.303200,-95.826569,220.900848,-39.490261,,,,,,
1465846681.64,2.311014,-0.045836,-1.465696,0.006354,2.021724,0.040836,0.737547,0.045820,0.673740,-0.256208,-0.000807,-0.329319,-92.569229,221.040741,-45.949207,,,,,,
1465846681.65,2.332279,-0.045287,-1.465860,-0.033959,2.160802,0.053761,0.723072,0.045272,0.689288,-0.248096,-0.009642,-0.319140,-92.569229,221.040741,-45.949207,,,,,,
1465846681.66,2.354472,-0.044793,-1.465928,-0.026384,2.237283,0.040516,0.707613,0.044778,0.705180,-0.281313,-0.013849,-0.273967,-92.569229,221.040741,-45.949207,,,,,,
1465846681.67,2.376993,-0.044337,-1.466055,-0.024241,2.246841,0.039394,0.691568,0.044323,0.720950,-0.319208,-0.019100,-0.258288,-90.376030,221.141815,-49.677589,,,,,,
1465846681.68,2.399371,-0.043893,-1.466274,-0.013615,2.239386,0.045838,0.675276,0.043879,0.736259,-0.328963,-0.035228,-0.275825,-90.376030,221.141815,-49.677589,,,,,,
1465846681.69,2.421358,-0.043605,-1.466456,-0.009401,2.183143,0.033421,0.658934,0.043591,0.750936,-0.379347,-0.035794,-0.295568,-90.376030,221.141815,-49.677589,,,,,,
1465846681.70,2.442573,-0.043389,-1.466807,0.013900,2.093925,0.039326,0.642862,0.043375,0.764753,-0.406687,-0.046259,-0.335584,-85.252342,221.324890,-57.329926,,,,,,
1465846681.72,2.482638,-0.042811,-1.468585,0.035959,2.035202,0.153612,0.611729,0.042798,0.789909,-0.140599,-0.038861,-0.522620,-85.252342,221.324890,-57.329926,,,,,,
1465846681.71,2.462709,-0.043297,-1.467421,0.036090,1.987684,0.058110,0.627336,0.043284,0.777545,-0.380526,-0.043879,-0.416934,-85.252342,221.324890,-57.329926,,,,,,
1465846681.73,2.502729,-0.042308,-1.469728,0.016820,1.957870,0.092340,0.595750,0.042296,0.802056,0.278884,0.017915,-0.700752,-82.598167,221.380661,-60.889641,,,,,,
1465846681.74,2.518881,-0.041740,-1.470028,-0.031598,1.505651,0.064259,0.582732,0.041728,0.811592,0.100266,-0.044108,-0.552391,-82.598167,221.380661,-60.889641,,,,,,
1465846681.75,2.532401,-0.041547,-1.470874,0.052273,1.329320,0.076093,0.571711,0.041536,0.819403,0.132422,-0.030412,-0.520011,-82.598167,221.380661,-60.889641,,,,,,
1465846681.76,2.545993,-0.041248,-1.471313,-0.029586,1.378292,0.043771,0.560528,0.041236,0.827108,0.136082,-0.013145,-0.564901,-77.299194,221.642502,-66.624535,,,,,,
1465846681.77,2.560652,-0.040605,-1.471506,-0.030530,1.503535,0.061080,0.548358,0.040594,0.835258,0.046918,-0.025488,-0.509849,-77.299194,221.642502,-66.624535,,,,,,
1465846681.78,2.576345,-0.040129,-1.472124,-0.012369,1.585227,0.081875,0.535194,0.040118,0.843776,0.099358,-0.013293,-0.555965,-77.299194,221.642502,-66.624535,,,,,,
1465846681.79,2.592243,-0.039073,-1.472518,-0.082658,1.578879,0.086102,0.521734,0.039063,0.852213,0.200785,-0.007446,-0.568537,-77.299194,221.642502,-66.624535,,,,,,
1465846681.80,2.607348,-0.038000,-1.472852,-0.068927,1.490743,0.086669,0.508824,0.037990,0.860032,0.244854,-0.007656,-0.527207,-72.574280,221.927734,-70.855133,,,,,,
1465846681.81,2.621622,-0.036915,-1.473259,-0.078615,1.413224,0.091403,0.496516,0.036906,0.867242,0.296437,-0.015819,-0.497202,-72.574280,221.927734,-70.855133,,,,,,
1465846681.82,2.635237,-0.035745,-1.473537,-0.087200,1.337878,0.078029,0.484683,0.035738,0.873959,0.342145,-0.015245,-0.481610,-70.078903,222.157730,-72.624252,,,,,,
1465846681.83,2.647993,-0.034598,-1.473816,-0.087309,1.250811,0.078575,0.473515,0.034591,0.880106,0.359416,-0.012664,-0.451288,-70.078903,222.157730,-72.624252,,,,,,
1465846681.84,2.659838,-0.033483,-1.474167,-0.081033,1.173276,0.086519,0.463075,0.033476,0.885687,0.371550,-0.028243,-0.439260,-70.078903,222.157730,-72.624252,,,,,,
1465846681.85,2.670638,-0.032406,-1.474520,-0.081179,1.047997,0.081982,0.453499,0.032400,0.890668,0.394020,-0.020269,-0.463834,-116.580872,229.002777,-92.857506,,,,,,
1465846681.86,2.680402,-0.031190,-1.474903,-0.091962,0.944999,0.085811,0.444799,0.031185,0.895088,0.427226,-0.024898,-0.429084,-116.580872,229.002777,-92.857506,,,,,,
1465846681.87,2.689071,-0.030040,-1.475300,-0.082506,0.838823,0.083293,0.437037,0.030036,0.898942,0.468007,-0.007315,-0.412446,-116.580872,229.002777,-92.857506,,,,,,
1465846681.88,2.696350,-0.028886,-1.475694,-0.092273,0.698658,0.088420,0.430497,0.028882,0.902130,0.479751,-0.019650,-0.406891,-111.901489,229.711639,-96.780716,,,,,,
1465846681.89,2.702325,-0.027654,-1.476062,-0.092436,0.564877,0.087130,0.425115,0.027650,0.904717,0.503551,-0.016695,-0.381112,-111.901489,229.711639,-96.780716,,,,,,
1465846681.90,2.706931,-0.026451,-1.476375,-0.096855,0.414144,0.073168,0.420956,0.026448,0.906695,0.553149,0.000865,-0.371127,-111.901489,229.711639,-96.780716,,,,,,
1465846681.91,2.709589,-0.025100,-1.476666,-0.115220,0.219814,0.085013,0.418559,0.025097,0.907843,0.567738,-0.020718,-0.369101,-110.215256,230.079727,-97.835587,,,,,,
1465846681.92,2.710131,-0.023714,-1.477093,-0.104871,0.005284,0.101271,0.418082,0.023712,0.908100,0.585550,-0.018478,-0.344349,-110.215256,230.079727,-97.835587,,,,,,
1465846681.93,2.708538,-0.022321,-1.477542,-0.109404,-0.217684,0.099472,0.419541,0.022319,0.907462,0.609527,-0.008601,-0.303855,-109.127411,230.459976,-98.159576,,,,,,
1465846681.94,2.704870,-0.020805,-1.477963,-0.120298,-0.418353,0.098591,0.422880,0.020804,0.905947,0.638994,-0.008047,-0.273149,-109.127411,230.459976,-98.159576,,,,,,
1465846681.95,2.699450,-0.019372,-1.478393,-0.110909,-0.574440,0.098514,0.427796,0.019370,0.903668,0.624816,-0.013725,-0.206783,-109.127411,230.459976,-98.159576,,,,,,
1465846681.97,2.685852,-0.016738,-1.478991,-0.099374,-0.749585,0.078335,0.440066,0.016737,0.897809,0.629575,-0.009199,-0.123090,-109.127411,230.459976,-98.159576,,,,,,
1465846681.96,2.693056,-0.018012,-1.478740,-0.107791,-0.655104,0.086250,0.433577,0.018011,0.900936,0.644853,-0.008260,-0.174755,-109.127411,230.459976,-98.159576,,,,,,
1465846681.98,2.678026,-0.015518,-1.479275,-0.095159,-0.789927,0.075399,0.447087,0.015517,0.894356,0.626918,-0.002455,-0.086861,-110.089142,231.713516,-94.048470,,,,,,
