timestamp,user_acc_x,user_acc_y,user_acc_z
1465407293,-0.00715,-0.000208,-0.000508
1465407293,-0.002841,-0.001296,-0.00302
1465407293,0.004242,-0.000423,-0.006477
1465407293,0.012558,0.001132,-0.015548
1465407293,0.0156,-0.000523,-0.015535
1465407293,0.006507,-0.000532,-0.010162
,,,
,,,
1465407293,-0.002879,-0.001219,-0.000111
1465407293,-0.005835,0.000988,0.000482
1465407293,-0.000652,0.00159,-0.004658
,,,
1465407293,0.005898,-0.001479,-0.004686
1465407293,-0.002718,0.002017,-0.006503
1465407293,-0.000566,-0.001914,0.002188
1465407293,0.000567,0.002301,-0.006389
1465407293,0.001148,-0.003055,-0.004
1465407293,-0.002327,0.005317,-0.0031
1465407293,0.006412,0.000808,-0.006403
,,,
1465407293,0.015572,0.003646,-0.017999
1465407293,0.019375,-0.002392,-0.016562
1465407293,0.01448,0.000014,-0.013346
1465407293,0.008507,-0.001896,-0.012595
1465407293,0.002393,-0.00022,-0.005678
1465407293,-0.00186,-0.000626,-0.00277
,,,
1465407293,-0.000654,-0.001125,-0.002381
1465407293,-0.003026,-0.000315,-0.004163
1465407293,-0.005576,-0.000863,-0.000438
1465407293,-0.010451,0.000358,0.004802
1465407293,-0.007693,-0.00065,0.002779
1465407293,-0.000216,-0.001101,-0.006434
1465407293,0.016586,-0.000297,-0.013922
1465407293,0.01574,0.001475,-0.018787
1465407293,0.007865,0.000371,-0.008233
1465407293,-0.004363,-0.000285,-0.003583
1465407293,-0.009496,0.000024,0.003167
1465407293,-0.010594,-0.001617,0.000471
1465407293,-0.009112,-0.000959,-0.000155
1465407293,-0.011125,-0.001073,-0.000914
1465407293,-0.014893,-0.00115,0.000326
1465407293,-0.009516,0.000211,0.007795
1465407293,-0.010739,0.001432,0.004265
1465407293,-0.003392,0.001074,-0.005041
,,,
1465407293,0.002276,0.001547,-0.008453
1465407293,0.00725,0.000585,-0.010228
1465407293,0.004635,-0.001182,-0.008626
1465407293,-0.000701,0.003167,-0.004417
1465407293,-0.007582,-0.000822,0.000695
1465407293,-0.013656,-0.00066,0.002976
1465407293,-0.014773,0.000422,0.003006
1465407293,-0.015609,0.000944,0.006082
1465407293,-0.016698,0.001283,0.008179
1465407293,-0.01586,0.0012,0.004344
1465407293,-0.010603,-0.008006,0.006426
1465407293,-0.042909,0.004421,0.01762
1465407293,-0.04736,-0.002503,0.038866
1465407293,-0.060055,0.002618,0.027632
1465407293,-0.060315,-0.004391,0.045797
1465407293,-0.082823,-0.00373,0.043442
1465407293,-0.103619,-0.002417,0.076744
1465407293,-0.085468,-0.004979,0.053756
1465407293,-0.009703,0.003326,0.019272
1465407293,0.049161,-0.001905,-0.036511
1465407293,0.052475,0.007516,-0.030356
1465407293,0.025157,-0.000936,-0.013146
1465407293,0.035623,0.003709,-0.021879
1465407293,0.049707,-0.001358,-0.041681
1465407293,0.027666,0.001858,-0.016337
1465407293,-0.02367,-0.002048,0.01028
1465407293,-0.079917,-0.004681,0.052858
1465407293,-0.083686,-0.001879,0.054899
1465407293,-0.063296,-0.00498,0.043006
1465407293,-0.063071,0.003146,0.050245
1465407293,-0.040849,-0.00054,0.032057
1465407293,0.015745,0.005203,0.001263
1465407293,0.047396,0.00058,-0.02204
1465407293,0.117596,0.003488,-0.073437
1465407294,0.143431,0.003659,-0.111494
1465407294,0.093357,0.002973,-0.056088
1465407294,0.010949,0.002802,-0.012507
1465407294,0.011971,0.005897,-0.015638
1465407294,-0.010321,-0.000787,0.014166
1465407294,0.090859,0.003984,-0.050194
1465407294,0.128296,0.000448,-0.100061
1465407294,0.117982,0.004477,-0.076226
1465407294,0.07581,-0.001645,-0.054772
1465407294,0.017039,-0.000929,-0.012546
1465407294,-0.023392,-0.000748,0.016092
1465407294,-0.05894,0.001899,0.037393
1465407294,-0.070626,-0.005802,0.044132
1465407294,-0.0879,0.000919,0.051024
1465407294,-0.106554,-0.003512,0.065842
1465407294,-0.133764,-0.000192,0.083568
1465407294,-0.157477,-0.008616,0.104074
1465407294,-0.159574,-0.002068,0.106873
1465407294,-0.165541,-0.009506,0.122057
1465407294,-0.13976,0.000045,0.118393
1465407294,-0.099075,-0.004819,0.086055
1465407294,-0.065745,0.013369,0.101714
1465407294,0.173191,0.001492,-0.075015
1465407294,0.372635,0.014056,-0.233264
1465407294,0.390927,0.007209,-0.256815
1465407294,0.251365,0.00704,-0.170015
1465407294,0.045398,0.000854,-0.02507
1465407294,-0.08323,-0.000389,0.053833
1465407294,-0.121788,0.000133,0.078514
1465407294,-0.094374,0.002816,0.061384
1465407294,-0.043095,-0.003311,0.023238
1465407294,-0.034185,0.000266,0.021765
1465407294,-0.045818,0.00315,0.029692
1465407294,-0.038755,-0.002919,0.031126
1465407294,-0.00191,0.00389,0.005504
1465407294,0.001339,-0.000199,0.008054
1465407294,-0.001401,0.002804,0.003929
1465407294,-0.055057,-0.007945,0.04892
1465407294,-0.111917,0.002806,0.08109
1465407294,-0.096103,0.001486,0.087081
1465407294,-0.0445,0.004106,0.056535
1465407294,-0.027778,0.001095,0.057643
1465407294,0.045276,-0.00087,-0.002227
1465407294,0.095047,0.00438,-0.0061
1465407294,0.083529,0.005116,-0.024198
1465407294,0.084005,0.012634,-0.011641
1465407294,0.096286,0.003838,-0.03281
1465407294,0.110976,0.007428,-0.036775
1465407294,0.119356,0.002199,-0.053024
1465407294,0.124109,0.003916,-0.052264
1465407294,0.123841,0.008877,-0.068684
1465407294,0.107594,0.008024,-0.056827
1465407294,0.056039,0.006191,-0.024401
1465407294,0.061567,0.003624,-0.024794
1465407294,0.086751,0.00105,-0.043221
1465407294,0.06723,0.006873,-0.032715
1465407294,0.038846,0.004819,-0.019916
1465407294,0.052327,0.006549,-0.028561
1465407294,0.034667,0.002007,-0.014072
1465407294,0.002173,0.005389,0.002887
1465407294,0.016297,0.000418,0.004226
1465407294,0.00134,0.007758,0.003966
1465407294,-0.110701,0.001253,0.09811
1465407294,-0.15838,-0.004164,0.14955
1465407294,-0.170131,0.003603,0.157616
1465407294,-0.171457,-0.003576,0.187197
1465407294,-0.100692,0.007542,0.160901
1465407294,-0.068616,0.003981,0.151685
1465407294,-0.031513,0.008781,0.146322
1465407294,0.012474,-0.002698,0.15779
1465407294,0.032852,0.008906,0.127068
1465407294,0.098432,0.004766,0.119964
1465407294,0.209242,0.02286,-0.001994
1465407294,0.198306,0.000002,0.029548
1465407294,0.206593,0.02626,-0.025274
1465407294,0.249897,0.003936,-0.053384
1465407294,0.226318,0.019109,-0.066248
1465407294,0.2425,0.006826,-0.084646
1465407294,0.269535,0.01875,-0.137656
1465407294,0.285518,0.010375,-0.156732
1465407294,0.273766,0.006846,-0.165928
1465407294,0.254168,0.015148,-0.164453
1465407294,0.238681,0.004805,-0.153655
1465407294,0.230076,0.020585,-0.153731
1465407294,0.220111,0.001173,-0.134001
1465407294,0.200641,0.017338,-0.118478
1465407294,0.12854,0.009543,-0.058055
1465407294,0.166952,0.001033,-0.077357
1465407294,0.077961,0.008164,-0.005935
1465407294,0.049816,0.005939,0.008064
1465407294,0.048282,0.011957,0.018267
1465407294,0.039284,0.002457,0.022366
1465407294,0.041654,0.003593,0.037988
1465407294,0.017767,0.001843,0.048484
1465407294,0.012577,0.007073,0.044319
1465407294,0.022727,0.006524,0.041921
1465407294,-0.072751,0.004243,0.105895
1465407294,-0.116339,0.003109,0.123497
1465407294,-0.128354,-0.002364,0.121582
1465407294,-0.138587,0.003233,0.118823
1465407295,-0.152034,-0.001736,0.112533
1465407295,-0.163878,0.004462,0.115912
1465407295,-0.162025,-0.00569,0.112539
1465407295,-0.15173,0.001836,0.099944
1465407295,-0.141895,-0.005578,0.093935
1465407295,-0.13674,0.005082,0.08453
1465407295,-0.131066,-0.000536,0.085395
1465407295,-0.116091,0.000998,0.07841
1465407295,-0.092574,0.000908,0.071526
1465407295,-0.070474,-0.001814,0.064456
1465407295,-0.060479,0.003108,0.063953
1465407295,-0.046792,0.002956,0.056749
1465407295,-0.031748,0.007958,0.05043
1465407295,0.009938,0.004376,0.038585
1465407295,0.095541,0.008661,-0.023345
1465407295,0.122525,0.003859,-0.037144
1465407295,0.10686,0.007768,-0.034138
1465407295,0.103482,0.007492,-0.035074
1465407295,0.134921,0.013014,-0.064552
1465407295,0.122132,0.005653,-0.053383
1465407295,0.10605,0.008018,-0.053251
1465407295,0.131862,0.006533,-0.067148
1465407295,0.135027,0.010365,-0.078794
1465407295,0.123502,0.005352,-0.070112
1465407295,0.124123,0.011078,-0.076853
1465407295,0.115677,0.004758,-0.06903
1465407295,0.097659,0.006812,-0.061037
1465407295,0.080948,0.005727,-0.050945
1465407295,0.070831,0.008943,-0.045858
1465407295,0.060024,0.007635,-0.040518
1465407295,0.064277,0.006471,-0.039921
1465407295,0.050921,0.004866,-0.029607
1465407295,0.028081,0.000547,-0.007284
1465407295,0.013482,0.004305,-0.004387
1465407295,0.030789,0.003044,-0.01272
1465407295,0.041241,0.006555,-0.022012
1465407295,0.018054,0.00214,-0.005666
1465407295,-0.00015,0.004294,0.008484
1465407295,0.008267,0.001112,0.008473
1465407295,0.006761,0.005212,0.007383
1465407295,0.013661,0.003702,0.004164
1465407295,0.016974,0.005303,0.001481
1465407295,-0.020056,0.005049,0.025654
1465407295,-0.072521,-0.002032,0.06381
1465407295,-0.101806,0.001586,0.073034
1465407295,-0.111829,-0.000406,0.076824
1465407295,-0.1114,0.002947,0.073794
1465407295,-0.106788,-0.001121,0.071737
1465407295,-0.102298,0.000665,0.067079
1465407295,-0.093391,-0.003238,0.063116
1465407295,-0.085459,0.000847,0.057871
1465407295,-0.073337,0.001383,0.05204
1465407295,-0.06037,0.002635,0.041746
1465407295,-0.036956,0.004188,0.032174
1465407295,-0.002039,0.001138,0.01269
1465407295,0.075713,0.004633,-0.038533
1465407295,0.049151,0.004653,-0.018333
1465407295,0.080148,0.003606,-0.046234
1465407295,0.078392,0.007411,-0.043898
1465407295,0.065585,0.003057,-0.036639
1465407295,0.067979,0.00533,-0.034839
1465407295,0.069898,-0.014289,-0.034326
1465407295,0.068334,0.016042,-0.031287
1465407295,0.050121,0.003767,-0.036674
1465407295,0.043093,0.025876,-0.04479
1465407295,0.03882,0.00182,-0.034023
1465407295,0.048822,0.001654,-0.016617
1465407295,0.04029,-0.014769,-0.017713
1465407295,0.043341,-0.000308,-0.010375
1465407295,0.028958,0.005138,-0.028346
1465407295,0.022804,0.011225,-0.022331
1465407295,0.020957,-0.004191,-0.006059
1465407295,0.01923,-0.005699,0.00428
1465407295,0.009966,0.00703,-0.013194
1465407295,0.016267,0.007307,-0.008063
1465407295,0.016048,0.011573,-0.017088
1465407295,0.013935,-0.004186,-0.001833
1465407295,0.012795,-0.012834,0.006467
1465407295,0.000116,-0.014325,0.023203
1465407295,-0.039688,0.000396,0.027691
1465407295,-0.069084,0.01516,0.034834
1465407295,-0.078142,0.011627,0.038116
1465407295,-0.081393,0.004965,0.0427
1465407295,-0.071001,-0.019434,0.063803
1465407295,-0.066405,-0.016295,0.054134
1465407295,-0.055278,-0.008335,0.046727
1465407295,-0.046283,0.007996,0.019099
1465407295,-0.02019,0.009227,0.00759
1465407295,0.00994,0.003651,-0.007144
1465407295,0.041431,-0.002293,-0.015024
1465407295,0.055686,-0.004773,-0.021881
1465407295,0.049678,0.008762,-0.037546
1465407295,0.049899,0.002517,-0.030006
1465407295,0.044696,0.004108,-0.032471
1465407295,0.049483,-0.007479,-0.018311
1465407295,0.043938,-0.00351,-0.021374
1465407295,0.035629,0.001708,-0.017695
1465407295,0.02156,0.013394,-0.026918
1465407295,0.020235,0.011014,-0.018127
1465407295,0.010814,0.003354,-0.011505
1465407296,0.019873,-0.031698,0.035585
1465407296,-0.025548,-0.003915,-0.015587
1465407296,-0.012917,-0.000582,0.050549
1465407296,-0.073896,0.001153,-0.002898
1465407296,-0.039065,0.029499,0.043
1465407296,-0.069557,-0.029897,0.036872
1465407296,-0.045528,0.023084,0.03345
1465407296,-0.06472,-0.022605,0.028821
1465407296,-0.02254,0.004277,0.047751
1465407296,-0.031998,-0.005356,-0.002072
1465407296,0.004987,-0.001966,0.011263
1465407296,0.015079,-0.027099,-0.009757
1465407296,0.033852,0.026015,-0.020379
1465407296,0.021391,0.008684,-0.02353
1465407296,0.014433,0.081807,-0.07453
1465407296,0.002859,0.019826,-0.062161
1465407296,0.050219,-0.015746,0.019894
1465407296,0.02177,-0.050096,-0.00455
1465407296,0.0566,-0.045058,0.066979
1465407296,-0.022343,-0.00971,-0.024587
1465407296,-0.010524,0.033193,0.013181
1465407296,-0.0536,0.015096,-0.014361
1465407296,-0.025509,0.005682,0.04238
1465407296,-0.052123,-0.013253,0.014937
1465407296,-0.028248,0.019387,0.032765
1465407296,-0.053309,0.000444,0.001763
1465407296,-0.007512,-0.01897,0.039154
1465407296,-0.002581,-0.043335,0.036058
1465407296,0.019752,-0.009759,0.021887
1465407296,-0.001859,0.010291,-0.015837
1465407296,0.013535,0.035224,-0.03087
1465407296,0.011947,0.026027,-0.038749
1465407296,0.02081,0.024043,-0.023355
1465407296,0.017858,-0.003125,-0.016701
1465407296,0.031157,-0.015311,0.006412
1465407296,0.01994,-0.023877,0.006245
1465407296,0.010959,-0.01201,0.011174
1465407296,-0.002986,-0.00796,0.007387
1465407296,-0.014884,0.004615,0.006518
1465407296,-0.024588,0.009168,0.010734
1465407296,-0.031543,0.016031,0.010995
1465407296,-0.032657,0.008672,0.01263
1465407296,-0.031524,0.003522,0.014181
1465407296,-0.018779,-0.003763,0.017445
1465407296,-0.011933,-0.001077,0.007768
1465407296,0.002066,-0.011874,0.012133
1465407296,0.008615,-0.005147,0.001894
1465407296,0.014921,-0.005367,-0.000467
1465407296,0.014799,0.004198,-0.012264
1465407296,0.015963,0.002347,-0.011263
1465407296,0.019153,0.002677,-0.004824
1465407296,0.011431,0.007848,-0.006737
1465407296,0.006075,0.004771,-0.004625
1465407296,0.000465,0.001983,-0.002113
1465407296,-0.003515,-0.000027,0.007293
1465407296,-0.012345,-0.002341,0.011731
1465407296,-0.016412,-0.002501,0.014946
1465407296,-0.019021,-0.001329,0.016314
1465407296,-0.015886,-0.007842,0.021635
1465407296,-0.019272,0.005568,0.004032
1465407296,-0.009885,-0.002334,0.010176
1465407296,-0.005504,0.000548,0.002521
1465407296,0.002304,0.003651,0.000545
1465407296,0.009004,0.001579,-0.002978
1465407296,0.011731,0.001797,-0.006942
1465407296,0.011009,0.003003,-0.009207
1465407296,0.015162,0.004954,-0.007762
1465407296,0.010535,-0.000077,-0.004909
1465407296,0.008637,0.00067,-0.00316
1465407296,0.006298,-0.003546,0.006801
1465407296,-0.003743,-0.000062,0.002331
1465407296,-0.008029,-0.000036,0.002045
1465407296,-0.013399,-0.001163,0.006899
1465407296,-0.013505,0.004737,0.009066
1465407296,-0.015207,0.003989,0.010661
1465407296,-0.012587,0.001967,0.007404
1465407296,-0.008879,-0.000815,0.010828
1465407296,-0.004537,0.002565,0.002385
1465407296,0.001775,-0.00049,0.00305
1465407296,0.004951,-0.000612,-0.000729
1465407296,0.009148,-0.000593,-0.000984
1465407296,0.008481,-0.000069,-0.004547
1465407296,0.010844,0.003495,-0.003051
1465407296,0.00567,0.002636,-0.005168
1465407296,0.00534,0.000952,0.00001
1465407296,0.001678,-0.000232,-0.000386
1465407296,0.000443,-0.001185,0.004717
1465407296,-0.004792,-0.000967,0.005786
1465407296,-0.00625,-0.000851,0.009911
1465407296,-0.010306,0.001631,0.004937
1465407296,-0.010109,-0.000789,0.00713
1465407296,-0.009128,0.000742,0.004786
1465407296,-0.005334,0.001928,0.005111
1465407296,-0.003312,0.003237,0.002674
1465407296,0.000983,0.001052,0.002474
1465407296,0.003628,-0.000519,0.001338
1465407296,0.003602,-0.001331,-0.000292
1465407296,0.006692,-0.000589,-0.001009
1465407296,0.007466,-0.001981,-0.00301
1465407296,0.006545,-0.001629,0.000632
1465407297,0.004778,0.000532,-0.001127
1465407297,0.002617,0.002146,-0.000606
1465407297,-0.002724,0.003214,0.000079
1465407297,0.078941,-0.009962,-0.044501
1465407297,2.649998,0.217504,-1.443965
1465407297,-0.076383,0.02969,0.14314
1465407297,0.867302,-0.002561,0.187974
1465407297,-0.095065,0.036741,0.393697
1465407297,-1.560452,0.058476,-0.171081
1465407297,-3.021113,-0.309156,2.915505
1465407297,2.332169,-0.090233,-0.511989
1465407297,0.814846,0.133962,-0.322036
1465407297,-0.272237,-0.268187,0.181005
1465407297,-0.63777,-0.026504,0.323104
1465407297,0.487112,0.026631,-0.582355
1465407297,-0.277336,0.103294,-0.027454
1465407297,-0.069919,-0.097667,0.256307
1465407297,0.221995,0.0675,-0.175562
1465407297,0.025671,-0.008528,0.096852
1465407297,-0.150938,0.057499,0.097527
1465407297,-0.205483,0.019577,0.015606
1465407297,-0.133431,0.008896,-0.003405
1465407297,-0.085702,-0.032414,0.022673
1465407297,-0.020099,-0.036205,0.037252
1465407297,0.043164,-0.000761,0.012015
1465407297,0.027287,-0.012152,0.044789
1465407297,-0.01057,0.005122,0.022255
1465407297,-0.022392,0.001256,-0.005307
1465407297,-0.042387,0.006269,-0.004591
1465407297,-0.046878,0.015236,-0.005767
1465407297,-0.035884,-0.000611,0.000652
1465407297,-0.03255,-0.003522,0.002634
1465407297,-0.037272,-0.004056,0.016191
1465407297,-0.050648,-0.008083,0.02775
1465407297,-0.058495,-0.002302,0.010758
1465407297,-0.065361,0.002221,0.01164
1465407297,-0.059128,0.004668,0.003372
1465407297,-0.038154,0.008041,-0.005785
1465407297,-0.039215,0.001853,0.006707
1465407297,-0.040023,-0.003808,-0.000346
1465407297,-0.052896,-0.005024,0.006183
1465407297,-0.06229,-0.00769,0.011454
1465407297,-0.049962,-0.003619,-0.001449
1465407297,-0.053592,-0.008023,0.00816
1465407297,-0.061561,-0.013968,0.011336
1465407297,-0.067821,-0.003684,0.000892
1465407297,-0.062526,-0.008534,-0.003162
1465407297,-0.067361,-0.004432,-0.010582
1465407297,-0.062441,0.001099,-0.023839
1465407297,-0.052794,0.004164,-0.028788
1465407297,-0.039698,0.003998,-0.025222
1465407297,-0.048048,-0.000525,-0.019948
1465407297,-0.051868,-0.002531,-0.027492
1465407297,-0.060973,-0.003965,-0.031988
1465407297,-0.060066,-0.006613,-0.033783
1465407297,-0.051072,-0.005855,-0.039466
1465407297,-0.049454,-0.005936,-0.035547
1465407297,-0.042116,0.001555,-0.045325
1465407297,-0.036738,-0.005294,-0.047013
1465407297,-0.041237,-0.000126,-0.052842
1465407297,-0.033385,-0.004698,-0.05842
1465407297,-0.03368,-0.006159,-0.062345
1465407297,-0.023913,-0.0056,-0.061617
1465407297,-0.026633,-0.002156,-0.061651
1465407297,-0.036086,-0.003721,-0.05774
1465407297,-0.033037,-0.004036,-0.070465
1465407297,-0.031675,0.001786,-0.069426
1465407297,-0.038882,-0.000404,-0.06063
1465407297,-0.0412,-0.003228,-0.067391
1465407297,-0.035878,-0.004315,-0.072512
1465407297,-0.031523,-0.005353,-0.067496
1465407297,-0.028099,-0.005219,-0.064922
1465407297,-0.036617,-0.006999,-0.065437
1465407297,-0.039071,-0.009411,-0.066681
1465407297,-0.037933,-0.003314,-0.073425
1465407297,-0.030905,0.002075,-0.076587
1465407297,-0.041394,-0.00216,-0.070905
1465407297,-0.037717,-0.001537,-0.073037
1465407297,-0.032658,-0.00543,-0.07664
1465407297,-0.022471,-0.004341,-0.085557
1465407297,-0.027554,-0.003597,-0.079918
1465407297,-0.009407,-0.005869,-0.089231
1465407297,0.001936,-0.00337,-0.086093
1465407297,0.003325,-0.000145,-0.084366
1465407297,0.003375,-0.006664,-0.088646
1465407297,0.014314,-0.007365,-0.098648
1465407297,0.016392,-0.000826,-0.103731
1465407297,0.01496,-0.002557,-0.104888
1465407297,0.017587,-0.005664,-0.101436
1465407297,0.023649,-0.004775,-0.097336
1465407297,0.01884,0.002898,-0.104694
1465407297,0.027674,-0.001939,-0.098032
1465407297,0.033193,-0.000558,-0.099174
1465407297,0.040142,0.005005,-0.102328
1465407297,0.046017,-0.004322,-0.08971
1465407297,0.057497,-0.00387,-0.086662
1465407297,0.059333,-0.001119,-0.094906
1465407297,0.061346,-0.005532,-0.097414
1465407297,0.048128,-0.009848,-0.092271
1465407297,0.051294,-0.002894,-0.099436
1465407298,0.061312,-0.003058,-0.080821
1465407298,0.06123,-0.003632,-0.105509
1465407298,0.069996,0.004194,-0.091284
1465407298,0.082535,0.003571,-0.080449
1465407298,0.082708,-0.001905,-0.061219
1465407298,0.088244,0.00536,-0.077849
1465407298,0.099053,-0.001273,-0.074589
1465407298,0.092944,-0.001942,-0.067663
1465407298,0.100409,-0.000032,-0.079295
1465407298,0.102899,-0.004779,-0.049347
1465407298,0.114043,0.00679,-0.069278
1465407298,0.108328,-0.003237,-0.064176
1465407298,0.106474,-0.003822,-0.030336
1465407298,0.128738,0.006944,-0.072143
1465407298,0.129444,0.000979,-0.04526
1465407298,0.124994,0.000926,-0.022843
1465407298,0.144876,0.002728,-0.066035
1465407298,0.134157,-0.002021,-0.014933
1465407298,0.145161,0.007471,-0.020003
1465407298,0.14796,0.001786,-0.022855
1465407298,0.129166,0.000698,0.009767
1465407298,0.148999,0.00134,-0.037579
1465407298,0.145729,0.000172,-0.005699
1465407298,0.150513,0.007004,0.008467
1465407298,0.155994,0.003911,-0.00025
1465407298,0.145189,-0.00091,0.029008
1465407298,0.156556,0.001414,0.005319
1465407298,0.139611,-0.004832,0.046642
1465407298,0.148924,0.004851,0.036508
1465407298,0.150816,0.001432,0.03172
1465407298,0.130646,-0.000916,0.062107
1465407298,0.148065,-0.000654,0.034995
1465407298,0.141017,0.006919,0.072559
1465407298,0.139714,0.006843,0.082578
1465407298,0.149426,0.000044,0.065889
1465407298,0.153055,0.005633,0.073462
1465407298,0.153891,0.003516,0.07835
1465407298,0.133146,0.006259,0.107514
1465407298,0.133252,0.006785,0.0962
1465407298,0.136225,-0.002081,0.087664
1465407298,0.104204,0.000298,0.126044
1465407298,0.113512,-0.00268,0.105278
1465407298,0.095845,0.001969,0.133423
1465407298,0.102322,0.00547,0.123235
1465407298,0.099774,0.000991,0.122796
1465407298,0.036423,0.008869,0.214093
1465407298,-0.04739,0.005486,0.311873
1465407298,-0.085588,-0.005383,0.334251
1465407298,-0.185082,-0.007064,0.426727
1465407298,-0.278006,-0.0052,0.496985
1465407298,-0.333343,0.000836,0.524505
1465407298,-0.420646,0.000886,0.58852
1465407298,-0.509354,-0.002943,0.640769
1465407298,-0.554589,-0.010893,0.652141
1465407298,-0.566787,-0.015124,0.63939
1465407298,-0.516781,-0.008407,0.58673
1465407298,-0.426365,-0.013373,0.480482
1465407298,-0.36186,0.007761,0.440723
1465407298,-0.296583,0.005426,0.390653
1465407298,-0.222342,-0.000823,0.322824
1465407298,-0.148414,-0.002778,0.267527
1465407298,-0.090819,0.001616,0.218
1465407298,-0.031507,-0.001502,0.163042
1465407298,0.03697,0.006972,0.098687
1465407298,0.108006,0.004945,0.010612
1465407298,0.161469,0.003728,-0.061632
1465407298,0.204939,0.008773,-0.126546
1465407298,0.248693,0.011394,-0.198191
1465407298,0.280646,0.007129,-0.275275
1465407298,0.276852,-0.001356,-0.313741
1465407298,0.26496,-0.002217,-0.326661
1465407298,0.251046,0.002435,-0.326963
1465407298,0.237971,-0.003526,-0.3275
1465407298,0.213078,-0.004568,-0.316235
1465407298,0.178385,-0.002857,-0.281305
1465407298,0.136875,-0.00304,-0.232178
1465407298,0.072332,-0.002366,-0.145476
1465407298,0.033826,-0.007155,-0.094879
1465407298,0.01931,-0.008838,-0.065964
1465407298,0.017889,-0.004509,-0.04982
1465407298,0.034761,-0.002232,-0.059027
1465407298,0.051509,-0.000602,-0.068783
1465407298,0.051423,0.001085,-0.053256
1465407298,0.054222,0.007359,-0.044053
1465407298,0.037876,0.000052,-0.024433
1465407298,0.008445,0.000018,0.020352
1465407298,-0.023144,0.001137,0.063076
1465407298,-0.049202,-0.00163,0.097496
1465407298,-0.079804,-0.001944,0.139027
1465407298,-0.109285,0.002521,0.181469
1465407298,-0.131522,0.00157,0.205075
1465407298,-0.159903,-0.009772,0.223659
1465407298,-0.194802,-0.009927,0.25971
1465407298,-0.217436,-0.008057,0.281658
1465407298,-0.227027,-0.006015,0.288608
1465407298,-0.164234,-0.015423,0.196851
1465407298,-0.116077,0.005285,0.158514
1465407298,-0.065256,0.008437,0.108663
1465407298,-0.020883,0.00834,0.055063
1465407298,0.017254,0.002556,0.006097
1465407299,0.048555,0.001685,-0.03189
1465407299,0.064275,0.00205,-0.04901
1465407299,0.078188,0.002762,-0.073991
1465407299,0.068515,-0.00015,-0.074217
1465407299,0.062797,-0.013469,-0.086934
1465407299,0.052712,-0.003255,-0.073509
1465407299,0.046406,-0.002808,-0.059993
1465407299,0.04624,0.00211,-0.065071
1465407299,0.039814,-0.002175,-0.06442
1465407299,-0.007067,-0.004356,-0.007272
1465407299,-0.009724,-0.015681,-0.004472
1465407299,0.012484,-0.01258,-0.027742
1465407299,0.036249,0.001459,-0.023446
1465407299,0.054435,0.006177,-0.038057
1465407299,0.064471,-0.002964,-0.056029
1465407299,0.052898,0.000297,-0.041428
1465407299,0.02566,-0.001056,-0.008383
1465407299,-0.014796,-0.003391,0.031419
1465407299,-0.072865,-0.014841,0.083274
1465407299,-0.100252,0.000671,0.134612
1465407299,-0.117316,0.00476,0.154844
1465407299,-0.107843,-0.007146,0.131738
1465407299,-0.066115,0.004278,0.093418
1465407299,-0.045643,0.003623,0.062924
1465407299,-0.036517,0.004654,0.061047
1465407299,-0.025193,0.007112,0.035021
1465407299,0.003368,0.003682,0.000971
1465407299,0.038494,-0.007971,-0.055917
1465407299,0.085144,0.001917,-0.10512
1465407299,0.105484,0.002649,-0.123681
1465407299,0.051036,0.000307,-0.059199
1465407299,0.011327,-0.001055,-0.025056
1465407299,-0.020018,-0.01146,0.013589
1465407299,-0.053559,-0.004709,0.052394
1465407299,-0.06998,0.009178,0.079731
1465407299,-0.055612,0.006916,0.06462
1465407299,-0.025783,-0.010228,0.00877
1465407299,0.000254,0.004471,-0.013518
1465407299,0.010342,0.003602,-0.020865
1465407299,0.038846,0.002457,-0.04752
1465407299,0.050282,0.003249,-0.057394
1465407299,0.045056,0.002881,-0.038146
1465407299,0.025953,0.023461,-0.002047
1465407299,0.013905,0.002849,-0.001461
1465407299,0.009474,-0.009773,-0.000064
1465407299,-0.01567,0.013837,0.048986
1465407299,-0.036008,0.01345,0.084158
1465407299,-0.040226,0.009944,0.074768
1465407299,-0.054485,0.005195,0.094263
1465407299,-0.069718,0.012288,0.120947
1465407299,-0.01002,0.005673,0.053838
1465407299,0.023762,0.00701,0.019885
1465407299,0.062853,-0.007923,-0.044381
1465407299,0.05329,0.011124,-0.017034
1465407299,0.031698,0.010077,0.004871
1465407299,0.011642,-0.011603,0.008287
1465407299,0.000997,0.00454,0.029609
1465407299,-0.01635,0.00761,0.030809
1465407299,-0.020395,-0.009445,0.024634
1465407299,0.00224,0.014128,0.016317
1465407299,0.024227,0.003959,-0.00617
1465407299,0.032406,-0.00625,-0.033572
1465407299,0.025783,0.011987,-0.028196
1465407299,-0.009706,-0.003084,0.01776
1465407299,-0.040897,-0.015705,0.022841
1465407299,-0.016445,-0.004235,0.008115
1465407299,-0.011631,-0.009671,0.00116
1465407299,-0.001438,-0.000541,-0.000666
1465407299,0.006423,-0.024958,-0.040017
1465407299,-0.011137,-0.005412,0.023549
1465407299,-0.003056,0.006468,0.007016
1465407299,-0.014625,-0.00554,0.020411
1465407299,-0.040606,0.006835,0.061033
1465407299,-0.020801,-0.002973,0.020037
1465407299,0.01795,-0.009215,-0.016377
1465407299,0.022021,0.011146,-0.00862
1465407299,-0.001522,-0.004562,-0.008463
1465407299,-0.005335,-0.028048,-0.041555
1465407299,0.00498,-0.008817,-0.001156
1465407299,0.048839,0.021507,-0.0372
1465407299,0.071332,-0.007276,-0.095525
1465407299,0.046429,-0.018173,-0.080163
1465407299,-0.018697,0.008683,0.03595
1465407299,-0.064167,-0.003954,0.082004
1465407299,-0.068737,0.005446,0.103462
1465407299,-0.049815,-0.007892,0.050963
1465407299,-0.080344,0.016851,0.101569
1465407299,-0.048697,0.014212,0.06435
1465407299,-0.001083,0.008306,0.010985
1465407299,0.004458,0.008661,0.010154
1465407299,0.017302,0.018304,0.006949
1465407299,0.008385,-0.007287,-0.009504
1465407299,0.00045,0.005896,0.023203
1465407299,-0.029977,0.015714,0.045405
1465407299,-0.066795,-0.009227,0.069313
1465407299,-0.076963,0.015724,0.078153
1465407299,-0.03532,-0.00344,0.032659
1465407299,0.011162,-0.006386,0.013412
1465407299,0.050577,0.017616,-0.011547
1465407299,0.056223,0.009534,-0.034946
1465407300,0.020661,0.010202,-0.015252
1465407300,-0.000973,-0.001575,0.021693
1465407300,0.01215,-0.004639,-0.005019
1465407300,-0.008431,-0.030769,-0.028993
1465407300,-0.12464,-0.005512,0.100213
1465407300,-0.147937,0.01194,0.158719
1465407300,-0.058349,-0.032841,0.038524
1465407300,0.113227,0.026244,-0.080293
1465407300,0.032217,0.015411,-0.02126
1465407300,0.145885,0.006918,-0.140537
1465407300,0.178153,-0.020099,-0.171368
1465407300,0.136436,0.022155,-0.136601
1465407300,0.043505,0.010852,-0.036438
1465407300,0.038537,-0.022427,-0.093195
1465407300,-0.005324,-0.029844,0.021328
1465407300,-0.113373,0.025898,0.136284
1465407300,-0.133501,-0.027974,0.130191
1465407300,-0.053816,0.056951,0.053905
1465407300,-0.009937,0.020819,0.024448
1465407300,0.011802,-0.024023,-0.029873
1465407300,0.05651,0.027398,-0.050477
1465407300,0.076523,0.00089,-0.064217
1465407300,0.041987,0.016107,-0.058471
1465407300,-0.017918,-0.004406,0.011205
1465407300,-0.024881,-0.027225,0.017003
1465407300,-0.028183,0.009055,0.040366
1465407300,-0.007895,-0.025701,0.01237
1465407300,-0.009811,0.022381,0.014887
1465407300,0.005602,-0.008174,-0.033162
1465407300,0.008082,-0.003054,-0.028941
1465407300,-0.044357,-0.001369,0.043566
1465407300,-0.021888,-0.034597,0.011525
1465407300,-0.010323,0.005041,0.004158
1465407300,-0.019127,0.004827,0.022305
1465407300,-0.000342,0.001094,-0.002143
1465407300,0.009327,-0.002334,0.002536
1465407300,0.013292,0.026093,0.028681
1465407300,0.032519,0.016101,0.002829
1465407300,0.040195,-0.005675,-0.028879
1465407300,0.006651,0.011277,0.02165
1465407300,-0.010162,0.01309,0.040206
1465407300,0.016812,-0.002028,-0.006063
1465407300,0.035623,0.004494,-0.020335
1465407300,0.032498,0.021191,-0.002684
1465407300,0.029848,0.020575,0.001306
1465407300,0.013799,0.018901,0.016811
1465407300,-0.01231,0.010114,0.026779
1465407300,-0.035531,0.001576,0.046132
1465407300,0.000443,-0.038012,-0.025515
1465407300,0.042838,-0.034539,-0.064416
1465407300,-0.000831,0.017037,0.021098
1465407300,-0.031315,-0.000285,0.043902
1465407300,-0.048434,-0.02881,0.036514
1465407300,-0.10065,-0.008046,0.11064
1465407300,-0.169506,-0.004932,0.191847
1465407300,-0.213111,-0.020714,0.217324
1465407300,-0.205041,-0.011468,0.22303
1465407300,-0.139603,0.007062,0.175085
1465407300,0.090573,0.013903,-0.056466
1465407300,0.170644,0.013336,-0.160315
1465407300,0.198795,0.013565,-0.208641
1465407300,0.187491,0.01179,-0.199109
1465407300,0.151115,0.018056,-0.160759
1465407300,0.11678,0.009353,-0.132299
1465407300,0.055858,-0.005302,-0.084716
1465407300,-0.012942,0.013243,0.025097
1465407300,-0.046416,-0.001723,0.049764
1465407300,-0.069583,-0.026207,0.057763
1465407300,-0.07163,0.015325,0.094723
1465407300,-0.062198,0.005784,0.080814
1465407300,-0.052244,-0.021058,0.038768
1465407300,-0.058778,-0.006035,0.05488
1465407300,-0.036948,-0.005296,0.034291
1465407300,-0.005026,0.015895,0.023168
1465407300,0.050681,-0.000591,-0.061976
1465407300,0.035343,0.000769,-0.045607
1465407300,0.023689,-0.011375,-0.049445
1465407300,0.01927,-0.000932,-0.03192
1465407300,0.027988,0.018682,-0.011199
1465407300,-0.015401,-0.010343,0.035509
1465407300,-0.002501,0.002834,0.057783
1465407300,-0.153642,0.003341,0.217756
1465407300,-0.191904,-0.034359,0.270328
1465407300,0.373623,-0.019412,-0.491391
1465407300,-0.036623,0.055038,0.052118
1465407300,-0.261927,0.01464,0.371023
1465407300,-0.108878,-0.073957,0.074883
1465407300,-0.172701,0.008828,0.289348
1465407300,0.080736,0.013554,-0.033969
1465407300,0.216051,0.003472,-0.284978
1465407300,0.261256,0.007154,-0.316292
1465407300,0.228355,0.014632,-0.280267
1465407300,0.193463,-0.015255,-0.282414
1465407300,0.122402,-0.002535,-0.194711
1465407300,0.002534,-0.008085,-0.039439
1465407300,-0.049286,-0.023672,0.016524
1465407300,-0.072146,-0.030108,0.042156
1465407300,-0.070152,-0.012193,0.066254
1465407300,-0.064368,-0.000678,0.081804
1465407300,-0.054433,0.003229,0.073909
1465407301,-0.034029,0.00907,0.06949
1465407301,-0.013763,0.011575,0.044205
1465407301,0.020388,0.008042,0.005112
1465407301,0.054198,-0.003182,-0.043263
1465407301,0.089158,0.005755,-0.073263
1465407301,0.078794,0.015681,-0.04842
1465407301,0.027352,0.004434,-0.000559
1465407301,0.089496,-0.016574,-0.034754
1465407301,-0.156864,0.054809,0.36184
1465407301,-0.193618,-0.027797,0.252194
1465407301,-0.218987,0.004037,0.436165
1465407301,0.790821,-0.024045,-1.073225
1465407301,-0.14895,0.09863,0.260127
1465407301,-0.288126,-0.054515,0.236421
1465407301,-0.441892,-0.009421,0.594329
1465407301,-0.135957,-0.064941,0.155842
1465407301,0.11744,0.02007,-0.052386
1465407301,0.282429,0.047451,-0.324741
1465407301,0.275599,0.001554,-0.340866
1465407301,0.114149,0.017867,-0.152676
1465407301,0.059995,-0.007719,-0.088807
1465407301,0.059277,0.005107,-0.100674
1465407301,0.157499,-0.006848,-0.210146
1465407301,0.106766,-0.006436,-0.171952
1465407301,-0.183402,0.0069,0.236358
1465407301,-0.081739,-0.014589,0.104055
1465407301,0.132645,-0.024585,-0.176148
1465407301,0.033174,0.014891,-0.023204
1465407301,-0.059068,0.017725,0.118426
1465407301,0.069954,-0.008877,-0.05868
1465407301,0.12208,-0.008684,-0.11844
1465407301,0.026324,0.009867,0.025043
1465407301,0.04876,0.010028,0.009329
1465407301,0.146715,0.000722,-0.118082
1465407301,0.102967,0.006263,-0.050992
1465407301,0.060302,0.008548,0.009528
1465407301,0.110423,0.007961,-0.048432
1465407301,0.113538,0.003696,-0.057782
1465407301,0.070096,-0.001586,-0.014276
1465407301,0.058046,-0.010273,-0.009388
1465407301,0.030012,-0.011489,-0.00683
1465407301,-0.013382,-0.000788,0.042664
1465407301,-0.047169,-0.038375,0.02401
1465407301,-0.022406,-0.001978,0.004604
1465407301,-0.050785,-0.021965,0.021741
1465407301,-0.105017,-0.026193,0.009768
1465407301,-0.108522,0.008445,0.131951
1465407301,0.028112,-0.025066,-0.097136
1465407301,-0.022002,0.017058,0.037667
1465407301,0.018582,-0.026272,-0.023647
1465407301,0.047275,-0.003683,-0.048316
1465407301,0.083669,0.00991,0.00465
1465407301,0.076707,-0.077304,-0.202847
1465407301,-0.037975,0.050033,0.138513
1465407301,0.049439,-0.059041,-0.094714
1465407301,0.121536,0.074645,-0.036554
1465407301,0.00908,-0.025097,0.013039
1465407301,0.080938,0.03034,-0.026112
1465407301,0.032109,-0.010997,-0.026462
1465407301,-0.004059,0.014859,0.03443
1465407301,0.010244,-0.011465,-0.005028
1465407301,0.052499,-0.003702,-0.033623
1465407301,0.044518,-0.004732,-0.013268
1465407301,0.082661,-0.002515,-0.045831
1465407301,0.086455,-0.00325,-0.040761
1465407301,0.066534,0.000941,-0.015145
1465407301,0.03393,-0.003953,0.011458
1465407301,0.06923,0.009804,-0.01257
1465407301,0.074787,-0.008436,-0.024614
1465407301,0.096167,-0.011191,-0.044272
1465407301,0.053045,0.006397,0.013614
1465407301,0.034341,-0.005031,0.011782
1465407301,-0.026792,0.010529,0.073501
1465407301,-0.002488,-0.017114,0.031135
1465407301,0.144401,0.022092,-0.031936
1465407301,0.169067,-0.011979,-0.06727
1465407301,0.167875,0.021905,-0.026473
1465407301,0.069355,-0.017768,-0.000977
1465407301,0.065396,0.023856,0.052663
1465407301,0.167678,-0.013007,-0.050413
1465407301,0.20933,0.031539,-0.025318
1465407301,0.151506,-0.032592,-0.042639
1465407301,0.100706,0.016569,0.033906
1465407301,-0.025453,0.009012,0.120555
1465407301,0.097467,-0.002533,0.027129
1465407301,0.046701,-0.001812,0.050138
1465407301,0.175423,0.016251,0.009515
1465407301,0.184149,0.000791,-0.026675
1465407301,0.19721,0.00202,0.002865
1465407301,0.221259,0.01267,-0.007953
1465407301,0.187624,-0.011448,0.009733
1465407301,0.213123,0.018072,0.017639
1465407301,0.164033,0.003662,0.053058
1465407301,0.00603,-0.023049,0.085594
1465407301,-0.243661,0.062984,0.406827
1465407301,0.290397,-0.023368,-0.073578
1465407301,0.15025,0.005589,0.072005
1465407301,0.065246,0.016068,0.163353
1465407301,0.108584,-0.020697,0.077747
1465407301,0.135812,0.005864,0.086904
1465407302,0.069016,0.019481,0.144236
1465407302,0.104447,-0.008521,0.105665
1465407302,0.136281,-0.000693,0.096963
1465407302,0.112092,-0.00575,0.125396
1465407302,0.088195,0.014057,0.158523
1465407302,0.096375,0.002688,0.137134
1465407302,0.10306,0.011139,0.151249
1465407302,0.095226,0.001059,0.157813
1465407302,0.118849,0.000242,0.155755
1465407302,0.094924,-0.002661,0.162745
1465407302,0.096691,0.003882,0.180812
1465407302,0.089165,0.00013,0.173211
1465407302,0.04566,0.007682,0.200399
1465407302,0.061014,0.003766,0.201344
1465407302,0.044434,-0.001684,0.201239
1465407302,0.029811,0.001841,0.216641
1465407302,0.014269,0.00568,0.224961
1465407302,0.001843,0.002748,0.226704
1465407302,0.028275,-0.002251,0.22804
1465407302,0.005756,-0.003077,0.226469
1465407302,0.018002,-0.008309,0.227498
1465407302,-0.017623,0.008506,0.25526
1465407302,0.011904,-0.013234,0.231293
1465407302,-0.03589,0.001587,0.245381
1465407302,-0.02061,-0.01205,0.239025
1465407302,-0.08693,0.012333,0.256528
1465407302,-0.055938,-0.007287,0.24445
1465407302,-0.101397,0.001389,0.249758
1465407302,-0.073599,-0.019511,0.240863
1465407302,-0.114611,0.004237,0.261612
1465407302,-0.090583,-0.031615,0.229632
1465407302,-0.134733,-0.006647,0.269564
1465407302,-0.131932,-0.037226,0.247147
1465407302,-0.156531,-0.03431,0.237747
1465407302,-0.177205,-0.04304,0.242986
1465407302,-0.195332,-0.042203,0.212947
1465407302,-0.215559,-0.030805,0.230815
1465407302,-0.237526,-0.038339,0.177204
1465407302,-0.265188,-0.035305,0.134896
1465407302,-0.285007,-0.020563,0.157975
1465407302,-0.295682,-0.023354,0.154021
1465407302,-0.292695,-0.024694,0.119566
1465407302,-0.300707,-0.031995,0.082745
1465407302,-0.315094,-0.020015,0.038515
1465407302,-0.316573,-0.015541,0.016539
1465407302,-0.313998,-0.018102,-0.005728
1465407302,-0.320116,-0.017847,-0.010799
1465407302,-0.314071,-0.013,-0.01728
1465407302,-0.286046,-0.020695,-0.083932
1465407302,-0.32707,0.021372,-0.082962
1465407302,-0.289893,-0.009908,-0.107335
1465407302,-0.271591,0.030617,-0.16342
1465407302,-0.262895,0.007101,-0.183591
1465407302,-0.292489,0.042247,-0.162325
1465407302,-0.253515,0.033403,-0.233773
1465407302,-0.232575,0.031472,-0.266402
1465407302,-0.253036,0.01771,-0.21697
1465407302,-0.210174,0.018774,-0.255024
1465407302,-0.185856,0.012105,-0.274769
1465407302,-0.217091,-0.009194,-0.213672
1465407302,-0.192177,-0.014696,-0.242779
1465407302,-0.161215,-0.035476,-0.262873
1465407302,-0.181322,-0.039324,-0.239819
1465407302,-0.155699,-0.053842,-0.242354
1465407302,-0.13561,-0.050658,-0.27107
1465407302,-0.12881,-0.046194,-0.268572
,,,
1465407302,-0.114582,-0.033508,-0.298472
1465407302,-0.110715,-0.021872,-0.312331
1465407302,-0.117108,-0.021723,-0.309168
1465407302,-0.080464,-0.019326,-0.343566
1465407302,-0.070518,-0.018339,-0.334911
1465407302,-0.030024,-0.013352,-0.362395
1465407302,-0.074429,-0.021927,-0.353908
1465407302,-0.033028,-0.018985,-0.368267
1465407302,0.002957,-0.014142,-0.377067
1465407302,0.038127,-0.018278,-0.392996
1465407302,0.017694,-0.021034,-0.383924
1465407302,0.058846,-0.000942,-0.397112
1465407302,0.046688,-0.016898,-0.399726
1465407302,0.084882,-0.011042,-0.398817
1465407302,0.058239,-0.015769,-0.399834
1465407302,0.106783,0.003052,-0.424408
1465407302,0.113334,-0.006651,-0.416256
1465407302,0.122874,-0.01524,-0.423282
1465407302,0.169077,-0.00004,-0.438682
1465407302,0.190964,-0.007017,-0.430801
1465407302,0.198224,-0.014827,-0.430476
1465407302,0.245829,-0.007971,-0.445868
1465407302,0.24482,-0.017218,-0.435032
1465407302,0.256664,-0.014175,-0.45148
1465407302,0.266301,-0.014674,-0.429758
1465407302,0.306516,-0.004749,-0.427775
1465407302,0.303979,-0.006286,-0.413918
1465407302,0.345911,0.004314,-0.384123
1465407302,0.347445,-0.017209,-0.388966
1465407302,0.399392,0.00158,-0.382946
1465407302,0.379639,-0.014707,-0.369193
1465407302,0.436906,-0.008525,-0.388609
1465407302,0.437576,-0.011049,-0.345547
1465407302,0.474095,0.013244,-0.290485
1465407303,0.485407,0.007347,-0.265666
1465407303,0.509627,0.004686,-0.254923
1465407303,0.530667,0.005444,-0.2303
1465407303,0.56395,0.006905,-0.236607
1465407303,0.564753,0.004374,-0.177633
1465407303,0.5929,0.009669,-0.15658
1465407303,0.597184,0.007954,-0.131667
1465407303,0.612169,0.004902,-0.105772
1465407303,0.618472,0.005269,-0.089796
1465407303,0.61069,0.00454,-0.027208
1465407303,0.598952,0.011165,0.054376
1465407303,0.603162,0.024503,0.092407
1465407303,0.624738,0.037577,0.10812
1465407303,0.627833,0.013799,0.11163
1465407303,0.623291,-0.00173,0.127139
1465407303,0.629401,0.009387,0.159061
1465407303,0.619876,0.006778,0.179316
1465407303,0.609292,0.013029,0.212845
1465407303,0.566127,0.016083,0.248915
1465407303,0.540114,0.007285,0.261568
1465407303,0.539825,-0.003002,0.239224
1465407303,0.491323,0.002175,0.297668
1465407303,0.430983,0.002709,0.360799
1465407303,0.414563,-0.002512,0.36264
1465407303,0.427332,-0.00711,0.334152
1465407303,0.390987,0.01479,0.391078
1465407303,0.365749,0.009109,0.414127
1465407303,0.360982,0.003471,0.408838
1465407303,0.376181,0.013772,0.406497
1465407303,0.3767,0.011314,0.41347
1465407303,0.371255,0.013497,0.422063
1465407303,0.357862,0.006996,0.435359
1465407303,0.342325,0.008535,0.452838
1465407303,0.339917,0.007023,0.460956
1465407303,0.32469,0.011569,0.482515
1465407303,0.296293,0.000712,0.496498
1465407303,0.284271,0.001096,0.503571
1465407303,0.264992,0.007231,0.539809
1465407303,0.258103,-0.003047,0.54162
1465407303,0.217647,0.003823,0.574141
1465407303,0.169689,-0.005056,0.603366
1465407303,0.129568,-0.003076,0.608789
1465407303,0.110002,0.001218,0.621398
1465407303,0.082282,-0.003693,0.631741
1465407303,0.050207,-0.007113,0.6481
1465407303,0.041189,-0.011069,0.656065
1465407303,-0.011371,-0.009695,0.676362
1465407303,-0.037276,-0.011141,0.691976
1465407303,-0.095237,-0.011523,0.699154
1465407303,-0.156601,-0.016719,0.712811
1465407303,-0.187633,-0.014531,0.703254
1465407303,-0.266988,-0.013619,0.717224
1465407303,-0.312804,-0.035014,0.687984
1465407303,-0.45708,-0.003009,0.646937
1465407303,-0.353773,-0.04427,0.65411
1465407303,-0.499862,-0.021326,0.580993
1465407303,-0.558048,-0.012984,0.55267
1465407303,-0.643881,-0.030795,0.454246
1465407303,-0.679494,-0.029693,0.423335
1465407303,-0.70964,-0.027414,0.342846
1465407303,-0.74511,-0.029657,0.269457
1465407303,-0.738491,-0.037878,0.192449
1465407303,-0.748278,-0.030151,0.116006
1465407303,-0.767014,-0.050128,0.073411
1465407303,-0.76295,-0.047861,-0.013504
1465407303,-0.726773,-0.051699,-0.164787
1465407303,-0.742354,-0.036519,-0.171591
1465407303,-0.7535,-0.037048,-0.165056
1465407303,-0.734851,-0.037193,-0.258118
1465407303,-0.657301,-0.035912,-0.40936
1465407303,-0.639706,-0.022493,-0.431775
1465407303,-0.635389,-0.0309,-0.404461
1465407303,-0.626697,-0.02584,-0.397942
1465407303,-0.609451,-0.038328,-0.398734
1465407303,-0.58072,-0.044781,-0.423273
1465407303,-0.354758,-0.019604,-0.665413
1465407303,-0.334657,-0.022999,-0.688199
1465407303,-0.348469,-0.04963,-0.581972
1465407303,-0.190332,-0.043993,-0.722878
1465407303,-0.069862,-0.033681,-0.79922
1465407303,-0.05439,-0.048078,-0.758216
1465407303,-0.008124,-0.053217,-0.755602
1465407303,0.065628,-0.02581,-0.812305
1465407303,0.048271,-0.033127,-0.778473
1465407303,0.058104,-0.037181,-0.760893
1465407303,0.124286,-0.020717,-0.79784
1465407303,0.155962,-0.03229,-0.774346
1465407303,0.112937,-0.031362,-0.772987
1465407303,0.223918,-0.036558,-0.797254
1465407303,0.284543,-0.04561,-0.769665
1465407303,0.363287,-0.032686,-0.757495
1465407303,0.402471,-0.033083,-0.754308
1465407303,0.48371,-0.023461,-0.715312
1465407303,0.518801,-0.028905,-0.688179
1465407303,0.573392,-0.014634,-0.63577
1465407303,0.631238,0.004395,-0.5669
1465407303,0.612843,-0.007525,-0.595569
1465407303,0.674808,0.015884,-0.530181
1465407303,0.736174,0.018147,-0.438108
1465407303,0.69342,0.005795,-0.485673
1465407304,0.746799,0.010627,-0.402266
1465407304,0.77212,0.008921,-0.369943
1465407304,0.798221,0.006746,-0.300324
1465407304,0.811879,0.010874,-0.244189
1465407304,0.834417,0.008246,-0.211914
1465407304,0.864961,0.006649,-0.16693
1465407304,0.869191,0.011498,-0.099287
1465407304,0.855442,0.008866,0.011981
1465407304,0.84999,0.013426,0.073518
1465407304,0.873756,0.030754,0.079291
1465407304,0.830844,0.022633,0.196759
1465407304,0.851109,0.019656,0.13626
1465407304,0.822051,0.011121,0.214068
1465407304,0.792728,0.020475,0.276582
1465407304,0.755608,0.013082,0.322913
1465407304,0.740415,0.034412,0.36365
1465407304,0.702141,0.022918,0.393995
1465407304,0.742038,0.010976,0.332063
1465407304,0.629773,0.017755,0.469404
1465407304,0.611086,0.010279,0.480106
1465407304,0.590088,0.006422,0.493041
1465407304,0.568178,0.010306,0.507926
1465407304,0.497475,0.015987,0.578834
1465407304,0.488061,0.001069,0.562723
1465407304,0.498141,0.000981,0.548836
1465407304,0.430299,0.009074,0.604748
1465407304,0.45176,0.003342,0.584873
1465407304,0.40715,-0.003476,0.61058
1465407304,0.361919,0.007857,0.643216
1465407304,0.352539,-0.000426,0.643272
1465407304,0.334256,0.000279,0.652738
1465407304,0.292315,0.009973,0.690383
1465407304,0.2604,0.010978,0.712308
1465407304,0.188347,-0.004285,0.742424
1465407304,0.149994,0.019319,0.755942
1465407304,0.089444,-0.000852,0.766328
1465407304,0.082594,-0.000358,0.757752
1465407304,0.059641,0.004337,0.775922
1465407304,0.027842,-0.00288,0.78168
1465407304,-0.020233,-0.006399,0.803111
1465407304,-0.095789,-0.014491,0.805911
1465407304,-0.160578,-0.016646,0.803133
1465407304,-0.20897,-0.009504,0.786661
1465407304,-0.241293,-0.013641,0.770759
1465407304,-0.293616,-0.001535,0.763969
1465407304,-0.321609,-0.01515,0.731898
1465407304,-0.402738,-0.010072,0.71214
1465407304,-0.453869,-0.021255,0.660593
1465407304,-0.520375,-0.028823,0.597962
1465407304,-0.565429,-0.037524,0.549864
1465407304,-0.593708,-0.035307,0.535302
1465407304,-0.653539,-0.035035,0.510379
1465407304,-0.68749,-0.044892,0.445306
1465407304,-0.729613,-0.047831,0.387874
1465407304,-0.767746,-0.043357,0.321043
1465407304,-0.775475,-0.039224,0.263227
1465407304,-0.799506,-0.023728,0.208828
1465407304,-0.79261,-0.036439,0.116314
1465407304,-0.802083,-0.035135,0.038629
1465407304,-0.790392,-0.033091,-0.037552
1465407304,-0.75724,-0.040806,-0.201728
1465407304,-0.773328,-0.035568,-0.137662
1465407304,-0.742458,-0.041288,-0.237288
1465407304,-0.675911,-0.047328,-0.341012
1465407304,-0.621599,-0.047864,-0.431532
1465407304,-0.570721,-0.041416,-0.472563
1465407304,-0.530639,-0.044623,-0.514441
1465407304,-0.530514,-0.046889,-0.470451
1465407304,-0.491233,-0.038027,-0.488531
1465407304,-0.48886,-0.047156,-0.473856
1465407304,-0.504228,-0.047389,-0.448175
1465407304,-0.558221,-0.050101,-0.444562
1465407304,-0.505623,-0.046628,-0.527093
1465407304,-0.182514,-0.006197,-0.775423
1465407304,-0.073535,-0.016768,-0.819882
1465407304,-0.0747,-0.050022,-0.705485
1465407304,0.073315,-0.042909,-0.809439
1465407304,0.074737,-0.043371,-0.785671
1465407304,0.090488,-0.040646,-0.780972
1465407304,0.107445,-0.046818,-0.770332
1465407304,0.16757,-0.029561,-0.792119
1465407304,0.199468,-0.028846,-0.789207
1465407304,0.235051,-0.031469,-0.790938
1465407304,0.297926,-0.022892,-0.812301
1465407304,0.338449,-0.014469,-0.810617
1465407304,0.381808,-0.022777,-0.804042
1465407304,0.456458,-0.012478,-0.784952
1465407304,0.492957,-0.021779,-0.728191
1465407304,0.572442,-0.004231,-0.672988
1465407304,0.612776,-0.012874,-0.639098
1465407304,0.651454,0.002669,-0.596616
1465407304,0.691509,0.006667,-0.556268
1465407304,0.708281,0.002682,-0.530852
1465407304,0.74621,0.003926,-0.494855
1465407304,0.791232,0.00352,-0.451656
1465407304,0.81986,0.005157,-0.377288
1465407304,0.861149,0.015221,-0.340822
1465407304,0.89048,0.008922,-0.292999
1465407304,0.922583,0.010146,-0.243349
1465407304,0.933249,0.020272,-0.156744
1465407305,0.93475,0.024493,-0.088887
1465407305,0.940073,0.014652,-0.041307
1465407305,0.928176,0.032098,0.089219
1465407305,0.883553,0.012664,0.185037
1465407305,0.952,0.033948,0.118161
1465407305,0.923275,0.017782,0.260545
1465407305,0.91366,0.01763,0.279612
1465407305,0.964037,0.018105,0.147626
1465407305,0.872894,0.012788,0.357528
1465407305,0.842088,0.028122,0.402688
1465407305,0.794925,0.023964,0.453717
1465407305,0.718843,0.010918,0.52404
1465407305,0.672351,0.002018,0.550179
1465407305,0.642936,0.005803,0.57154
1465407305,0.599497,-0.003165,0.588035
1465407305,0.573058,0.009184,0.622489
1465407305,0.55204,-0.006129,0.6159
1465407305,0.546607,0.008982,0.62573
1465407305,0.503993,0.012853,0.648122
1465407305,0.486704,0.014202,0.687296
1465407305,0.47216,-0.001068,0.672322
1465407305,0.44112,0.010466,0.724896
1465407305,0.421539,-0.001023,0.71726
1465407305,0.369628,0.003432,0.757076
1465407305,0.316915,0.002083,0.797437
1465407305,0.275062,-0.003722,0.800295
1465407305,0.240468,-0.00035,0.822088
1465407305,0.194163,-0.005574,0.836794
1465407305,0.156371,-0.007058,0.854258
1465407305,0.116055,-0.005144,0.86947
1465407305,0.068963,0.000165,0.887936
1465407305,-0.017049,0.003149,0.920481
1465407305,-0.076842,0.002177,0.926751
1465407305,-0.153466,0.012598,0.936355
1465407305,-0.232758,0.012559,0.933645
1465407305,-0.305555,-0.01344,0.915017
1465407305,-0.376907,-0.002728,0.906044
1465407305,-0.470011,-0.020285,0.862825
1465407305,-0.513123,-0.045484,0.811482
1465407305,-0.571016,-0.039221,0.7855
1465407305,-0.633566,-0.05209,0.730343
1465407305,-0.679438,-0.035523,0.683369
1465407305,-0.769181,-0.029342,0.624478
1465407305,-0.792911,-0.033199,0.532034
1465407305,-0.821262,-0.031609,0.484791
1465407305,-0.835302,-0.05179,0.400531
1465407305,-0.858639,-0.048829,0.270208
1465407305,-0.861603,-0.046367,0.181309
1465407305,-0.860585,-0.04661,0.105808
1465407305,-0.850757,-0.037359,-0.036186
1465407305,-0.853777,-0.028969,-0.129799
1465407305,-0.834991,-0.024546,-0.194268
1465407305,-0.794449,-0.038781,-0.263822
1465407305,-0.778166,-0.05146,-0.332755
1465407305,-0.720539,-0.054485,-0.441295
1465407305,-0.697617,-0.062761,-0.462118
1465407305,-0.687643,-0.069146,-0.457693
1465407305,-0.672596,-0.058996,-0.474384
1465407305,-0.606411,-0.064068,-0.550045
1465407305,-0.465529,-0.034775,-0.705889
1465407305,-0.417827,-0.05439,-0.715758
1465407305,-0.381314,-0.041789,-0.723111
1465407305,-0.240694,-0.041246,-0.826558
1465407305,-0.197566,-0.045897,-0.828354
1465407305,-0.150613,-0.053392,-0.841612
1465407305,-0.074514,-0.045176,-0.864181
1465407305,0.012137,-0.038854,-0.892142
1465407305,0.054139,-0.033787,-0.893007
1465407305,0.133433,-0.037714,-0.884928
1465407305,0.208453,-0.034089,-0.878517
1465407305,0.243715,-0.035138,-0.879574
1465407305,0.294051,-0.032008,-0.883446
1465407305,0.3599,-0.034167,-0.898496
1465407305,0.427471,-0.024622,-0.879174
1465407305,0.503255,-0.025751,-0.847973
1465407305,0.575859,-0.020623,-0.814521
1465407305,0.628847,-0.024915,-0.773718
1465407305,0.688329,-0.014899,-0.695774
1465407305,0.725338,-0.00124,-0.623169
1465407305,0.759772,0.006837,-0.603734
1465407305,0.785427,0.001568,-0.560863
1465407305,0.822648,0.007381,-0.503857
1465407305,0.854568,-0.000568,-0.448851
1465407305,0.889115,0.016111,-0.39476
1465407305,0.916914,0.009584,-0.337184
1465407305,0.925483,0.009905,-0.234607
1465407305,0.952646,0.019196,-0.169966
1465407305,0.973218,0.013492,-0.09661
1465407305,0.969282,0.007027,-0.024477
1465407305,0.996083,0.015289,0.015314
1465407305,0.984341,0.024966,0.091725
1465407305,0.969682,0.037509,0.17854
1465407305,0.958121,0.022734,0.200493
1465407305,0.942733,0.027773,0.288209
1465407305,0.901451,0.01664,0.338785
1465407305,0.911208,0.023548,0.341339
1465407305,0.866768,0.024459,0.393819
1465407305,0.82584,0.028019,0.45865
1465407305,0.768965,0.020589,0.51831
1465407305,0.716182,0.022021,0.570985
1465407306,0.686945,0.00482,0.569109
1465407306,0.655274,0.008329,0.590985
1465407306,0.610915,0.011217,0.632025
1465407306,0.60028,0.004381,0.62946
1465407306,0.563963,0.003099,0.666068
1465407306,0.530243,-0.00343,0.678615
1465407306,0.492898,-0.003067,0.706135
1465407306,0.460286,0.000388,0.726173
1465407306,0.426551,0.003727,0.749127
1465407306,0.396224,0.009229,0.781148
1465407306,0.352774,0.004164,0.803311
1465407306,0.32483,0.014647,0.81637
1465407306,0.313284,0.002346,0.823223
1465407306,0.247515,-0.004755,0.868212
1465407306,0.271084,0.007992,0.853173
1465407306,0.257459,0.001596,0.874788
1465407306,0.080021,-0.011768,0.953025
1465407306,0.175048,0.000052,0.929665
1465407306,0.028912,-0.010681,0.955134
1465407306,-0.042709,0.004919,0.976756
1465407306,-0.094838,-0.013301,0.97537
1465407306,-0.154327,-0.015132,0.977851
1465407306,-0.261527,-0.004561,1.003815
1465407306,-0.353411,-0.019999,0.96467
1465407306,-0.445893,-0.007027,0.937985
1465407306,-0.532072,-0.01574,0.898724
1465407306,-0.588156,-0.022686,0.869329
1465407306,-0.657296,-0.034156,0.826034
1465407306,-0.729763,-0.036384,0.800589
1465407306,-0.782573,-0.04218,0.730629
1465407306,-0.822523,-0.050237,0.652614
1465407306,-0.874678,-0.045389,0.584741
1465407306,-0.932135,-0.056671,0.478767
1465407306,-0.967159,-0.040463,0.374203
1465407306,-0.966138,-0.04994,0.234242
1465407306,-0.995354,-0.048408,0.13069
1465407306,-0.980312,-0.062569,0.027518
1465407306,-0.978217,-0.050209,-0.063401
1465407306,-0.956083,-0.051785,-0.160215
1465407306,-0.95135,-0.053807,-0.201978
1465407306,-0.91148,-0.06301,-0.326087
1465407306,-0.859867,-0.048455,-0.410241
1465407306,-0.834419,-0.062156,-0.492017
1465407306,-0.761252,-0.05424,-0.552414
1465407306,-0.745239,-0.069258,-0.582217
1465407306,-0.745009,-0.069929,-0.570791
1465407306,-0.594011,-0.071705,-0.729487
1465407306,-0.405741,-0.033772,-0.904113
1465407306,-0.413552,-0.066672,-0.825221
1465407306,-0.353425,-0.053187,-0.84321
1465407306,-0.235947,-0.054602,-0.930997
1465407306,-0.170208,-0.058312,-0.940415
1465407306,-0.100385,-0.048199,-0.965548
1465407306,-0.00566,-0.054576,-1.001424
1465407306,0.078721,-0.037491,-1.058051
1465407306,0.275174,-0.043011,-1.053509
1465407306,0.158915,-0.051045,-1.058978
1465407306,0.454309,-0.036427,-0.97165
1465407306,0.498135,-0.030306,-0.936156
1465407306,0.551724,-0.020237,-0.929289
1465407306,0.615098,-0.02056,-0.887744
1465407306,0.727967,-0.004076,-0.818979
1465407306,0.661152,-0.021802,-0.850975
1465407306,0.793012,-0.004054,-0.733782
1465407306,0.851023,0.007492,-0.671006
1465407306,0.918449,0.01652,-0.6172
1465407306,0.959479,-0.004085,-0.549528
1465407306,1.081288,0.005104,-0.394642
1465407306,1.032394,0.015455,-0.479225
1465407306,1.100289,0.007404,-0.273208
1465407306,1.125773,0.016059,-0.207759
1465407306,1.149594,0.007373,-0.137565
1465407306,1.140056,0.004052,-0.04798
1465407306,1.172688,0.013174,-0.013547
1465407306,1.16025,0.016344,0.101551
1465407306,1.122694,0.038264,0.241731
1465407306,1.16913,0.035364,0.201674
1465407306,1.123313,0.027928,0.314292
1465407306,1.084769,0.012916,0.410758
1465407306,1.064111,0.034952,0.468282
1465407306,0.991467,0.034877,0.55624
1465407306,0.934747,0.032452,0.597622
1465407306,0.865188,0.013436,0.643213
1465407306,0.665657,0.02842,0.834462
1465407306,0.67082,0.011399,0.775889
1465407306,0.843054,-0.002627,0.58432
1465407306,1.10429,-0.074914,0.28322
1465407306,0.407852,0.096716,1.099545
1465407306,0.361406,0.062546,1.091129
1465407306,0.790131,-0.159284,0.486611
1465407306,0.50653,0.091438,0.977378
1465407306,0.39358,0.02144,1.008454
1465407306,0.272407,0.099341,1.109288
1465407306,0.542596,-0.081044,0.754332
1465407306,0.352469,-0.035152,0.923347
1465407306,0.319126,-0.028612,0.924633
1465407306,0.185276,0.063991,1.097312
1465407306,0.215799,-0.049879,0.97576
1465407306,0.099139,0.034924,1.101897
1465407306,0.050749,0.004093,1.107377
1465407307,-0.038724,-0.023886,1.102953
1465407307,-0.138294,0.013431,1.158441
1465407307,-0.220646,-0.027074,1.113335
1465407307,-0.32725,-0.008858,1.123146
1465407307,-0.426101,-0.02448,1.069571
1465407307,-0.513078,-0.020875,1.017287
1465407307,-0.587884,-0.008979,0.994289
1465407307,-0.661693,-0.030002,0.920716
1465407307,-0.736947,-0.029866,0.865313
1465407307,-0.81613,-0.021346,0.784025
1465407307,-0.924096,-0.039177,0.620452
1465407307,-0.851388,-0.050263,0.684378
1465407307,-0.948189,-0.062265,0.492356
1465407307,-0.996137,-0.081149,0.20186
1465407307,-1.002777,-0.065326,0.395748
1465407307,-1.021179,-0.047031,0.092589
1465407307,-1.041193,-0.051948,0.026247
1465407307,-1.017243,-0.062496,-0.146488
1465407307,-1.001205,-0.043714,-0.244669
1465407307,-0.955128,-0.056038,-0.396367
1465407307,-0.99679,-0.057031,-0.293861
1465407307,-0.933974,-0.064898,-0.4657
1465407307,-0.953205,-0.061303,-0.452933
1465407307,-0.8461,-0.079536,-0.620091
1465407307,-0.771251,-0.065616,-0.731163
1465407307,-0.732604,-0.071378,-0.752716
1465407307,-0.730467,-0.065283,-0.731235
1465407307,-0.624408,-0.065832,-0.815653
1465407307,-0.4927,-0.06141,-0.855426
1465407307,-0.478101,-0.05047,-0.912936
1465407307,-0.385284,-0.05805,-0.915638
1465407307,-0.222512,-0.04248,-0.996821
1465407307,-0.168882,-0.055295,-0.992051
1465407307,-0.060179,-0.039784,-1.039483
1465407307,0.06004,-0.043898,-1.087585
1465407307,0.191606,-0.04445,-1.105088
1465407307,0.339314,-0.041253,-1.10034
1465407307,0.518067,-0.02562,-1.022321
1465407307,0.427469,-0.036939,-1.06975
1465407307,0.576313,-0.025273,-0.96675
1465407307,0.625401,-0.016885,-0.921413
1465407307,0.669055,-0.011301,-0.910997
1465407307,0.710054,-0.016588,-0.899793
1465407307,0.836016,-0.00555,-0.777986
1465407307,0.776242,-0.009828,-0.851859
1465407307,0.891436,0.01188,-0.691098
1465407307,0.944531,0.004287,-0.518443
1465407307,0.91697,0.010763,-0.591156
1465407307,0.961919,-0.004168,-0.432818
1465407307,1.013103,0.008795,-0.372186
1465407307,1.026121,-0.005606,-0.261642
1465407307,1.07534,0.007281,-0.205376
1465407307,1.118507,0.004458,-0.169288
1465407307,1.129162,0.003699,-0.061257
1465407307,1.129785,0.018897,0.05953
1465407307,1.157503,0.040044,0.122965
1465407307,1.148084,0.042435,0.17911
1465407307,1.136229,0.031037,0.235447
1465407307,1.104631,0.02023,0.310468
1465407307,1.035669,0.026133,0.441613
1465407307,0.996547,0.022999,0.507544
1465407307,0.957516,0.02482,0.551756
1465407307,0.905261,0.036521,0.605755
1465407307,0.819975,0.01705,0.653889
1465407307,0.731943,0.037801,0.737398
1465407307,0.751049,0.007347,0.676985
1465407307,0.823441,0.004888,0.602493
1465407307,0.80879,0.006236,0.643586
1465407307,0.65682,0.006553,0.791366
1465407307,0.523122,0.015974,0.905766
1465407307,0.553736,-0.021181,0.818268
1465407307,0.471605,0.002941,0.888348
1465407307,0.389085,0.01733,0.941802
1465407307,0.425835,-0.010282,0.873878
1465407307,0.375832,0.010181,0.921269
1465407307,0.348941,0.006671,0.945292
,,,
1465407307,0.338819,-0.002469,0.936826
1465407307,0.275515,0.008619,0.99027
1465407307,0.245928,-0.004487,0.999714
1465407307,0.200342,0.007193,1.020623
1465407307,0.150623,-0.008124,1.030588
1465407307,0.102854,0.010593,1.057423
1465407307,0.00271,0.007806,1.071109
1465407307,-0.127052,-0.013222,1.068594
1465407307,-0.228633,-0.004255,1.070978
1465407307,-0.288093,-0.020112,1.044764
1465407307,-0.388334,-0.010586,1.053101
1465407307,-0.450479,-0.027693,1.044974
1465407307,-0.538318,-0.031898,1.036006
1465407307,-0.659595,-0.056327,1.005036
1465407307,-0.746717,-0.054368,0.942487
1465407307,-0.819679,-0.050919,0.890671
1465407307,-0.894293,-0.058691,0.814367
1465407307,-0.975657,-0.058243,0.699224
1465407307,-1.033704,-0.032188,0.451036
1465407307,-0.986686,-0.038195,0.560788
1465407307,-1.038044,-0.034747,0.329085
1465407307,-1.049187,-0.031715,0.188972
1465407307,-1.03536,-0.030272,0.088216
1465407307,-1.030537,-0.027152,-0.028035
1465407308,-0.995256,-0.042446,-0.185164
1465407308,-0.981694,-0.034276,-0.276489
1465407308,-0.964146,-0.052815,-0.333231
1465407308,-0.833899,-0.068168,-0.584838
1465407308,-0.933835,-0.0546,-0.438074
1465407308,-0.796487,-0.060663,-0.636403
1465407308,-0.704288,-0.072692,-0.732097
1465407308,-0.817205,-0.077901,-0.582944
1465407308,-0.512379,-0.062669,-0.946275
1465407308,-0.489087,-0.07962,-0.830685
1465407308,-0.337735,-0.061529,-0.979077
1465407308,-0.300197,-0.066291,-0.961401
1465407308,-0.209328,-0.066684,-1.00602
1465407308,-0.098471,-0.053029,-1.063804
1465407308,0.014374,-0.047273,-1.077616
1465407308,0.209167,-0.052349,-1.089878
1465407308,0.103201,-0.059991,-1.100795
1465407308,0.326795,-0.041125,-1.097148
1465407308,0.408136,-0.043212,-1.059625
1465407308,0.478528,-0.041413,-1.034771
1465407308,0.558165,-0.029102,-1.01455
1465407308,0.708297,-0.021789,-0.886864
1465407308,0.644004,-0.024878,-0.973173
1465407308,0.770119,-0.005572,-0.848202
1465407308,0.890089,0.003519,-0.710144
1465407308,0.83252,-0.003974,-0.79458
1465407308,0.921263,-0.002815,-0.66922
1465407308,1.023594,-0.00511,-0.509825
1465407308,0.966074,0.000051,-0.624891
1465407308,1.047246,-0.004467,-0.33263
1465407308,1.148486,0.010551,-0.280335
1465407308,1.104571,0.010086,-0.308437
1465407308,1.167328,-0.00527,-0.167564
1465407308,1.21388,0.030445,0.04414
1465407308,1.192137,0.017131,-0.044657
1465407308,1.229928,0.040875,0.080753
1465407308,1.203294,0.058187,0.208987
1465407308,1.166288,0.037633,0.281674
1465407308,1.133026,0.031214,0.32058
1465407308,1.008263,0.032231,0.518534
1465407308,1.066515,0.019438,0.416748
1465407308,0.95356,0.019368,0.567854
1465407308,0.941073,0.014761,0.554434
1465407308,0.819939,0.015039,0.670274
1465407308,0.707949,0.024032,0.773767
1465407308,0.768135,0.00636,0.638041
1465407308,0.711927,0.001552,0.703712
1465407308,0.783725,-0.005967,0.628502
1465407308,0.809581,0.011903,0.654105
1465407308,0.642939,0.001049,0.807613
1465407308,0.474659,0.042797,0.982415
1465407308,0.526385,-0.024834,0.845798
1465407308,0.443395,-0.000349,0.911634
1465407308,0.419219,0.027443,0.943089
1465407308,0.466081,-0.029439,0.862414
1465407308,0.414973,0.010545,0.961397
1465407308,0.348479,0.003914,1.005464
1465407308,0.194399,0.012321,1.08608
1465407308,0.290212,-0.001971,1.027321
1465407308,0.112197,0.007355,1.101762
1465407308,0.032386,0.018523,1.143369
1465407308,-0.098836,0.008492,1.169222
1465407308,-0.164022,-0.001431,1.147269
1465407308,-0.384833,-0.008457,1.15058
1465407308,-0.269592,0.005989,1.156385
1465407308,-0.467681,-0.014887,1.117595
1465407308,-0.568447,-0.01679,1.097036
1465407308,-0.657614,-0.033189,1.035079
1465407308,-0.724999,-0.040952,0.970155
1465407308,-0.821741,-0.045798,0.911724
1465407308,-0.893896,-0.05122,0.813003
1465407308,-0.947958,-0.056591,0.670143
1465407308,-1.000819,-0.047337,0.501386
1465407308,-0.991346,-0.062201,0.347604
1465407308,-1.032851,-0.045251,0.257224
1465407308,-1.03894,-0.051958,0.139961
1465407308,-1.057706,-0.055329,0.047561
1465407308,-1.054574,-0.054779,-0.060661
1465407308,-1.053375,-0.067354,-0.170395
1465407308,-1.000647,-0.072553,-0.343437
1465407308,-0.98211,-0.060937,-0.423761
1465407308,-0.867515,-0.050958,-0.617096
1465407308,-0.941226,-0.070227,-0.499642
1465407308,-0.831391,-0.067456,-0.666037
1465407308,-0.852728,-0.06307,-0.64578
1465407308,-0.794009,-0.064968,-0.717131
1465407308,-0.607394,-0.04311,-0.933075
1465407308,-0.588922,-0.057281,-0.890456
1465407308,-0.572072,-0.080867,-0.859588
1465407308,-0.407595,-0.07062,-0.985603
1465407308,-0.331978,-0.070005,-0.9973
1465407308,-0.280442,-0.068046,-1.010645
1465407308,-0.128253,-0.061297,-1.08788
1465407308,-0.029004,-0.061136,-1.105497
1465407308,0.12382,-0.046922,-1.153275
1465407308,0.259411,-0.043041,-1.181151
1465407308,0.366044,-0.03236,-1.169133
1465407308,0.474729,-0.037242,-1.141329
1465407308,0.553531,-0.02686,-1.096659
1465407309,0.702665,-0.022774,-0.996896
1465407308,0.640593,-0.027814,-1.067505
1465407309,0.77457,-0.01241,-0.949
1465407309,0.829874,-0.009159,-0.902717
1465407309,0.893996,-0.008998,-0.833756
1465407309,0.952013,0.000167,-0.792751
1465407309,1.071724,0.006539,-0.573385
1465407309,1.018822,0.003502,-0.721089
1465407309,1.128771,0.016957,-0.485785
1465407309,1.152269,0.007999,-0.417248
1465407309,1.194419,0.013979,-0.33462
1465407309,1.222463,-0.007247,-0.24478
1465407309,1.250819,0.021515,-0.110684
1465407309,1.268448,0.009486,-0.047051
1465407309,1.297071,0.023162,0.011276
1465407309,1.281363,0.032215,0.145128
1465407309,1.24093,0.045354,0.251935
1465407309,1.198735,0.036884,0.341321
1465407309,1.154172,0.018823,0.436056
1465407309,1.082368,0.035742,0.555318
1465407309,1.078137,0.032832,0.544062
1465407309,0.966982,0.026105,0.677032
1465407309,1.069345,0.027898,0.557864
1465407309,0.871415,0.025867,0.754493
1465407309,0.776482,0.009888,0.822259
1465407309,0.797589,-0.003664,0.757475
1465407309,0.872999,-0.001678,0.699259
1465407309,0.806483,0.005289,0.781139
1465407309,0.589678,0.035878,1.007322
1465407309,0.567731,0.004511,0.969252
1465407309,0.504772,0.028347,0.99426
1465407309,0.558779,-0.018606,0.924514
1465407309,0.474731,-0.011034,0.976971
1465407309,0.403901,0.012487,1.044226
1465407309,0.384219,0.003205,1.041926
1465407309,0.346052,-0.009037,1.055983
1465407309,0.282936,0.010939,1.126967
1465407309,0.198479,-0.014875,1.142674
1465407309,0.113967,-0.006393,1.182883
1465407309,-0.012394,0.004535,1.212184
1465407309,-0.137057,-0.014291,1.223581
1465407309,-0.216929,-0.020496,1.200091
1465407309,-0.314996,-0.018045,1.201744
1465407309,-0.391058,-0.013644,1.202722
1465407309,-0.485773,-0.018152,1.18526
1465407309,-0.607648,-0.024338,1.165814
1465407309,-0.717932,-0.02864,1.11253
1465407309,-0.90783,-0.035093,0.945139
1465407309,-0.794291,-0.03751,1.038291
1465407309,-0.975414,-0.050696,0.784993
1465407309,-1.035132,-0.053137,0.629978
1465407309,-1.070666,-0.045379,0.515848
1465407309,-1.076754,-0.066899,0.371176
1465407309,-1.110858,-0.048886,0.283394
1465407309,-1.120739,-0.063954,0.141369
1465407309,-1.130231,-0.071054,-0.003228
1465407309,-1.123333,-0.07656,-0.161744
1465407309,-1.111043,-0.067414,-0.25105
1465407309,-1.110765,-0.057568,-0.320217
1465407309,-0.981453,-0.070426,-0.609965
1465407309,-1.028286,-0.059787,-0.497705
1465407309,-0.941501,-0.06337,-0.655503
1465407309,-0.793701,-0.071892,-0.836878
1465407309,-0.739565,-0.061038,-0.862272
1465407309,-0.718977,-0.082486,-0.864011
1465407309,-0.581401,-0.078687,-0.958518
1465407309,-0.467134,-0.059923,-1.035174
1465407309,-0.432052,-0.081831,-1.012382
1465407309,-0.151743,-0.057237,-1.146493
1465407309,-0.285622,-0.06448,-1.10547
1465407309,-0.005283,-0.07153,-1.179227
1465407309,0.13167,-0.04433,-1.222008
1465407309,0.27691,-0.048189,-1.220006
1465407309,0.394731,-0.044707,-1.209305
1465407309,0.601608,-0.024189,-1.15125
1465407309,0.490142,-0.040708,-1.187397
1465407309,0.68054,-0.032864,-1.080942
1465407309,0.766662,-0.013273,-1.012871
1465407309,0.829203,-0.010483,-0.956826
1465407309,0.901594,0.004693,-0.895493
1465407309,1.024484,0.006672,-0.77038
1465407309,0.920632,-0.020159,-0.85856
1465407309,1.070897,-0.001072,-0.649133
1465407309,1.131085,0.014215,-0.529309
1465407309,1.16084,0.003498,-0.481456
1465407309,1.207634,0.001839,-0.443622
1465407309,1.235252,-0.000725,-0.344726
1465407309,1.272102,0.006921,-0.227808
1465407309,1.287053,0.007426,-0.103243
1465407309,1.31462,0.026393,-0.00516
1465407309,1.30439,0.045931,0.199942
1465407309,1.323163,0.025472,0.078956
1465407309,1.240425,0.039443,0.328124
1465407309,1.190355,0.030269,0.40406
1465407309,1.173845,0.027429,0.442831
1465407309,1.161533,0.021511,0.476092
1465407309,1.008066,0.026021,0.661591
1465407309,1.074976,0.03765,0.596011
1465407309,0.96,0.023352,0.700261
1465407309,0.835443,0.01064,0.796567
1465407309,0.714361,0.029348,0.910598
1465407310,0.792931,-0.014721,0.746435
1465407310,0.847655,-0.000254,0.715889
1465407310,0.862314,0.009344,0.747858
1465407310,0.650677,0.017214,0.954473
1465407310,0.561358,0.05332,1.049457
1465407310,0.624195,-0.041701,0.888185
1465407310,0.531475,0.025799,1.015866
1465407310,0.467969,0.003888,1.04388
1465407310,0.490512,-0.011004,1.011431
1465407310,0.427505,0.003779,1.084983
1465407310,0.371067,-0.019058,1.113675
1465407310,0.290419,-0.001358,1.178174
1465407310,0.153962,-0.001838,1.238108
1465407310,0.072113,-0.013686,1.235547
1465407310,-0.041973,0.021421,1.284734
1465407310,-0.090358,-0.003528,1.260836
1465407310,-0.17348,-0.01087,1.273955
1465407310,-0.32103,0.003217,1.306111
1465407310,-0.425545,-0.008291,1.283732
1465407310,-0.550296,-0.014749,1.277285
1465407310,-0.651138,-0.02878,1.255631
1465407310,-0.778865,-0.033237,1.224192
1465407310,-1.032733,-0.052071,1.007473
1465407310,-0.912488,-0.04348,1.148105
1465407310,-1.114164,-0.072104,0.816631
1465407310,-1.161391,-0.064791,0.565278
1465407310,-1.139946,-0.066518,0.694422
1465407310,-1.175448,-0.075301,0.408508
1465407310,-1.213669,-0.067726,0.267361
1465407310,-1.236226,-0.053087,0.161537
1465407310,-1.22007,-0.056859,-0.056706
1465407310,-1.187721,-0.067636,-0.254027
1465407310,-1.196366,-0.058888,-0.307252
1465407310,-1.131089,-0.067461,-0.47732
1465407310,-1.023851,-0.074234,-0.654671
1465407310,-0.95257,-0.082093,-0.748604
1465407310,-0.864618,-0.086824,-0.827698
1465407310,-0.817469,-0.095237,-0.830915
1465407310,-0.843463,-0.078316,-0.83513
1465407310,-0.763398,-0.088506,-0.883723
1465407310,-0.452945,-0.056694,-1.15173
1465407310,-0.553415,-0.051508,-1.076611
1465407310,-0.371805,-0.067954,-1.128333
1465407310,-0.031524,-0.052373,-1.259708
1465407310,-0.174367,-0.057093,-1.241041
1465407310,0.087916,-0.055433,-1.250208
1465407310,0.241955,-0.051764,-1.266925
1465407310,0.330259,-0.054698,-1.242214
1465407310,0.4745,-0.042744,-1.262206
1465407310,0.537196,-0.033836,-1.241154
1465407310,0.640114,-0.028447,-1.187948
1465407310,0.735134,-0.014041,-1.113317
1465407310,0.859196,0.000691,-1.04345
1465407310,0.906911,-0.008992,-0.959747
1465407310,0.978781,-0.012854,-0.877878
1465407310,1.04691,-0.000283,-0.810809
1465407310,1.095249,-0.009518,-0.698908
1465407310,1.162344,0.015552,-0.628454
1465407310,1.231085,0.013126,-0.461694
1465407310,1.185498,0.004188,-0.532146
1465407310,1.265083,-0.001502,-0.378265
1465407310,1.347978,0.003438,-0.171018
1465407310,1.30283,0.007636,-0.250004
1465407310,1.372738,0.017164,-0.047688
1465407310,1.368361,0.016035,0.09337
1465407310,1.322618,0.037291,0.266107
1465407310,1.302562,0.05558,0.361911
1465407310,1.320037,0.030065,0.330311
1465407310,1.274966,0.03401,0.455753
1465407310,1.17886,0.0394,0.60728
1465407310,1.175317,0.044867,0.611019
1465407310,1.108755,0.021392,0.655693
1465407310,0.962163,0.015832,0.800789
1465407310,0.551291,0.004313,1.078525
1465407310,0.67191,0.041575,1.089416
1465407310,0.733591,-0.010896,0.800084
1465407310,0.857462,-0.012117,0.681441
1465407310,0.746026,0.022269,0.828292
1465407310,0.685834,0.02871,0.898699
1465407310,0.902387,-0.014478,0.789825
1465407310,0.810661,-0.00783,0.801535
1465407310,0.421578,0.030477,1.210737
1465407310,0.419201,0.029524,1.19142
1465407310,0.454695,-0.081885,1.012276
1465407310,0.31087,0.060952,1.225667
1465407310,0.320131,-0.037516,1.134238
1465407310,0.237452,0.004813,1.19381
1465407310,0.12167,0.019677,1.257769
1465407310,0.063393,-0.023357,1.20303
1465407310,-0.079211,0.027813,1.293486
1465407310,-0.135593,-0.01958,1.247345
1465407310,-0.268198,0.003176,1.292011
1465407310,-0.343142,-0.025987,1.268961
1465407310,-0.580006,-0.020873,1.261095
1465407310,-0.461028,-0.027684,1.270242
1465407310,-0.685742,-0.055633,1.178309
1465407310,-0.822525,-0.028334,1.143409
1465407310,-1.013672,-0.061714,0.848484
1465407310,-0.930336,-0.061169,1.006092
1465407311,-1.113905,-0.053294,0.634664
1465407310,-1.074078,-0.047011,0.760509
1465407311,-1.134241,-0.061315,0.478695
1465407311,-1.176058,-0.056834,0.349193
1465407311,-1.180988,-0.063501,0.18826
1465407311,-1.187369,-0.053499,0.057743
1465407311,-1.154527,-0.069216,-0.243576
1465407311,-1.206046,-0.057259,-0.076752
1465407311,-1.123116,-0.082369,-0.392615
1465407311,-1.003025,-0.075809,-0.638124
1465407311,-1.050285,-0.080984,-0.541449
1465407311,-0.897411,-0.074953,-0.771151
1465407311,-0.771246,-0.061629,-0.856981
1465407311,-0.801091,-0.055491,-0.798759
1465407311,-0.820114,-0.071581,-0.820106
1465407311,-0.712396,-0.070766,-0.911986
1465407311,-0.374077,-0.030527,-1.213068
1465407311,-0.320233,-0.060222,-1.155581
1465407311,-0.147012,-0.07795,-1.173833
1465407311,0.06493,-0.071803,-1.257601
1465407311,0.133227,-0.07,-1.218942
1465407311,0.346088,-0.053497,-1.27921
1465407311,0.256065,-0.054876,-1.258167
1465407311,0.442707,-0.042002,-1.277004
1465407311,0.526639,-0.041049,-1.234214
1465407311,0.636159,-0.021098,-1.185502
1465407311,0.711043,-0.033902,-1.120659
1465407311,0.774659,-0.009385,-1.083951
1465407311,0.844226,-0.01271,-1.009034
1465407311,0.913396,-0.016256,-0.925108
1465407311,0.966743,-0.012429,-0.821286
1465407311,1.004105,-0.000593,-0.723537
1465407311,1.027724,0.006483,-0.655677
1465407311,1.052351,0.006764,-0.556791
1465407311,1.09346,0.002481,-0.491564
1465407311,1.141315,-0.004121,-0.429936
1465407311,1.191389,-0.008784,-0.366775
1465407311,1.324283,-0.012117,-0.138657
1465407311,1.270201,0.004488,-0.265567
1465407311,1.384021,0.025532,0.002393
1465407311,1.381343,0.033134,0.183088
1465407311,1.396087,0.066105,0.238973
1465407311,1.387388,0.0564,0.261977
1465407311,1.238482,0.051181,0.490163
1465407311,1.311789,0.036912,0.366192
1465407311,1.180751,0.038839,0.53444
1465407311,1.151816,0.021351,0.539239
1465407311,1.04946,0.014249,0.656061
1465407311,0.904616,0.009869,0.802991
1465407311,0.758838,0.024629,0.929685
1465407311,0.804572,0.002765,0.806089
1465407311,0.893691,-0.012639,0.704431
1465407311,0.726634,0.008819,0.927393
1465407311,0.879896,0.001418,0.751632
1465407311,0.623568,0.035042,1.03375
1465407311,0.650296,-0.025569,0.937603
1465407311,0.573086,0.009131,1.012079
1465407311,0.483819,0.01,1.068622
1465407311,0.460127,-0.014852,1.047732
1465407311,0.350676,0.011591,1.123245
1465407311,0.28023,0.014264,1.158308
1465407311,0.10651,0.006557,1.208012
1465407311,0.18142,0.000978,1.175995
1465407311,0.069587,-0.00629,1.190948
1465407311,-0.041639,0.001907,1.239918
1465407311,-0.086466,-0.007503,1.218095
1465407311,-0.203142,-0.013494,1.229293
1465407311,-0.298206,-0.004993,1.232131
1465407311,-0.406132,-0.027877,1.1941
1465407311,-0.500852,-0.013546,1.18438
1465407311,-0.766171,-0.037928,1.045918
1465407311,-0.638829,-0.022391,1.139396
1465407311,-0.862021,-0.042828,0.95044
1465407311,-0.971528,-0.066383,0.749557
1465407311,-0.929716,-0.054402,0.838511
1465407311,-1.046232,-0.047294,0.677
1465407311,-1.085401,-0.065863,0.526006
1465407311,-1.123581,-0.047424,0.400433
1465407311,-1.132677,-0.054105,0.266964
1465407311,-1.155032,-0.061202,0.136192
1465407311,-1.153104,-0.057356,-0.009386
1465407311,-1.163724,-0.061121,-0.113165
1465407311,-1.112884,-0.083573,-0.270033
1465407311,-1.060837,-0.079672,-0.454785
1465407311,-0.989044,-0.069493,-0.56039
1465407311,-0.966675,-0.071778,-0.590677
1465407311,-0.942826,-0.069594,-0.624314
1465407311,-0.819048,-0.058746,-0.777982
1465407311,-0.740132,-0.050497,-0.85282
1465407311,-0.741354,-0.072119,-0.826661
1465407311,-0.61533,-0.059428,-0.92728
1465407311,-0.420534,-0.041272,-1.102041
1465407311,-0.370884,-0.062563,-1.062338
1465407311,-0.201248,-0.051795,-1.124952
1465407311,-0.026247,-0.055952,-1.176448
1465407311,0.04404,-0.07519,-1.150901
1465407311,0.168384,-0.073897,-1.180516
1465407311,0.298407,-0.052022,-1.207636
1465407311,0.405245,-0.051679,-1.206937
1465407311,0.502106,-0.050619,-1.17156
1465407311,0.605563,-0.021858,-1.12604
1465407312,0.692691,-0.015818,-1.057215
1465407312,0.739016,-0.015842,-1.00756
1465407312,0.807683,-0.003916,-0.94391
1465407312,0.870973,-0.005737,-0.881292
1465407312,0.940989,0.007237,-0.785599
1465407312,0.984698,-0.000578,-0.710446
1465407312,1.040082,0.00631,-0.648257
1465407312,1.082036,0.003786,-0.587485
1465407312,1.139761,0.001834,-0.519263
1465407312,1.186223,0.005522,-0.428146
1465407312,1.217998,0.007499,-0.337269
1465407312,1.281995,0.026867,-0.260711
1465407312,1.308476,-0.002924,-0.151798
1465407312,1.29846,0.022048,0.045648
1465407312,1.279911,0.031709,0.180891
1465407312,1.282106,0.034685,0.183845
1465407312,1.24781,0.039147,0.261768
1465407312,1.192563,0.04134,0.363716
1465407312,1.163763,0.029526,0.40961
1465407312,1.116982,0.012909,0.471914
1465407312,1.047909,0.025391,0.590513
1465407312,1.004962,0.020845,0.643299
1465407312,0.965016,0.01971,0.684534
1465407312,0.834326,0.005441,0.795812
1465407312,0.630032,0.038106,1.000173
1465407312,0.577161,0.007711,0.943962
1465407312,0.665687,-0.003876,0.798319
1465407312,0.92921,-0.006824,0.551872
1465407312,0.924802,-0.017297,0.622481
1465407312,0.426204,0.06167,1.13706
1465407312,0.638595,0.049151,0.942596
1465407312,0.588153,-0.053058,0.891613
1465407312,0.50477,-0.009041,0.984052
1465407312,0.428246,0.016803,1.06365
1465407312,0.407095,-0.038077,1.005412
1465407312,0.237235,-0.028849,1.080385
1465407312,0.253251,0.038301,1.157992
1465407312,0.158489,0.00812,1.123482
1465407312,0.082032,0.011329,1.174767
1465407312,0.041167,-0.023746,1.137736
1465407312,-0.050936,0.027526,1.209989
1465407312,-0.159051,-0.008756,1.195673
1465407312,-0.235226,-0.006137,1.202005
1465407312,-0.320884,-0.025806,1.191962
1465407312,-0.428681,-0.031831,1.175531
1465407312,-0.54434,-0.045785,1.146522
1465407312,-0.685363,-0.033144,1.08457
1465407312,-0.784225,-0.043609,0.989764
1465407312,-0.845418,-0.037744,0.916112
1465407312,-0.915548,-0.034724,0.824523
1465407312,-0.970415,-0.035513,0.732077
1465407312,-1.017827,-0.055697,0.612702
1465407312,-1.040389,-0.054222,0.505292
1465407312,-1.077103,-0.040967,0.425259
1465407312,-1.1032,-0.051549,0.28871
1465407312,-1.124474,-0.052985,0.147612
1465407312,-1.121986,-0.063438,-0.001038
1465407312,-1.086545,-0.050867,-0.160091
1465407312,-1.069496,-0.056143,-0.280563
1465407312,-1.027051,-0.054468,-0.412979
1465407312,-0.986815,-0.057786,-0.485595
1465407312,-0.96124,-0.074932,-0.518637
1465407312,-0.887218,-0.07692,-0.642754
1465407312,-0.782034,-0.074619,-0.748161
1465407312,-0.738945,-0.081773,-0.782992
1465407312,-0.66708,-0.066545,-0.857622
1465407312,-0.511884,-0.078412,-0.96406
1465407312,-0.423947,-0.062785,-1.000778
1465407312,-0.301507,-0.08075,-1.040026
1465407312,-0.178231,-0.048002,-1.068345
1465407312,-0.109562,-0.059006,-1.059238
1465407312,-0.002363,-0.054392,-1.111687
1465407312,0.125222,-0.03929,-1.137615
1465407312,0.345204,-0.045857,-1.14685
1465407312,0.240821,-0.048391,-1.158454
1465407312,0.458791,-0.045702,-1.143064
1465407312,0.646537,-0.027843,-1.027337
1465407312,0.573252,-0.024989,-1.096348
1465407312,0.721493,-0.025629,-0.972213
1465407312,0.85421,-0.011173,-0.821339
1465407312,0.801635,-0.009061,-0.907817
1465407312,0.900386,-0.004005,-0.768283
1465407312,0.949203,-0.000808,-0.723741
1465407312,0.994332,0.009993,-0.65377
1465407312,1.023128,0.008571,-0.537589
1465407312,1.05272,0.020367,-0.46204
1465407312,1.096921,0.014123,-0.41858
1465407312,1.115569,0.00658,-0.336813
1465407312,1.170051,0.006898,-0.257738
1465407312,1.214902,0.014527,-0.037575
1465407312,1.182881,0.005298,-0.105385
1465407312,1.214473,0.01975,0.053286
1465407312,1.205845,0.025462,0.144131
1465407312,1.184048,0.036716,0.220591
1465407312,1.167257,0.037982,0.26612
1465407312,1.123308,0.033159,0.343844
1465407312,1.065571,0.019908,0.432075
1465407312,1.039654,0.028721,0.481557
1465407312,1.006789,0.020366,0.517119
1465407312,0.946936,0.027585,0.593931
1465407313,0.807819,0.027846,0.740742
1465407313,0.680252,0.017719,0.832332
1465407313,0.629099,0.012563,0.82655
1465407313,0.673089,-0.002053,0.730172
1465407313,0.66633,0.014996,0.738182
1465407313,0.67873,-0.001664,0.700838
1465407313,0.679592,0.004846,0.730623
1465407313,0.588815,0.003308,0.853896
1465407313,0.735503,0.011613,0.72893
1465407313,0.435554,0.041516,1.013353
1465407313,0.492593,-0.041197,0.87853
1465407313,0.389187,-0.007056,0.967999
1465407313,0.277905,0.01199,1.044288
1465407313,0.196314,0.028988,1.062136
1465407313,0.266532,-0.023816,0.975465
1465407313,0.162781,-0.013324,1.027694
1465407313,0.108607,0.001362,1.076248
1465407313,0.012177,0.007226,1.122719
1465407313,-0.041032,-0.009025,1.098025
1465407313,-0.21374,-0.018974,1.131505
1465407313,-0.109261,-0.005472,1.131049
1465407313,-0.269728,-0.027411,1.116553
1465407313,-0.405004,-0.008988,1.121577
1465407313,-0.534307,-0.039506,1.045451
1465407313,-0.61592,-0.02691,0.998898
1465407313,-0.683709,-0.024875,0.955922
1465407313,-0.73339,-0.055753,0.873568
1465407313,-0.817645,-0.025151,0.840575
1465407313,-0.945469,-0.037918,0.676692
1465407313,-0.85072,-0.042636,0.78856
1465407313,-0.988341,-0.055211,0.495008
1465407313,-1.046756,-0.027985,0.383017
1465407313,-1.015183,-0.035343,0.440668
1465407313,-1.035732,-0.051671,0.172086
1465407313,-1.061826,-0.04866,0.059565
1465407313,-1.06608,-0.056526,-0.052749
1465407313,-1.024435,-0.06516,-0.182925
1465407313,-1.001168,-0.065211,-0.26534
1465407313,-0.981727,-0.067062,-0.359656
1465407313,-0.937073,-0.072513,-0.448564
1465407313,-0.890048,-0.068186,-0.53983
1465407313,-0.813787,-0.063794,-0.614394
1465407313,-0.777907,-0.064722,-0.667918
1465407313,-0.772694,-0.066241,-0.683395
1465407313,-0.714266,-0.069006,-0.739389
1465407313,-0.503476,-0.043149,-0.942086
1465407313,-0.381377,-0.064892,-0.919226
1465407313,-0.412784,-0.042761,-0.980661
1465407313,-0.275695,-0.058377,-0.988103
1465407313,-0.176609,-0.050886,-1.02345
1465407313,-0.095223,-0.047501,-1.048828
1465407313,0.022501,-0.055713,-1.067288
1465407313,0.244266,-0.039375,-1.092525
1465407313,0.125637,-0.045087,-1.0988
1465407313,0.324078,-0.040383,-1.090835
1465407313,0.497761,-0.007252,-1.062335
1465407313,0.396994,-0.030662,-1.093019
1465407313,0.53808,-0.036805,-1.027988
1465407313,0.622029,-0.028318,-1.007306
1465407313,0.694267,-0.03724,-0.936015
1465407313,0.762023,-0.017687,-0.856302
1465407313,0.838954,-0.017779,-0.766743
1465407313,0.87734,-0.005612,-0.674669
1465407313,0.913896,0.003594,-0.611617
1465407313,0.999397,-0.001026,-0.537285
1465407313,0.952665,0.001102,-0.588402
1465407313,1.04746,0.009382,-0.475311
1465407313,1.099896,0.006487,-0.355359
1465407313,1.113312,0.003899,-0.230384
1465407313,1.169019,0.01436,-0.17785
1465407313,1.183348,0.005124,-0.0845
1465407313,1.214169,0.013888,0.00137
1465407313,1.248875,0.023121,0.093427
1465407313,1.251095,0.035254,0.181733
1465407313,1.220017,0.070986,0.300169
1465407313,1.192892,0.046494,0.359176
1465407313,1.175153,0.03132,0.383398
1465407313,1.113617,0.025359,0.473809
1465407313,1.042831,0.029719,0.569851
1465407313,0.896521,0.005688,0.680496
1465407313,0.962385,0.027774,0.648683
1465407313,0.793084,0.008741,0.779048
1465407313,0.737173,0.001132,0.788366
1465407313,0.778165,-0.010062,0.726602
1465407313,0.837747,-0.007939,0.679562
1465407313,0.701987,-0.003385,0.827105
1465407313,0.532974,0.04368,1.010216
1465407313,0.621302,-0.025523,0.843464
1465407313,0.579608,-0.016475,0.885409
1465407313,0.443518,0.034091,1.033804
1465407313,0.480121,-0.019141,0.940627
1465407313,0.3957,0.003251,1.001379
1465407313,0.346941,0.016821,1.04688
1465407313,0.333047,-0.025414,1.005306
1465407313,0.189096,-0.004718,1.078667
1465407313,0.242932,0.016263,1.084076
1465407313,0.089184,-0.003818,1.109796
1465407313,-0.065142,-0.004947,1.124833
1465407313,0.007875,0.008697,1.132326
1465407313,-0.134288,0.004142,1.146213
1465407314,-0.230663,-0.004011,1.157261
1465407314,-0.344185,-0.009066,1.132803
1465407314,-0.475877,-0.026715,1.098082
1465407314,-0.548822,-0.024835,1.047228
1465407314,-0.626795,-0.038965,0.994516
1465407314,-0.702828,-0.048185,0.929233
1465407314,-0.776919,-0.049612,0.865138
1465407314,-0.823474,-0.044845,0.769647
1465407314,-0.892144,-0.060492,0.672214
1465407314,-0.93759,-0.054046,0.574765
1465407314,-0.970502,-0.050399,0.462378
,,,
1465407314,-1.016944,-0.051619,0.360624
1465407314,-1.034758,-0.048901,0.233584
1465407314,-1.034705,-0.04564,0.075196
1465407314,-1.038606,-0.036829,-0.015489
1465407314,-1.024147,-0.047445,-0.114403
1465407314,-0.996808,-0.044351,-0.242356
1465407314,-0.965583,-0.056285,-0.334788
1465407314,-0.903015,-0.068156,-0.464667
1465407314,-0.854728,-0.0646,-0.547865
1465407314,-0.816628,-0.079024,-0.610339
1465407314,-0.786263,-0.057562,-0.635682
1465407314,-0.739491,-0.064151,-0.713543
1465407314,-0.629479,-0.046646,-0.799477
1465407314,-0.563869,-0.055222,-0.84555
1465407314,-0.537303,-0.059842,-0.840665
1465407314,-0.414501,-0.066107,-0.895356
1465407314,-0.307466,-0.071255,-0.944207
1465407314,-0.250656,-0.063955,-0.933355
1465407314,-0.140185,-0.076086,-0.993097
1465407314,-0.022238,-0.051546,-1.052639
1465407314,0.055445,-0.047138,-1.094549
1465407314,0.158459,-0.05829,-1.13379
1465407314,0.344523,-0.042077,-1.15895
1465407314,0.50211,-0.029902,-1.138501
1465407314,0.652539,-0.018805,-0.989092
1465407314,0.54947,-0.048572,-1.033107
1465407314,0.669639,-0.029216,-0.930473
1465407314,0.774823,-0.011606,-0.844389
1465407314,0.731403,-0.015227,-0.885637
1465407314,0.815621,-0.002885,-0.795485
1465407314,0.874843,0.005625,-0.739365
1465407314,0.907969,0.013259,-0.685923
1465407314,0.955754,0.003674,-0.609232
1465407314,0.982963,0.017413,-0.527037
1465407314,1.040603,0.000577,-0.451046
1465407314,1.06289,-0.012221,-0.314315
1465407314,1.112587,0.009007,-0.225235
1465407314,1.145561,-0.00174,-0.175848
1465407314,1.181357,0.007191,-0.080924
1465407314,1.199774,0.007843,0.014176
1465407314,1.222878,0.036117,0.100624
1465407314,1.213191,0.048789,0.166067
1465407314,1.188329,0.039181,0.238377
1465407314,1.160677,0.036291,0.294656
1465407314,1.109371,0.02688,0.37108
1465407314,1.034124,0.02986,0.486153
1465407314,0.952699,0.017938,0.578979
1465407314,0.911009,0.016686,0.595098
1465407314,0.816439,0.007222,0.678943
1465407314,0.725483,0.023255,0.753168
1465407314,0.693283,0.004432,0.728526
1465407314,0.727079,0.0051,0.667359
1465407314,0.730835,-0.002431,0.659075
1465407314,0.733227,0.014042,0.680267
1465407314,0.772509,0.008805,0.676557
1465407314,0.592186,-0.002515,0.824233
1465407314,0.462653,0.043853,0.971234
1465407314,0.485931,-0.036623,0.84276
1465407314,0.430606,0.012585,0.909964
1465407314,0.377007,0.010248,0.938059
1465407314,0.401446,-0.022041,0.886072
1465407314,0.361205,-0.016105,0.948491
1465407314,0.340733,0.006567,0.958805
1465407314,0.278906,-0.021126,1.002025
1465407314,0.209432,0.000943,1.059847
1465407314,0.109564,-0.013005,1.080264
1465407314,0.002661,0.025978,1.132919
1465407314,-0.067688,0.00768,1.116837
1465407314,-0.133544,0.00732,1.117795
1465407314,-0.195442,0.011733,1.115701
1465407314,-0.283441,-0.010564,1.092113
1465407314,-0.355484,0.000168,1.084248
1465407314,-0.443682,-0.017566,1.048154
1465407314,-0.513826,-0.032318,1.034068
1465407314,-0.640625,-0.023299,1.032209
1465407314,-0.76574,-0.053299,0.972798
1465407314,-0.879595,-0.042447,0.942499
1465407314,-0.977995,-0.059338,0.875149
1465407314,-1.058891,-0.054965,0.757969
1465407314,-1.114903,-0.070496,0.579137
1465407314,-1.142906,-0.047451,0.455707
1465407314,-1.127036,-0.061286,0.312364
1465407314,-1.123534,-0.04167,0.137892
1465407314,-1.159936,-0.024349,0.095504
1465407314,-1.190117,-0.03294,-0.002083
1465407314,-1.169392,-0.039664,-0.11411
1465407314,-1.114375,-0.051633,-0.247995
1465407314,-1.015498,-0.05737,-0.401359
1465407314,-0.949679,-0.082947,-0.51709
1465407315,-0.86126,-0.104663,-0.571069
1465407315,-0.691472,-0.105692,-0.734003
1465407315,-0.50148,-0.096781,-0.920672
1465407315,-0.487936,-0.107952,-0.910141
1465407315,-0.39399,-0.08469,-0.953124
1465407315,-0.263199,-0.069041,-1.063651
1465407315,-0.193895,-0.042179,-1.108594
1465407315,-0.116794,-0.047083,-1.147631
1465407315,-0.000936,-0.027944,-1.206696
1465407315,0.096361,-0.034625,-1.217783
1465407315,0.204032,-0.031025,-1.223103
1465407315,0.307923,-0.027504,-1.213527
1465407315,0.392179,-0.021567,-1.182198
1465407315,0.488298,-0.029707,-1.15416
1465407315,0.592459,-0.018434,-1.130356
1465407315,0.652934,-0.030555,-1.065261
1465407315,0.765606,-0.001559,-1.020291
1465407315,0.822281,0.005632,-0.953435
1465407315,0.862478,-0.016368,-0.862757
1465407315,0.946776,0.008777,-0.834731
1465407315,0.998838,0.01022,-0.760721
1465407315,1.059416,0.005238,-0.65238
1465407315,1.096298,0.0078,-0.593602
1465407315,1.15112,0.009794,-0.487487
1465407315,1.168314,0.003318,-0.372082
1465407315,1.203706,0.016386,-0.267987
1465407315,1.206892,0.00791,-0.193122
1465407315,1.228567,0.005036,-0.150266
1465407315,1.214894,0.015634,-0.041705
1465407315,1.204125,0.004215,0.083527
1465407315,1.185396,0.026108,0.20539
1465407315,1.205788,0.036823,0.228975
1465407315,1.220993,0.015149,0.24779
1465407315,1.162313,0.026368,0.42532
1465407315,1.118592,0.039232,0.52404
1465407315,1.119658,0.036455,0.510068
1465407315,1.044748,0.031127,0.601138
1465407315,0.92445,0.049525,0.748895
1465407315,0.843379,0.004667,0.762821
1465407315,0.70339,0.041978,0.899894
1465407315,0.638155,-0.012391,0.848223
1465407315,0.672439,0.012244,0.776778
1465407315,0.652152,-0.006602,0.749526
1465407315,0.659748,0.010385,0.752267
1465407315,0.721515,-0.016918,0.694293
1465407315,0.822982,-0.002785,0.656383
1465407315,0.812054,-0.013583,0.712424
1465407315,0.330479,0.03881,1.145426
1465407315,0.395965,0.012199,1.032882
1465407315,0.443005,-0.089513,0.859277
1465407315,0.280004,0.069856,1.092392
1465407315,0.273875,-0.027772,0.996094
1465407315,0.284085,-0.016399,0.983684
1465407315,0.201626,0.024563,1.076769
1465407315,0.175969,-0.02544,1.042148
1465407315,0.049981,0.015292,1.12207
1465407315,-0.047578,0.006539,1.125677
1465407315,-0.13006,-0.002534,1.123685
1465407315,-0.237786,-0.005914,1.135031
1465407315,-0.387101,-0.020441,1.084459
1465407315,-0.297398,-0.024953,1.084443
1465407315,-0.461322,-0.028469,1.054963
1465407315,-0.531834,-0.049312,1.007656
1465407315,-0.64838,-0.031205,0.988935
1465407315,-0.723125,-0.053839,0.885248
1465407315,-0.849513,-0.047033,0.727472
1465407315,-0.809723,-0.042387,0.822212
1465407315,-0.933072,-0.05626,0.590392
1465407315,-0.962856,-0.051185,0.366687
1465407315,-0.947419,-0.049808,0.455775
1465407315,-0.983911,-0.039165,0.254815
1465407315,-0.986479,-0.047051,0.103463
1465407315,-0.998489,-0.037046,-0.086668
1465407315,-0.943146,-0.042644,-0.212408
1465407315,-0.94408,-0.050151,-0.287091
1465407315,-0.960046,-0.047701,-0.299516
1465407315,-0.956371,-0.0458,-0.325089
1465407315,-0.909311,-0.05591,-0.448498
1465407315,-0.764131,-0.03663,-0.654285
1465407315,-0.722964,-0.067947,-0.640323
1465407315,-0.692262,-0.051019,-0.724385
1465407315,-0.607165,-0.074762,-0.736865
1465407315,-0.494029,-0.050139,-0.865081
1465407315,-0.501598,-0.070339,-0.774015
1465407315,-0.397269,-0.071658,-0.836171
1465407315,-0.291081,-0.059719,-0.914231
1465407315,-0.216205,-0.056673,-0.93475
1465407315,-0.135691,-0.064796,-0.961529
1465407315,-0.010585,-0.050755,-1.024767
1465407315,0.084338,-0.047755,-1.047439
1465407315,0.224648,-0.054127,-1.036518
1465407315,0.339379,-0.037999,-1.029969
1465407315,0.395562,-0.034887,-0.999131
1465407315,0.438061,-0.027367,-0.979085
1465407315,0.49951,-0.019371,-0.961626
1465407315,0.557294,-0.029572,-0.913515
1465407315,0.641721,-0.005918,-0.866785
1465407315,0.672992,-0.012712,-0.802963
1465407315,0.749961,0.009892,-0.766696
1465407315,0.776494,0.002341,-0.714616
1465407316,0.823688,0.00616,-0.645476
1465407316,0.857181,0.00547,-0.574124
1465407316,0.90136,0.014118,-0.50346
1465407316,0.92098,0.001422,-0.410624
1465407316,0.994278,0.010728,-0.296368
1465407316,0.948901,0.00311,-0.340392
1465407316,1.017491,-0.000657,-0.241422
1465407316,1.092693,0.00948,-0.116912
1465407316,1.057547,0.016135,-0.156842
1465407316,1.110359,0.026918,-0.018833
1465407316,1.095481,0.039622,0.088791
1465407316,1.083001,0.040762,0.116986
1465407316,1.049378,0.036969,0.173856
1465407316,0.997384,0.023365,0.266743
1465407316,0.965804,0.021551,0.319015
1465407316,0.929759,0.026413,0.378328
1465407316,0.881839,0.013675,0.428383
1465407316,0.890108,0.025339,0.416498
1465407316,0.858142,0.004133,0.43029
1465407316,0.792475,0.017063,0.51395
1465407316,0.729981,0.01073,0.565819
1465407316,0.713544,0.00395,0.565571
1465407316,0.692797,0.000563,0.580855
1465407316,0.704064,0.003104,0.569494
1465407316,0.659545,0.007513,0.621182
1465407316,0.600792,-0.001174,0.675089
1465407316,0.642047,0.004777,0.642294
1465407316,0.535232,0.015881,0.739031
1465407316,0.509876,0.007928,0.742539
1465407316,0.495249,0.013546,0.75686
1465407316,0.469663,0.012732,0.784173
1465407316,0.455632,0.005557,0.793257
1465407316,0.41412,0.014323,0.83925
1465407316,0.382916,0.008017,0.869342
1465407316,0.270532,0.008786,0.939344
1465407316,0.338011,-0.003228,0.889921
1465407316,0.228158,0.000843,0.96335
1465407316,0.114199,0.007421,1.003605
1465407316,0.062017,0.0034,1.013523
1465407316,-0.020643,-0.006364,1.016909
1465407316,-0.097796,0.007285,1.035548
1465407316,-0.174253,-0.007044,1.017619
1465407316,-0.246773,-0.003134,1.032022
1465407316,-0.304749,-0.007106,1.026731
1465407316,-0.46066,-0.028096,1.003092
1465407316,-0.517008,-0.033472,0.951255
1465407316,-0.59725,-0.014077,0.92837
1465407316,-0.668801,-0.043757,0.868458
1465407316,-0.742472,-0.035167,0.812579
1465407316,-0.82584,-0.03351,0.731564
1465407316,-0.864855,-0.052147,0.564434
1465407316,-0.908428,-0.032971,0.476283
1465407316,-0.909724,-0.046304,0.339376
1465407316,-0.931857,-0.036441,0.236939
1465407316,-0.946783,-0.038749,0.174519
1465407316,-0.948826,-0.061601,0.082602
1465407316,-0.931208,-0.060804,-0.040714
1465407316,-0.920205,-0.059039,-0.141172
1465407316,-0.916899,-0.059706,-0.191916
1465407316,-0.906969,-0.065033,-0.258355
1465407316,-0.861027,-0.055886,-0.378871
1465407316,-0.755455,-0.048261,-0.55791
1465407316,-0.80058,-0.055993,-0.480525
1465407316,-0.720814,-0.053353,-0.593856
1465407316,-0.669646,-0.0492,-0.621791
1465407316,-0.579587,-0.057067,-0.707527
1465407316,-0.561082,-0.056482,-0.708577
1465407316,-0.457025,-0.057074,-0.768986
1465407316,-0.354344,-0.071803,-0.83645
1465407316,-0.278542,-0.058587,-0.869835
1465407316,-0.223466,-0.069302,-0.889326
1465407316,-0.133188,-0.0565,-0.943381
1465407316,-0.037286,-0.051752,-1.00079
1465407316,0.167034,-0.049884,-1.033025
1465407316,0.076533,-0.052722,-1.020228
1465407316,0.261726,-0.039348,-1.035257
1465407316,0.397273,-0.035471,-1.010127
1465407316,0.325866,-0.028027,-1.035133
1465407316,0.464599,-0.035407,-0.996016
1465407316,0.531582,-0.027738,-0.963061
1465407316,0.592955,-0.023862,-0.911423
1465407316,0.645451,-0.028191,-0.84496
1465407316,0.72891,-0.002386,-0.836653
1465407316,0.779232,-0.010843,-0.74957
1465407316,0.8418,-0.0013,-0.693339
1465407316,0.922799,0.011511,-0.646312
1465407316,0.975755,0.004998,-0.582334
1465407316,1.019519,0.004818,-0.474512
1465407316,1.081929,0.02085,-0.468025
1465407316,1.106124,0.005711,-0.367327
1465407316,1.127886,0.014845,-0.242094
1465407316,1.143844,0.012242,-0.171571
1465407316,1.147253,0.017764,-0.094636
1465407316,1.146285,0.004916,-0.015158
1465407316,1.148652,0.021934,0.078397
1465407316,1.145907,0.043939,0.144087
1465407316,1.11002,0.035262,0.247494
1465407316,1.052566,0.01645,0.35917
1465407316,1.053767,0.020871,0.397222
1465407316,1.042316,0.022062,0.448834
1465407317,1.037771,0.029484,0.471602
1465407317,0.986724,0.020628,0.517325
1465407317,0.913866,0.012704,0.570802
1465407317,0.852567,0.005548,0.611618
1465407317,0.813175,0.004694,0.642555
1465407317,0.741209,-0.01206,0.700607
1465407317,0.684043,-0.000337,0.754662
1465407317,0.655792,-0.011991,0.745163
1465407317,0.569433,0.007146,0.818991
1465407317,0.547174,0.009399,0.824735
1465407317,0.533975,0.000736,0.807842
1465407317,0.510626,0.022445,0.842715
1465407317,0.487772,-0.010259,0.828574
1465407317,0.434862,0.004431,0.88045
1465407317,0.3654,0.006728,0.918052
1465407317,0.291411,-0.005184,0.930824
1465407317,0.343442,0.003098,0.917142
1465407317,0.249858,0.006501,0.961544
1465407317,0.172528,0.009219,0.988949
1465407317,0.105648,0.005149,0.997935
1465407317,0.053041,0.009198,0.99716
1465407317,-0.057825,0.002113,1.007653
1465407317,-0.112483,-0.011341,0.987257
1465407317,-0.168518,-0.00797,0.974872
1465407317,-0.228616,-0.009661,0.969206
1465407317,-0.317271,-0.017398,0.948464
1465407317,-0.385315,-0.016899,0.919981
1465407317,-0.469266,-0.010265,0.89202
1465407317,-0.590167,-0.034209,0.797023
1465407317,-0.671167,-0.045079,0.730905
1465407317,-0.714958,-0.040003,0.663142
1465407317,-0.773157,-0.048916,0.619971
1465407317,-0.815623,-0.063043,0.445168
1465407317,-0.793397,-0.053293,0.540932
1465407317,-0.857588,-0.053864,0.399929
1465407317,-0.905217,-0.042205,0.242326
1465407317,-0.878107,-0.051534,0.306625
1465407317,-0.905597,-0.042713,0.130998
1465407317,-0.902686,-0.051587,0.025188
1465407317,-0.916952,-0.0346,0.024618
1465407317,-0.914061,-0.036713,-0.049771
1465407317,-0.816344,-0.047965,-0.315355
1465407317,-0.853942,-0.040051,-0.214955
1465407317,-0.821876,-0.008634,-0.261195
1465407317,-0.678422,-0.044887,-0.491722
1465407317,-0.785951,-0.047698,-0.319087
1465407317,-0.598509,-0.040848,-0.551718
1465407317,-0.546679,-0.064282,-0.524262
1465407317,-0.627928,-0.05408,-0.472199
1465407317,-0.400396,-0.046662,-0.673461
1465407317,-0.358207,-0.033748,-0.686392
1465407317,-0.362755,-0.059696,-0.653815
1465407317,-0.266575,-0.055533,-0.741228
1465407317,-0.147448,-0.044703,-0.818359
1465407317,-0.046359,-0.042128,-0.849112
1465407317,0.017693,-0.054082,-0.847016
1465407317,0.098573,-0.048912,-0.880573
1465407317,0.202186,-0.027921,-0.904115
1465407317,0.220915,-0.051415,-0.874146
1465407317,0.301754,-0.031705,-0.870731
1465407317,0.350818,-0.0394,-0.866812
1465407317,0.411622,-0.023066,-0.854145
1465407317,0.447167,-0.043329,-0.833121
1465407317,0.486915,-0.034922,-0.850101
1465407317,0.548591,-0.02236,-0.820193
1465407317,0.60091,-0.012183,-0.776054
1465407317,0.657122,-0.010246,-0.714151
1465407317,0.723719,0.001772,-0.666043
1465407317,0.752521,0.001327,-0.587066
1465407317,0.81123,0.013553,-0.529812
1465407317,0.845261,0.017975,-0.475936
1465407317,0.867707,-0.00106,-0.415863
1465407317,0.911474,0.01402,-0.362668
1465407317,0.940548,0.01927,-0.279311
1465407317,0.948914,0.005653,-0.241609
1465407317,0.953714,0.013426,-0.163791
1465407317,0.9574,0.008036,-0.108592
1465407317,0.968099,0.015228,-0.051591
1465407317,0.952474,0.016665,0.053958
1465407317,0.963597,0.021447,0.095541
1465407317,0.939867,0.042784,0.217893
1465407317,0.912999,0.017447,0.280509
1465407317,0.908644,0.017383,0.275495
1465407317,0.90961,0.024269,0.328253
1465407317,0.885156,0.012091,0.366261
1465407317,0.870282,0.037608,0.414938
1465407317,0.811143,0.019708,0.441421
1465407317,0.773394,0.021588,0.472491
1465407317,0.742321,0.001473,0.468896
1465407317,0.713448,-0.002978,0.496357
1465407317,0.600913,0.006759,0.61624
1465407317,0.593125,-0.003565,0.591669
1465407317,0.562824,-0.019049,0.59041
1465407317,0.442779,-0.002032,0.679679
1465407317,0.480648,0.014843,0.685343
1465407317,0.450591,0.004896,0.657767
1465407317,0.453416,0.010303,0.66334
1465407317,0.450301,0.001667,0.664477
1465407317,0.436746,0.008569,0.678533
1465407318,0.378409,-0.00635,0.717703
1465407317,0.404396,0.015849,0.716495
1465407318,0.355084,0.009045,0.741698
1465407318,0.322623,-0.00145,0.761311
1465407318,0.312088,0.009636,0.768756
1465407318,0.265021,0.003894,0.800549
1465407318,0.244188,0.002498,0.812077
1465407318,0.196407,0.006362,0.841179
1465407318,0.128197,-0.002846,0.862535
1465407318,0.082653,-0.011688,0.874907
1465407318,0.0257,-0.010157,0.894031
1465407318,-0.034925,-0.009104,0.908786
1465407318,-0.100831,-0.008827,0.913757
1465407318,-0.18342,-0.00971,0.928022
1465407318,-0.251256,-0.01018,0.911469
1465407318,-0.368818,-0.016871,0.891859
1465407318,-0.294691,-0.013972,0.901576
1465407318,-0.440557,-0.026817,0.880326
1465407318,-0.505355,-0.026755,0.834923
1465407318,-0.593007,-0.026864,0.787025
1465407318,-0.65593,-0.036195,0.713882
1465407318,-0.718162,-0.029544,0.655588
1465407318,-0.73626,-0.03516,0.58536
1465407318,-0.788101,-0.030117,0.536876
1465407318,-0.794897,-0.041939,0.460349
1465407318,-0.825816,-0.046817,0.391576
1465407318,-0.838882,-0.043119,0.276777
1465407318,-0.851353,-0.037512,0.23434
1465407318,-0.861007,-0.043343,0.149333
1465407318,-0.850402,-0.044183,0.024007
1465407318,-0.843308,-0.055486,-0.061898
1465407318,-0.85288,-0.041704,-0.075389
1465407318,-0.843342,-0.049179,-0.11342
1465407318,-0.798741,-0.045285,-0.229745
1465407318,-0.741014,-0.047864,-0.349056
1465407318,-0.715262,-0.047782,-0.390449
1465407318,-0.643512,-0.0421,-0.435712
1465407318,-0.679319,-0.058848,-0.401715
1465407318,-0.555636,-0.055163,-0.528118
1465407318,-0.504357,-0.043105,-0.584868
1465407318,-0.474403,-0.062658,-0.588338
1465407318,-0.345877,-0.054561,-0.69916
1465407318,-0.415062,-0.054005,-0.644794
1465407318,-0.285592,-0.056122,-0.732257
1465407318,-0.206862,-0.057074,-0.775825
1465407318,-0.14298,-0.048619,-0.829254
1465407318,-0.103839,-0.037006,-0.828271
1465407318,-0.031684,-0.05007,-0.859157
1465407318,0.037354,-0.029025,-0.882091
1465407318,0.088066,-0.038905,-0.883913
1465407318,0.136251,-0.033287,-0.903347
1465407318,0.268643,-0.020381,-0.913977
1465407318,0.201021,-0.025144,-0.905355
1465407318,0.331563,-0.027371,-0.894962
1465407318,0.421551,-0.027463,-0.875053
1465407318,0.489618,-0.026324,-0.860642
1465407318,0.547238,-0.025572,-0.795923
1465407318,0.595752,-0.017798,-0.739181
1465407318,0.640736,-0.005421,-0.702629
1465407318,0.667805,-0.011413,-0.658129
1465407318,0.722615,0.002712,-0.615025
1465407318,0.756381,0.000477,-0.557978
1465407318,0.839656,0.008403,-0.444883
1465407318,0.787473,0.004017,-0.505432
1465407318,0.870933,0.010127,-0.357193
1465407318,0.891921,0.005994,-0.297501
1465407318,0.952076,-0.000177,-0.297778
1465407318,0.970023,-0.005549,-0.217578
1465407318,0.982817,0.007373,-0.089934
1465407318,1.002925,0.017043,-0.03036
1465407318,1.009043,0.035758,0.062295
1465407318,0.967913,0.061603,0.232447
1465407318,0.980528,0.021947,0.184912
1465407318,0.919418,0.030476,0.295135
1465407318,0.963394,-0.00414,0.209488
1465407318,0.883501,0.02236,0.398159
1465407318,0.909065,0.021453,0.330863
1465407318,0.825122,0.010175,0.426906
1465407318,0.842952,0.012524,0.425689
1465407318,0.745631,0.007867,0.490774
1465407318,0.70479,0.005034,0.519589
1465407318,0.662604,-0.009313,0.539992
1465407318,0.56419,0.000092,0.646303
1465407318,0.516231,0.002214,0.676242
1465407318,0.54066,-0.016606,0.607443
1465407318,0.47317,0.00768,0.682757
1465407318,0.505784,0.001234,0.609923
1465407318,0.466676,0.018737,0.669607
1465407318,0.448774,0.006133,0.678253
1465407318,0.405194,0.004956,0.718237
1465407318,0.445522,0.001421,0.67396
1465407318,0.398618,0.000343,0.722619
1465407318,0.341293,-0.003205,0.758282
1465407318,0.295368,0.00356,0.790374
1465407318,0.248463,-0.00625,0.807956
1465407318,0.186984,0.01387,0.844599
1465407318,0.156403,0.000155,0.844481
1465407318,0.137243,-0.004249,0.848146
1465407318,0.048677,-0.003266,0.888613
1465407318,0.083621,0.004591,0.87764
1465407318,-0.02849,0.005761,0.915181
1465407319,-0.091937,0.010003,0.922594
1465407319,-0.173314,-0.001362,0.937373
1465407319,-0.251882,-0.011465,0.939841
1465407319,-0.333133,-0.024856,0.934952
1465407319,-0.408598,-0.012114,0.945262
1465407319,-0.510987,-0.033488,0.904216
1465407319,-0.590931,-0.044067,0.839926
1465407319,-0.654298,-0.045438,0.795968
1465407319,-0.693628,-0.045117,0.711159
1465407319,-0.741841,-0.04207,0.639085
1465407319,-0.788118,-0.04411,0.584758
1465407319,-0.817397,-0.037397,0.485747
1465407319,-0.838333,-0.049024,0.396995
1465407319,-0.903563,-0.030615,0.265832
1465407319,-0.866008,-0.042375,0.326907
1465407319,-0.890123,-0.063804,0.103667
1465407319,-0.901114,-0.045472,0.014851
1465407319,-0.884843,-0.036537,-0.05107
1465407319,-0.881371,-0.036782,-0.100528
1465407319,-0.863979,-0.050532,-0.187704
1465407319,-0.830156,-0.046421,-0.304767
1465407319,-0.801305,-0.030528,-0.318467
1465407319,-0.760161,-0.043968,-0.355423
1465407319,-0.70254,-0.037261,-0.440538
1465407319,-0.60614,-0.049806,-0.546449
1465407319,-0.539627,-0.044102,-0.580563
1465407319,-0.500438,-0.063078,-0.59154
1465407319,-0.392835,-0.063599,-0.686706
1465407319,-0.346137,-0.072387,-0.723715
1465407319,-0.269028,-0.065179,-0.761705
1465407319,-0.200821,-0.055928,-0.813744
1465407319,-0.127721,-0.054646,-0.854129
1465407319,-0.016007,-0.041501,-0.894269
1465407319,0.027352,-0.04974,-0.897382
1465407319,0.11145,-0.047458,-0.926449
1465407319,0.210756,-0.033623,-0.950148
1465407319,0.268284,-0.042989,-0.938531
1465407319,0.425006,-0.032176,-0.918857
1465407319,0.34225,-0.021769,-0.926172
1465407319,0.467789,-0.026601,-0.892119
1465407319,0.535601,-0.033386,-0.85739
1465407319,0.586481,-0.023728,-0.842837
1465407319,0.634291,-0.014367,-0.801739
1465407319,0.690969,-0.015953,-0.743904
1465407319,0.738132,-0.007632,-0.700509
1465407319,0.787022,-0.005266,-0.620472
1465407319,0.828958,0.001877,-0.569564
1465407319,0.85512,0.002744,-0.513774
1465407319,0.890525,0.008742,-0.491226
1465407319,0.912851,-0.005408,-0.400721
1465407319,0.937101,0.001065,-0.333178
1465407319,0.968068,0.009105,-0.28137
1465407319,1.000418,-0.0079,-0.143615
1465407319,0.982745,-0.001712,-0.206837
1465407319,1.02554,0.000624,-0.034602
1465407319,0.996747,0.016556,0.09417
1465407319,1.017873,0.030596,0.140591
1465407319,1.044616,0.041679,0.163086
1465407319,0.978179,0.03134,0.32028
1465407319,1.05575,0.029531,0.231965
1465407319,1.060421,0.020547,0.270855
1465407319,0.973329,0.004782,0.327504
1465407319,0.882158,0.055164,0.563169
1465407319,0.917114,0.006073,0.372451
1465407319,0.70833,0.005417,0.61296
1465407319,0.778901,0.014268,0.563331
1465407319,0.743395,-0.020411,0.534736
1465407319,0.530289,0.025012,0.769336
1465407319,0.628993,-0.009343,0.65417
1465407319,0.577967,-0.018512,0.654962
1465407319,0.499316,0.018872,0.760423
1465407319,0.585246,-0.008016,0.649934
1465407319,0.532444,0.00916,0.70822
1465407319,0.541117,-0.003037,0.69369
1465407319,0.46308,0.024671,0.788331
1465407319,0.479155,0.001804,0.759535
1465407319,0.443685,-0.000392,0.783733
1465407319,0.377726,0.018938,0.856868
1465407319,0.343437,-0.012053,0.839448
1465407319,0.277147,0.003701,0.896066
1465407319,0.230505,-0.005004,0.90934
1465407319,0.212055,-0.015182,0.911862
1465407319,0.160639,-0.004652,0.952782
1465407319,0.142976,-0.014409,0.955124
1465407319,0.024872,-0.009228,1.008599
1465407319,-0.037157,-0.012636,1.001821
1465407319,-0.121704,-0.00334,1.004331
1465407319,-0.205097,0.003257,1.001351
1465407319,-0.242334,-0.011923,0.989644
1465407319,-0.359149,-0.013093,0.998641
1465407319,-0.417583,-0.034651,0.955585
1465407319,-0.525185,-0.041731,0.914545
1465407319,-0.619943,-0.033697,0.865952
1465407319,-0.698421,-0.044373,0.813983
1465407319,-0.746366,-0.041906,0.767241
1465407319,-0.80767,-0.056876,0.704071
1465407319,-0.855821,-0.037578,0.65349
1465407319,-0.926136,-0.064875,0.55028
1465407319,-0.952629,-0.051102,0.436007
1465407319,-0.984066,-0.029972,0.354751
1465407320,-0.989802,-0.027646,0.236631
1465407320,-0.999308,-0.042034,0.09474
1465407320,-0.978982,-0.038179,-0.00229
1465407320,-0.964067,-0.050953,-0.05367
1465407320,-0.953511,-0.053774,-0.149683
1465407320,-0.919626,-0.076448,-0.273906
1465407320,-0.918038,-0.049875,-0.289179
1465407320,-0.887712,-0.058732,-0.343859
1465407320,-0.805701,-0.052306,-0.462919
1465407320,-0.706201,-0.061166,-0.579993
1465407320,-0.688121,-0.050017,-0.589282
,,,
1465407320,-0.644841,-0.058878,-0.603937
1465407320,-0.500418,-0.052943,-0.746632
1465407320,-0.423232,-0.056527,-0.803754
1465407320,-0.372786,-0.055238,-0.8014
1465407320,-0.232648,-0.061795,-0.891901
1465407320,-0.148315,-0.056337,-0.915054
1465407320,-0.104124,-0.054429,-0.915442
1465407320,-0.020249,-0.045573,-0.931951
1465407320,0.049189,-0.04354,-0.970563
1465407320,0.11385,-0.036494,-0.971533
1465407320,0.237783,-0.039971,-0.994277
1465407320,0.303217,-0.03167,-0.998859
1465407320,0.384242,-0.034885,-0.997288
1465407320,0.47653,-0.021985,-0.998912
1465407320,0.554805,-0.024103,-0.929701
1465407320,0.640856,-0.006682,-0.84525
1465407320,0.694629,-0.017019,-0.780696
1465407320,0.75445,-0.000197,-0.737647
1465407320,0.780582,-0.017562,-0.669378
1465407320,0.842258,0.011348,-0.609982
1465407320,0.872661,-0.000993,-0.574569
1465407320,0.91904,-0.001539,-0.507212
1465407320,0.952102,0.004846,-0.433435
1465407320,0.987547,0.014081,-0.351627
1465407320,1.014826,0.015751,-0.310695
1465407320,1.028591,0.006084,-0.244986
1465407320,1.043584,-0.003124,-0.158858
1465407320,1.05599,0.010841,0.063924
1465407320,1.059084,0.009897,-0.045729
1465407320,1.043082,0.02117,0.147119
1465407320,1.046513,0.030742,0.208428
1465407320,1.031335,0.029939,0.294047
1465407320,1.011868,0.031421,0.346805
1465407320,0.974735,0.029013,0.406431
1465407320,0.925024,0.037588,0.476225
1465407320,0.884076,0.022892,0.485787
1465407320,0.869119,0.016441,0.4778
1465407320,0.756415,0.007464,0.591742
1465407320,0.756942,0.003309,0.578837
1465407320,0.577005,0.011489,0.731661
1465407320,0.681771,-0.011181,0.627128
1465407320,0.578652,-0.012786,0.68615
1465407320,0.590805,-0.011412,0.653758
1465407320,0.513691,0.014948,0.742485
1465407320,0.505233,0.008663,0.733229
1465407320,0.499442,-0.005327,0.721732
1465407320,0.453466,0.02161,0.781337
1465407320,0.457494,0.002408,0.766673
1465407320,0.431271,-0.004836,0.785755
1465407320,0.374699,0.013043,0.839829
1465407320,0.34218,-0.012294,0.834474
1465407320,0.266647,-0.006025,0.885809
1465407320,0.235721,0.012241,0.90739
1465407320,0.211946,-0.017392,0.893513
1465407320,0.170662,-0.001382,0.930556
1465407320,0.10934,-0.003496,0.963478
1465407320,0.080568,-0.006806,0.968286
1465407320,0.008032,-0.008481,0.994154
1465407320,-0.069522,-0.002641,1.008222
1465407320,-0.156985,-0.019338,0.998188
1465407320,-0.22044,-0.006648,1.003178
1465407320,-0.303801,0.00032,1.00657
1465407320,-0.384751,-0.025781,0.962814
1465407320,-0.501781,-0.020226,0.942171
1465407320,-0.58225,-0.02569,0.897419
1465407320,-0.65464,-0.029598,0.836674
1465407320,-0.721785,-0.034372,0.776482
1465407320,-0.787052,-0.025157,0.736385
1465407320,-0.826865,-0.050698,0.636583
1465407320,-0.891226,-0.044618,0.571811
1465407320,-0.93592,-0.032818,0.525114
1465407320,-0.953173,-0.054852,0.397848
1465407320,-0.983259,-0.058817,0.290282
1465407320,-0.979486,-0.073357,0.056
1465407320,-1.008867,-0.05272,0.197117
1465407320,-0.97899,-0.052452,-0.041383
1465407320,-0.95735,-0.071794,-0.147315
1465407320,-0.938514,-0.058021,-0.204062
1465407320,-0.93981,-0.053881,-0.231146
1465407320,-0.916322,-0.068836,-0.321206
1465407320,-0.857736,-0.05236,-0.428556
1465407320,-0.856849,-0.061077,-0.413946
1465407320,-0.804543,-0.062531,-0.452192
1465407320,-0.625862,-0.043462,-0.669729
1465407320,-0.580638,-0.050489,-0.703205
1465407320,-0.604395,-0.059252,-0.603849
1465407320,-0.397765,-0.052403,-0.801151
1465407320,-0.285677,-0.040923,-0.874578
1465407320,-0.304708,-0.059585,-0.804532
1465407321,-0.159261,-0.05073,-0.879335
1465407321,-0.062565,-0.040302,-0.924343
1465407321,0.065033,-0.051974,-0.976465
1465407321,-0.013729,-0.053999,-0.931876
1465407321,0.172349,-0.041118,-0.985912
1465407321,0.27979,-0.040069,-0.996853
1465407321,0.356833,-0.041721,-0.976285
1465407321,0.420457,-0.037427,-0.958561
1465407321,0.442698,-0.043266,-0.939741
1465407321,0.516559,-0.035155,-0.922041
1465407321,0.611765,-0.031817,-0.874725
1465407321,0.729763,-0.030606,-0.7227
1465407321,0.699197,-0.015149,-0.797056
1465407321,0.782071,-0.005069,-0.663306
1465407321,0.832911,-0.007039,-0.606685
1465407321,0.84963,-0.010847,-0.532323
1465407321,0.908703,0.0131,-0.48052
1465407321,0.939397,0.006061,-0.416709
1465407321,0.985551,0.003411,-0.361838
1465407321,1.037225,0.002983,-0.292905
1465407321,1.106713,0.006565,-0.076744
1465407321,1.069364,0.000959,-0.190106
1465407321,1.118321,0.010458,0.017246
1465407321,1.117603,0.015172,0.115581
1465407321,1.11565,0.020218,0.189723
1465407321,1.114484,0.055944,0.264202
1465407321,1.060816,0.039669,0.356254
1465407321,1.084494,0.064695,0.328125
1465407321,0.972608,0.028904,0.468762
1465407321,0.937559,0.025527,0.489517
1465407321,0.948147,0.027129,0.479434
1465407321,0.853687,0.006579,0.58542
1465407321,0.768388,0.00612,0.664167
1465407321,0.699662,0.00321,0.699139
1465407321,0.723494,-0.013816,0.630835
1465407321,0.643035,-0.011453,0.705161
1465407321,0.533869,-0.002806,0.79408
1465407321,0.524068,-0.012832,0.765202
1465407321,0.523006,-0.017174,0.744613
1465407321,0.452749,0.012972,0.817187
1465407321,0.445952,0.006407,0.803906
1465407321,0.405209,0.01643,0.839726
1465407321,0.448506,0.001895,0.789012
1465407321,0.417334,-0.006005,0.811881
1465407321,0.311464,0.00319,0.874315
1465407321,0.341127,0.003591,0.86843
1465407321,0.265859,-0.013555,0.870051
1465407321,0.212228,0.007473,0.90678
1465407321,0.216771,-0.009797,0.879592
1465407321,0.176421,-0.005177,0.906703
1465407321,0.134716,-0.005363,0.927806
1465407321,0.081157,-0.010162,0.942989
1465407321,0.008574,0.007757,0.982396
1465407321,-0.035335,-0.012082,0.967671
1465407321,-0.091217,-0.003851,0.977676
1465407321,-0.158735,-0.000609,1.002639
1465407321,-0.356061,-0.011462,0.959497
1465407321,-0.246538,-0.012929,0.977501
1465407321,-0.426237,-0.006271,0.899967
1465407321,-0.499653,0.002508,0.865702
1465407321,-0.554181,-0.009183,0.831126
1465407321,-0.623124,-0.022941,0.795525
1465407321,-0.683463,-0.021009,0.759059
1465407321,-0.738239,-0.032763,0.70867
1465407321,-0.790407,-0.039463,0.640084
1465407321,-0.811535,-0.059126,0.55509
1465407321,-0.860561,-0.051754,0.463312
1465407321,-0.898864,-0.03295,0.300371
1465407321,-0.881507,-0.054563,0.362552
1465407321,-0.920374,-0.037442,0.206241
1465407321,-0.901791,-0.050166,-0.042471
1465407321,-0.907437,-0.040312,0.078251
1465407321,-0.888852,-0.050786,-0.082446
1465407321,-0.895026,-0.06063,-0.108135
1465407321,-0.874528,-0.070791,-0.176853
1465407321,-0.839729,-0.063868,-0.266326
1465407321,-0.801924,-0.064279,-0.318744
1465407321,-0.721767,-0.060793,-0.446058
1465407321,-0.78024,-0.068394,-0.347412
1465407321,-0.658999,-0.049064,-0.518509
1465407321,-0.636287,-0.070103,-0.542843
1465407321,-0.51313,-0.040324,-0.653055
1465407321,-0.419436,-0.048565,-0.723323
1465407321,-0.38774,-0.038646,-0.739793
1465407321,-0.333704,-0.045613,-0.764763
1465407321,-0.214096,-0.047708,-0.851583
1465407321,-0.14196,-0.045801,-0.874162
1465407321,-0.268016,-0.047759,-0.808071
1465407321,-0.080408,-0.052659,-0.911314
1465407321,0.00747,-0.038958,-0.929984
1465407321,0.086363,-0.040881,-0.978971
1465407321,0.156375,-0.043094,-0.978141
1465407321,0.357494,-0.028978,-0.964202
1465407321,0.258529,-0.03772,-0.987738
1465407321,0.421441,-0.01808,-0.925685
1465407321,0.466956,-0.016391,-0.897895
1465407321,0.532751,-0.021894,-0.838056
1465407321,0.664778,-0.004205,-0.786794
1465407321,0.747816,0.000286,-0.722866
1465407321,0.811628,0.004985,-0.659111
1465407322,0.861743,0.012197,-0.608764
1465407322,0.969452,0.006502,-0.500762
1465407322,0.916029,0.00913,-0.558224
1465407322,1.014519,0.014408,-0.432752
1465407322,1.046881,0.008056,-0.358894
1465407322,1.062062,0.004339,-0.1913
1465407322,1.06922,0.011631,-0.086891
1465407322,1.08504,0.017445,-0.069691
1465407322,1.076066,0.015111,0.015205
1465407322,1.064157,0.022351,0.095081
1465407322,1.050517,0.041147,0.194817
1465407322,1.022957,0.036539,0.249632
1465407322,0.997375,0.006812,0.268268
1465407322,0.968042,0.013554,0.380969
1465407322,0.999904,0.02396,0.300842
1465407322,0.928701,0.022758,0.455434
1465407322,0.794214,0.008576,0.574296
1465407322,0.893553,0.029376,0.509044
1465407322,0.686404,0.026551,0.670059
1465407322,0.620698,-0.006544,0.666728
1465407322,0.62009,0.007758,0.641272
1465407322,0.644798,-0.014554,0.55848
1465407322,0.678493,0.007008,0.544659
1465407322,0.682945,-0.006009,0.546516
1465407322,0.474341,0.017618,0.771158
1465407322,0.434221,0.022587,0.79071
1465407322,0.489345,-0.032573,0.671286
1465407322,0.413558,0.018368,0.770839
1465407322,0.335674,0.013489,0.816174
1465407322,0.379826,-0.005857,0.745419
1465407322,0.313258,-0.000989,0.790358
1465407322,0.271629,-0.000303,0.802908
1465407322,0.289224,-0.012289,0.76354
1465407322,0.239404,-0.003797,0.805472
1465407322,0.217114,-0.00196,0.816334
1465407322,0.181641,-0.007261,0.820099
1465407322,0.12538,-0.003899,0.862703
1465407322,0.038813,0.004454,0.880962
1465407322,0.0945,-0.016934,0.84995
1465407322,-0.003074,-0.006701,0.886561
1465407322,-0.085431,-0.003995,0.905566
1465407322,-0.149354,-0.005787,0.90913
1465407322,-0.228165,-0.014278,0.88304
1465407322,-0.298935,-0.008706,0.864762
1465407322,-0.366908,-0.007041,0.837063
1465407322,-0.415592,-0.020125,0.807893
1465407322,-0.479363,-0.011927,0.79787
1465407322,-0.546614,-0.015041,0.775535
1465407322,-0.594145,-0.02555,0.736142
1465407322,-0.660628,-0.025668,0.697411
1465407322,-0.727547,-0.039544,0.636516
1465407322,-0.738532,-0.046063,0.556554
1465407322,-0.787822,-0.054754,0.49153
1465407322,-0.797237,-0.054061,0.394596
1465407322,-0.838876,-0.026745,0.343897
1465407322,-0.825848,-0.04633,0.236025
1465407322,-0.828508,-0.03641,0.142893
1465407322,-0.821509,-0.057426,0.059973
1465407322,-0.813321,-0.057126,0.012429
1465407322,-0.8008,-0.052314,-0.069416
1465407322,-0.783959,-0.062429,-0.138489
1465407322,-0.799689,-0.051913,-0.159829
1465407322,-0.771516,-0.050885,-0.222714
1465407322,-0.735984,-0.051537,-0.308547
1465407322,-0.663438,-0.032808,-0.379415
1465407322,-0.675623,-0.039814,-0.3951
1465407322,-0.585732,-0.042809,-0.447138
1465407322,-0.488805,-0.033956,-0.573308
1465407322,-0.46032,-0.036324,-0.581058
1465407322,-0.436202,-0.044259,-0.57126
1465407322,-0.273398,-0.039796,-0.695363
1465407322,-0.328502,-0.050559,-0.656016
1465407322,-0.266576,-0.047268,-0.666031
1465407322,-0.200317,-0.050153,-0.718687
1465407322,-0.147356,-0.040033,-0.75572
1465407322,-0.129323,-0.03986,-0.762115
1465407322,-0.058287,-0.044931,-0.771351
1465407322,0.032547,-0.041078,-0.806956
1465407322,0.072792,-0.02834,-0.812291
1465407322,0.107844,-0.047225,-0.795049
1465407322,0.183236,-0.035448,-0.788979
1465407322,0.250343,-0.031645,-0.792303
1465407322,0.300197,-0.029986,-0.77398
1465407322,0.349592,-0.028963,-0.762539
1465407322,0.419819,-0.022898,-0.769387
1465407322,0.503492,-0.022564,-0.752385
1465407322,0.572911,-0.015668,-0.707573
1465407322,0.642059,-0.011232,-0.654795
1465407322,0.702673,-0.000617,-0.621419
1465407322,0.759083,0.008124,-0.561006
1465407322,0.788314,0.009425,-0.510696
1465407322,0.857185,0.009818,-0.412436
1465407322,0.828415,0.017659,-0.470783
1465407322,0.876092,0.008642,-0.319941
1465407322,0.894119,0.010033,-0.256736
1465407322,0.896864,0.009689,-0.185629
1465407322,0.89549,0.004945,-0.121106
1465407322,0.923679,0.007171,-0.090553
1465407322,0.91138,0.011462,-0.000868
1465407322,0.914958,0.018461,0.065003
1465407323,0.906535,0.027263,0.123489
1465407323,0.889947,0.005525,0.144005
1465407323,0.907732,0.028964,0.163201
1465407323,0.882901,0.01312,0.262519
1465407323,0.860765,0.028394,0.325628
1465407323,0.777535,0.012758,0.401684
1465407323,0.848924,0.024818,0.336204
1465407323,0.706416,0.017174,0.49006
1465407323,0.673867,-0.001206,0.479561
1465407323,0.66837,-0.001304,0.466133
1465407323,0.6156,0.00441,0.513564
1465407323,0.601071,0.002135,0.538885
1465407323,0.580636,-0.004433,0.540682
1465407323,0.560113,0.019382,0.583781
1465407323,0.522037,0.008283,0.610908
1465407323,0.535404,0.000795,0.595268
1465407323,0.501259,0.008899,0.635422
1465407323,0.518626,-0.004459,0.620323
1465407323,0.463574,0.002889,0.667362
1465407323,0.42762,0.010331,0.711916
1465407323,0.425306,-0.005056,0.692988
1465407323,0.396496,0.003008,0.728445
1465407323,0.367908,-0.001598,0.751086
1465407323,0.286549,-0.001949,0.79948
1465407323,0.276121,0.003804,0.808533
1465407323,0.254217,-0.007121,0.816165
1465407323,0.213779,0.011742,0.852266
1465407323,0.143848,-0.0032,0.89079
1465407323,0.188447,-0.003408,0.864863
1465407323,0.089283,0.00101,0.911014
1465407323,0.030813,-0.000312,0.923649
1465407323,-0.078296,0.002132,0.942894
1465407323,-0.129653,-0.004547,0.926269
1465407323,-0.290488,-0.017749,0.912592
1465407323,-0.225541,-0.007945,0.934194
1465407323,-0.354383,-0.028995,0.893995
1465407323,-0.431958,-0.017081,0.887866
1465407323,-0.494795,-0.028872,0.870324
1465407323,-0.592158,-0.03783,0.838028
1465407323,-0.657928,-0.043878,0.786288
1465407323,-0.735465,-0.051008,0.733668
1465407323,-0.783797,-0.052351,0.667071
1465407323,-0.827991,-0.05545,0.584768
1465407323,-0.880759,-0.061446,0.476883
1465407323,-0.889495,-0.054628,0.360836
1465407323,-0.911282,-0.039231,0.204229
1465407323,-0.903452,-0.040734,0.280753
1465407323,-0.911206,-0.04604,0.100554
1465407323,-0.916806,-0.040934,-0.001371
1465407323,-0.902774,-0.035812,-0.079249
1465407323,-0.850842,-0.048534,-0.241345
1465407323,-0.889827,-0.031796,-0.14657
1465407323,-0.794665,-0.063289,-0.322341
1465407323,-0.787159,-0.048981,-0.357263
1465407323,-0.715202,-0.055218,-0.443892
1465407323,-0.582942,-0.042723,-0.589973
1465407323,-0.531489,-0.04894,-0.61037
1465407323,-0.535257,-0.055786,-0.561125
1465407323,-0.408011,-0.047592,-0.670948
1465407323,-0.349141,-0.048782,-0.703027
1465407323,-0.31351,-0.058585,-0.686611
1465407323,-0.209859,-0.047879,-0.771696
1465407323,-0.156865,-0.049362,-0.778685
1465407323,-0.090346,-0.056364,-0.804688
1465407323,0.017285,-0.044946,-0.820295
1465407323,0.092977,-0.041681,-0.842866
1465407323,0.170783,-0.037826,-0.855775
1465407323,0.261082,-0.036236,-0.880662
1465407323,0.415825,-0.028815,-0.869078
1465407323,0.332544,-0.035256,-0.887496
1465407323,0.512114,-0.023854,-0.847491
1465407323,0.637894,-0.002427,-0.76309
1465407323,0.568723,-0.022025,-0.824927
1465407323,0.666875,-0.012254,-0.707109
1465407323,0.7211,-0.006221,-0.609838
1465407323,0.68757,-0.008183,-0.654076
1465407323,0.720163,-0.00696,-0.56515
1465407323,0.74616,0.001512,-0.510471
1465407323,0.743769,0.006909,-0.453124
1465407323,0.753917,0.001299,-0.40816
1465407323,0.774198,0.005406,-0.333872
1465407323,0.793217,0.004957,-0.245703
1465407323,0.790324,0.000435,-0.159478
1465407323,0.845835,0.010275,-0.147048
1465407323,0.88631,-0.005499,-0.154063
1465407323,0.914116,0.002616,-0.080016
1465407323,0.92821,0.007146,-0.009582
1465407323,0.935618,0.035869,0.074885
1465407323,0.914969,0.02143,0.140158
