timestamp,attitude_roll,attitude_pitch,attitude_yaw,rotation_rate_x,rotation_rate_y,rotation_rate_z,gravity_x,gravity_y,gravity_z,user_acc_x,user_acc_y,user_acc_z,magnetic_field_x,magnetic_field_y,magnetic_field_z,latitude(degree),longitude(degree),altitude(meter),speed(m/s),course(degree),timestamp
1466451791.30,0.688878,0.001545,-0.760393,-0.007537,-0.020515,0.000534,0.635671,-0.001545,-0.771959,-0.000066,-0.000500,-0.002608,-9.894596,365.964172,-45.829414,,,,,,
1466451791.31,0.688527,0.001424,-0.760313,-0.010738,-0.025823,0.000564,0.635400,-0.001424,-0.772182,-0.000863,0.001912,-0.005879,-9.841026,365.990662,-45.628418,,,,,,
1466451791.32,0.689154,0.001338,-0.760247,-0.019102,0.089929,-0.004427,0.635884,-0.001338,-0.771784,-0.011220,-0.002630,0.014734,-9.841026,365.990662,-45.628418,,,,,,
,,,,,,,,,,,,,,,,29.719961,-95.399089,9.638813,-1.000000,-1.000000,1466452118.73
1466451791.33,0.690111,0.001166,-0.760161,-0.015872,0.118595,-0.004604,0.636622,-0.001166,-0.771175,-0.018733,-0.000360,0.000393,-9.835329,366.002045,-45.538574,,,,,,
1466451791.34,0.692173,0.001243,-0.760235,0.016237,0.256605,-0.002244,0.638211,-0.001243,-0.769861,-0.007840,-0.001412,0.013696,-9.835329,366.002045,-45.538574,,,,,,
1466451791.35,0.697085,0.001256,-0.760328,0.001728,0.568790,-0.007410,0.641985,-0.001256,-0.766716,-0.042147,0.000478,0.040001,-9.835329,366.002045,-45.538574,,,,,,
1466451791.36,0.703194,0.001170,-0.760349,-0.009907,0.626138,-0.009910,0.646657,-0.001170,-0.762780,-0.052891,-0.003316,0.010919,-9.835329,366.002045,-45.538574,,,,,,
1466451791.37,0.708312,0.001019,-0.760349,-0.011096,0.527389,-0.009292,0.650553,-0.001019,-0.759461,-0.019663,-0.000217,-0.016540,-9.263197,366.003143,-45.649734,,,,,,
1466451791.38,0.713904,0.000859,-0.760368,-0.012078,0.590041,-0.011815,0.654789,-0.000859,-0.755811,-0.018330,0.000752,0.003354,-9.263197,366.003143,-45.649734,,,,,,
,,,,,,,,,,,,,,,,29.719963,-95.399094,9.638813,-1.000000,-1.000000,1466452119.05
1466451791.39,0.720357,0.000627,-0.760344,-0.018359,0.673929,-0.013412,0.659653,-0.000627,-0.751570,-0.033356,-0.000044,0.011565,-9.263197,366.003143,-45.649734,,,,,,
1466451791.40,0.727563,0.000390,-0.760341,-0.018260,0.749322,-0.016013,0.665052,-0.000390,-0.746797,-0.036863,0.000283,0.007738,-8.853775,366.011383,-45.664673,,,,,,
1466451791.41,0.735817,0.000136,-0.760336,-0.019199,0.848073,-0.017698,0.671193,-0.000136,-0.741282,-0.032476,-0.000337,0.012172,-8.853775,366.011383,-45.664673,,,,,,
1466451791.42,0.744974,-0.000134,-0.760356,-0.018009,0.945762,-0.019374,0.677953,0.000134,-0.735105,-0.055852,-0.007397,0.019987,-8.853775,366.011383,-45.664673,,,,,,
1466451791.43,0.756032,-0.000469,-0.760337,-0.026227,1.183613,-0.021938,0.686040,0.000469,-0.727564,-0.116094,0.004261,0.026117,-7.673885,366.040192,-45.647591,,,,,,
1466451791.44,0.770834,-0.000876,-0.760343,-0.032114,1.574374,-0.029717,0.696733,0.000876,-0.717330,-0.117571,-0.001471,0.077193,-7.673885,366.040192,-45.647591,,,,,,
1466451791.45,0.788471,-0.001400,-0.760297,-0.039267,1.809044,-0.034389,0.709276,0.001400,-0.704930,-0.096712,0.001255,0.040379,-7.673885,366.040192,-45.647591,,,,,,
1466451791.46,0.807813,-0.001955,-0.760255,-0.045432,1.983189,-0.037617,0.722776,0.001955,-0.691079,-0.106596,0.000182,0.036737,-6.676901,366.061615,-45.632412,,,,,,
1466451791.47,0.829980,-0.002571,-0.760192,-0.047154,2.304922,-0.041765,0.737916,0.002571,-0.674888,-0.128663,-0.005150,0.068168,-6.676901,366.061615,-45.632412,,,,,,
1466451791.48,0.855732,-0.003295,-0.760088,-0.057354,2.653213,-0.049282,0.755047,0.003295,-0.655662,-0.111996,0.000657,0.066261,-6.676901,366.061615,-45.632412,,,,,,
1466451791.49,0.884277,-0.004086,-0.759960,-0.064462,2.925044,-0.053123,0.773451,0.004086,-0.633843,-0.133665,-0.000866,0.068490,-3.391039,366.137756,-45.383347,,,,,,
1466451791.50,0.916067,-0.004934,-0.759814,-0.065079,3.276510,-0.058521,0.793203,0.004934,-0.608937,-0.140997,-0.002920,0.085560,-3.391039,366.137756,-45.383347,,,,,,
,,,,,,,,,,,,,,,,29.719965,-95.399099,9.638813,-1.000000,-1.000000,1466452119.07
1466451791.51,0.951713,-0.005887,-0.759594,-0.078444,3.651342,-0.064078,0.814397,0.005887,-0.580279,-0.122273,0.001224,0.089815,-3.391039,366.137756,-45.383347,,,,,,
1466451791.52,0.989993,-0.006916,-0.759338,-0.079217,3.874339,-0.071864,0.836002,0.006916,-0.548682,-0.073643,0.002620,0.075828,-1.063160,366.191833,-45.060020,,,,,,
1466451791.53,1.029557,-0.007983,-0.759030,-0.086534,3.980526,-0.073602,0.857044,0.007983,-0.515182,-0.059375,-0.003421,0.057296,-1.063160,366.191833,-45.060020,,,,,,
1466451791.54,1.070689,-0.009085,-0.758617,-0.089497,4.163160,-0.075815,0.877495,0.009085,-0.479500,-0.060540,0.001551,0.059974,-1.063160,366.191833,-45.060020,,,,,,
1466451791.55,1.113539,-0.010243,-0.758186,-0.093559,4.306530,-0.085234,0.897220,0.010243,-0.441466,-0.008578,0.003551,0.077589,4.764870,366.342377,-43.572411,,,,,,
1466451791.56,1.157070,-0.011427,-0.757706,-0.091338,4.379793,-0.085691,0.915569,0.011427,-0.401998,-0.038509,0.010515,0.051763,4.764870,366.342377,-43.572411,,,,,,
,,,,,,,,,,,,,,,,29.720011,-95.399010,9.735072,-1.000000,-1.000000,1466452119.22
1466451791.57,1.202768,-0.012631,-0.757136,-0.102700,4.650573,-0.092723,0.932964,0.012630,-0.359747,-0.086605,-0.005626,0.090994,4.764870,366.342377,-43.572411,,,,,,
1466451791.58,1.252091,-0.013868,-0.756469,-0.102236,5.019021,-0.096098,0.949550,0.013867,-0.313308,-0.083568,-0.001218,0.114363,7.854078,366.432648,-42.348660,,,,,,
1466451791.59,1.304352,-0.015136,-0.755708,-0.112556,5.275989,-0.099848,0.964603,0.015135,-0.263273,-0.057544,-0.000411,0.114469,7.854078,366.432648,-42.348660,,,,,,
1466451791.60,1.357890,-0.016358,-0.754821,-0.113522,5.361983,-0.096131,0.977290,0.016357,-0.211273,-0.005946,-0.003220,0.077072,7.854078,366.432648,-42.348660,,,,,,
1466451791.61,1.410565,-0.017524,-0.753879,-0.113711,5.205907,-0.098346,0.987039,0.017523,-0.159522,0.117392,0.007364,0.037284,14.598951,366.648865,-38.516018,,,,,,
1466451791.62,1.459593,-0.018589,-0.752932,-0.105731,4.785415,-0.090378,0.993652,0.018588,-0.110955,0.188798,0.002743,0.004495,14.598951,366.648865,-38.516018,,,,,,
1466451791.63,1.503624,-0.019548,-0.752026,-0.095728,4.276797,-0.083985,0.997554,0.019547,-0.067109,0.213765,0.008789,-0.066787,14.598951,366.648865,-38.516018,,,,,,
1466451791.65,1.581553,-0.021114,-0.750363,-0.085772,3.740555,-0.071032,0.999719,0.021112,0.010754,0.145651,-0.000620,-0.002179,17.696510,366.762573,-36.056061,,,,,,
1466451791.64,1.543666,-0.020367,-0.751219,-0.084459,3.928511,-0.078596,0.999425,0.020366,-0.027122,0.182323,0.002172,-0.034707,17.696510,366.762573,-36.056061,,,,,,
1466451791.66,1.617762,-0.021773,-0.749553,-0.075309,3.600380,-0.065885,0.998661,0.021771,0.046938,0.074536,0.007908,-0.031892,17.696510,366.762573,-36.056061,,,,,,
1466451791.67,1.653680,-0.022399,-0.748725,-0.081727,3.568544,-0.071014,0.996317,0.022397,0.082768,0.099371,-0.000181,0.020290,21.927999,366.941742,-31.637173,,,,,,
1466451791.68,1.687750,-0.022980,-0.747923,-0.070309,3.345539,-0.062152,0.992907,0.022978,0.116656,0.087904,-0.002119,-0.019244,21.927999,366.941742,-31.637173,,,,,,
1466451791.69,1.720944,-0.023550,-0.747110,-0.072441,3.338131,-0.067428,0.988475,0.023548,0.149543,0.036855,0.009518,-0.010764,21.927999,366.941742,-31.637173,,,,,,
1466451791.70,1.755520,-0.024079,-0.746276,-0.075443,3.491032,-0.068390,0.982702,0.024076,0.183622,0.012949,-0.007292,0.049944,23.575842,367.018799,-29.485020,,,,,,
1466451791.71,1.790895,-0.024614,-0.745364,-0.077507,3.542002,-0.069776,0.975580,0.024612,0.218260,0.002661,0.003495,0.017992,23.575842,367.018799,-29.485020,,,,,,
1466451791.72,1.827695,-0.025134,-0.744419,-0.080436,3.748003,-0.074264,0.966877,0.025131,0.254002,-0.052937,0.000412,0.047039,23.575842,367.018799,-29.485020,,,,,,
1466451791.73,1.867870,-0.025664,-0.743352,-0.091687,4.103733,-0.083957,0.955882,0.025661,0.292627,-0.058086,-0.005565,0.091727,26.364603,367.170929,-24.867558,,,,,,
1466451791.74,1.910464,-0.026199,-0.742195,-0.092530,4.276813,-0.087173,0.942542,0.026196,0.333060,-0.009268,0.007861,0.064706,26.364603,367.170929,-24.867558,,,,,,
1466451791.75,1.953256,-0.026685,-0.741028,-0.092525,4.281060,-0.087199,0.927419,0.026682,0.373071,-0.005147,-0.001230,0.038093,26.364603,367.170929,-24.867558,,,,,,
1466451791.76,1.998307,-0.027133,-0.739797,-0.097441,4.600674,-0.092402,0.909666,0.027129,0.414454,-0.047315,-0.002090,0.084676,27.687914,367.258667,-21.964863,,,,,,
1466451791.77,2.046385,-0.027608,-0.738385,-0.106694,4.844925,-0.105652,0.888685,0.027605,0.457687,-0.007932,0.010268,0.100159,27.687914,367.258667,-21.964863,,,,,,
1466451791.78,2.096880,-0.027994,-0.736941,-0.110585,5.142227,-0.105392,0.864441,0.027991,0.501954,-0.090134,-0.006918,0.100738,27.687914,367.258667,-21.964863,,,,,,
1466451791.79,2.152718,-0.028334,-0.735323,-0.122620,5.719877,-0.117542,0.835073,0.028331,0.549410,-0.084233,0.004262,0.179777,29.737885,367.443909,-15.119668,,,,,,
1466451791.80,2.213281,-0.028609,-0.733585,-0.127393,6.157345,-0.121355,0.800282,0.028605,0.598941,-0.088612,0.010793,0.176358,29.737885,367.443909,-15.119668,,,,,,
1466451791.81,2.278363,-0.028760,-0.731652,-0.145951,6.616097,-0.140217,0.759631,0.028756,0.649718,-0.074420,0.000953,0.194795,29.737885,367.443909,-15.119668,,,,,,
1466451791.82,2.348691,-0.028788,-0.729586,-0.154844,7.163994,-0.144727,0.712097,0.028784,0.701490,-0.086487,-0.002157,0.246599,30.372095,367.546906,-10.714939,,,,,,
1466451791.83,2.425290,-0.028632,-0.727338,-0.167854,7.823387,-0.151004,0.656331,0.028628,0.753929,-0.097982,0.020215,0.284156,30.372095,367.546906,-10.714939,,,,,,
1466451791.84,2.508197,-0.028204,-0.724914,-0.188370,8.424413,-0.167567,0.591650,0.028200,0.805702,-0.047979,-0.000078,0.317727,30.372095,367.546906,-10.714939,,,,,,
1466451791.85,2.595130,-0.027619,-0.722408,-0.187942,8.759952,-0.172865,0.519470,0.027615,0.854042,0.045105,0.022906,0.324623,29.694626,367.757904,0.574320,,,,,,
1466451791.86,2.685514,-0.026666,-0.719854,-0.213030,9.120995,-0.181541,0.440274,0.026663,0.897467,0.080340,-0.000769,0.349542,29.694626,367.757904,0.574320,,,,,,
1466451791.87,2.778485,-0.025447,-0.717373,-0.209602,9.316350,-0.177440,0.355066,0.025444,0.934495,0.181906,0.018333,0.374114,27.707382,367.844391,7.126129,,,,,,
1466451791.88,2.871037,-0.024063,-0.714950,-0.208671,9.194268,-0.186254,0.267190,0.024060,0.963344,0.289283,0.022982,0.326207,27.707382,367.844391,7.126129,,,,,,
1466451791.89,2.960181,-0.022456,-0.712753,-0.202772,8.817303,-0.175368,0.180372,0.022454,0.983342,0.355760,0.014152,0.264796,27.707382,367.844391,7.126129,,,,,,
1466451791.90,3.045522,-0.020794,-0.710741,-0.187279,8.436107,-0.172962,0.095903,0.020792,0.995174,0.403228,0.024877,0.243535,27.707382,367.844391,7.126129,,,,,,
1466451791.91,3.126859,-0.019003,-0.709026,-0.192106,7.993320,-0.163803,0.014730,0.019002,0.999711,0.425882,0.001719,0.227004,20.295918,367.911591,18.897255,,,,,,
1466451791.92,-3.082314,-0.017282,-0.707558,-0.158014,7.186288,-0.142741,-0.059235,0.017281,0.998094,0.495758,0.033333,0.136824,20.295918,367.911591,18.897255,,,,,,
1466451791.93,-3.016620,-0.015636,-0.706380,-0.152698,6.341073,-0.131048,-0.124633,0.015636,0.992080,0.518538,0.004201,0.059358,15.883616,367.893127,23.029579,,,,,,
1466451791.94,-2.960771,-0.014233,-0.705442,-0.116713,5.347160,-0.107748,-0.179820,0.014233,0.983597,0.536143,0.022129,-0.019501,15.883616,367.893127,23.029579,,,,,,
1466451791.95,-2.913428,-0.012931,-0.704717,-0.108175,4.524241,-0.096191,-0.226171,0.012931,0.974002,0.477285,0.007287,-0.034655,15.883616,367.893127,23.029579,,,,,,
1466451791.96,-2.874617,-0.011893,-0.704188,-0.085870,3.664114,-0.070550,-0.263797,0.011893,0.964505,0.465655,0.012491,-0.073392,15.883616,367.893127,23.029579,,,,,,
1466451791.97,-2.845473,-0.011046,-0.703830,-0.060556,2.642615,-0.052409,-0.291793,0.011046,0.956418,0.486938,0.014467,-0.116406,9.076145,367.824890,27.394512,,,,,,
1466451791.98,-2.827398,-0.010559,-0.703590,-0.038537,1.542541,-0.032715,-0.309034,0.010559,0.950992,0.482954,0.003510,-0.187717,9.076145,367.824890,27.394512,,,,,,
1466451791.99,-2.819105,-0.010298,-0.703480,-0.012068,0.596423,-0.012917,-0.316910,0.010297,0.948400,0.447754,0.016985,-0.176427,9.076145,367.824890,27.394512,,,,,,
1466451792.00,-2.820075,-0.010338,-0.703489,0.004856,-0.323139,0.004576,-0.315990,0.010338,0.948706,0.405467,0.000115,-0.191672,7.412344,367.802032,28.191065,,,,,,
1466451792.01,-2.829697,-0.010618,-0.703599,0.030379,-1.172635,0.024831,-0.306846,0.010618,0.951700,0.373634,0.016100,-0.174142,7.412344,367.802032,28.191065,,,,,,
1466451792.02,-2.847694,-0.011117,-0.703828,0.044222,-2.005122,0.039646,-0.289668,0.011117,0.957063,0.348369,0.003532,-0.172151,7.412344,367.802032,28.191065,,,,,,
1466451792.03,-2.873785,-0.011861,-0.704149,0.068746,-2.808949,0.055357,-0.264599,0.011861,0.964286,0.337749,0.010447,-0.156134,8.126225,367.811890,27.863699,,,,,,
1466451792.04,-2.907706,-0.012783,-0.704599,0.082668,-3.578789,0.069779,-0.231741,0.012783,0.972694,0.309759,0.007344,-0.135505,8.126225,367.811890,27.863699,,,,,,
1466451792.05,-2.948188,-0.013879,-0.705204,0.096797,-4.176630,0.087380,-0.192183,0.013879,0.981261,0.259077,0.008826,-0.100371,8.126225,367.811890,27.863699,,,,,,
1466451792.06,-2.992979,-0.015032,-0.705932,0.102681,-4.575876,0.092019,-0.148051,0.015032,0.988865,0.201533,0.006834,-0.035374,10.200349,367.839569,26.795771,,,,,,
1466451792.07,-3.042020,-0.016279,-0.706762,0.114910,-5.003803,0.100037,-0.099395,0.016278,0.994915,0.180862,0.009585,-0.008053,10.200349,367.839569,26.795771,,,,,,
1466451792.08,-3.094878,-0.017532,-0.707745,0.120815,-5.377582,0.109838,-0.046691,0.017531,0.998756,0.163573,0.003114,0.017312,10.200349,367.839569,26.795771,,,,,,
1466451792.09,3.131867,-0.018864,-0.708846,0.133160,-5.718432,0.114117,0.009724,0.018863,0.999775,0.145488,0.009122,0.048458,16.244623,367.895386,22.739513,,,,,,
1466451792.10,3.073559,-0.020121,-0.710066,0.130861,-5.852221,0.116018,0.067968,0.020120,0.997485,0.090159,0.007972,0.083570,16.244623,367.895386,22.739513,,,,,,
1466451792.11,3.014291,-0.021328,-0.711381,0.132856,-5.957343,0.117744,0.126929,0.021326,0.991683,0.067163,0.007040,0.135499,16.244623,367.895386,22.739513,,,,,,
1466451792.12,2.954112,-0.022467,-0.712780,0.135978,-6.010444,0.121274,0.186337,0.022465,0.982229,0.020389,0.010220,0.123057,19.527468,367.909882,19.722366,,,,,,
1466451792.13,2.895449,-0.023494,-0.714249,0.128777,-5.810818,0.118950,0.243599,0.023492,0.969592,-0.043434,0.001472,0.189695,19.527468,367.909882,19.722366,,,,,,
1466451792.14,2.838367,-0.024423,-0.715686,0.130049,-5.650478,0.114752,0.298511,0.024420,0.954094,-0.084888,-0.013480,0.182030,22.557529,367.907593,16.222319,,,,,,
1466451792.15,2.784742,-0.025184,-0.717112,0.113517,-5.262888,0.103789,0.349214,0.025182,0.936704,-0.097460,0.023448,0.217379,22.557529,367.907593,16.222319,,,,,,
1466451792.16,2.734510,-0.025825,-0.718472,0.106466,-4.940100,0.102822,0.395800,0.025822,0.917974,-0.170244,-0.006718,0.149485,22.557529,367.907593,16.222319,,,,,,
1466451792.17,2.688913,-0.026350,-0.719677,0.098653,-4.403841,0.083485,0.437225,0.026347,0.898966,-0.221527,0.005254,0.236669,26.981369,367.858307,8.959177,,,,,,
1466451792.18,2.649743,-0.026783,-0.720789,0.079250,-3.750811,0.075112,0.472088,0.026780,0.881145,-0.248562,0.010268,0.167546,26.981369,367.858307,8.959177,,,,,,
1466451792.19,2.617089,-0.027083,-0.721685,0.071573,-3.092469,0.063524,0.500600,0.027080,0.865255,-0.291509,-0.011012,0.192362,26.981369,367.858307,8.959177,,,,,,
1466451792.20,2.591469,-0.027314,-0.722429,0.050134,-2.378891,0.046254,0.522597,0.027310,0.852142,-0.299728,0.006641,0.173478,28.227411,367.826111,5.931040,,,,,,
1466451792.21,2.573242,-0.027421,-0.722945,0.031915,-1.634541,0.035181,0.538040,0.027418,0.842473,-0.310257,0.001803,0.150782,28.227411,367.826111,5.931040,,,,,,
1466451792.22,2.562477,-0.027545,-0.723256,0.025426,-0.888052,0.016655,0.547076,0.027542,0.836630,-0.331241,-0.010635,0.163599,28.227411,367.826111,5.931040,,,,,,
1466451792.23,2.559306,-0.027538,-0.723337,-0.003404,-0.121386,0.001173,0.549726,0.027534,0.834891,-0.319013,0.005989,0.143899,29.242462,367.784546,2.719191,,,,,,
1466451792.24,2.563900,-0.027519,-0.723220,-0.009885,0.643133,-0.010015,0.545886,0.027516,0.837408,-0.295260,-0.003315,0.142634,29.242462,367.784546,2.719191,,,,,,
1466451792.25,2.575339,-0.027423,-0.722874,-0.031392,1.302558,-0.026945,0.536273,0.027419,0.843599,-0.269793,-0.003112,0.128904,29.242462,367.784546,2.719191,,,,,,
1466451792.27,2.616073,-0.027081,-0.721709,-0.051267,2.412190,-0.047762,0.501479,0.027077,0.864746,-0.195159,-0.006676,0.105637,29.232410,367.784943,2.776173,,,,,,
1466451792.26,2.593054,-0.027261,-0.722370,-0.044442,1.921616,-0.038292,0.521247,0.027257,0.852970,-0.209068,0.007899,0.120907,29.232410,367.784943,2.776173,,,,,,
1466451792.28,2.643652,-0.026789,-0.720918,-0.067708,2.873044,-0.059184,0.477446,0.026786,0.878253,-0.163451,0.007684,0.124235,29.232410,367.784943,2.776173,,,,,,
1466451792.29,2.675857,-0.026445,-0.720044,-0.072461,3.329619,-0.060988,0.448923,0.026441,0.893179,-0.128366,-0.003141,0.117609,29.232410,367.784943,2.776173,,,,,,
1466451792.30,2.711847,-0.026001,-0.719030,-0.085855,3.666253,-0.075886,0.416498,0.025999,0.908765,-0.096720,0.006808,0.102618,28.303341,367.823334,5.734577,,,,,,
1466451792.31,2.750535,-0.025519,-0.718006,-0.086594,3.927454,-0.076460,0.381042,0.025516,0.924205,-0.063141,0.004895,0.110295,28.303341,367.823334,5.734577,,,,,,
1466451792.32,2.791731,-0.024980,-0.716877,-0.091600,4.167447,-0.086486,0.342661,0.024977,0.939127,0.000952,-0.000960,0.088659,28.303341,367.823334,5.734577,,,,,,
1466451792.33,2.833856,-0.024332,-0.715757,-0.099002,4.207799,-0.086747,0.302813,0.024330,0.952739,0.031675,0.009560,0.070484,25.981134,367.875580,10.979515,,,,,,
1466451792.34,2.875697,-0.023659,-0.714688,-0.093742,4.161071,-0.084320,0.262700,0.023657,0.964588,0.066005,0.007792,0.053967,25.981134,367.875580,10.979515,,,,,,
1466451792.35,2.916842,-0.022984,-0.713670,-0.089554,4.109032,-0.080796,0.222805,0.022982,0.974592,0.114842,-0.002977,0.051195,25.981134,367.875580,10.979515,,,,,,
1466451792.36,2.956715,-0.022256,-0.712680,-0.088732,3.910484,-0.082743,0.183781,0.022255,0.982715,0.159649,0.016869,0.003430,24.320301,367.894135,13.798836,,,,,,
1466451792.37,2.992989,-0.021590,-0.711817,-0.079635,3.539881,-0.069765,0.148023,0.021588,0.988748,0.117847,-0.001431,-0.006983,24.320301,367.894135,13.798836,,,,,,
1466451792.38,3.027227,-0.020914,-0.711047,-0.074500,3.393343,-0.066712,0.114091,0.020912,0.993250,0.155089,0.008491,0.022161,24.320301,367.894135,13.798836,,,,,,
1466451792.39,3.058654,-0.020285,-0.710359,-0.071633,3.135313,-0.062962,0.082827,0.020283,0.996358,0.200880,0.006297,-0.044240,20.744694,367.908478,18.466337,,,,,,
1466451792.40,3.086302,-0.019689,-0.709758,-0.060581,2.619254,-0.053328,0.055251,0.019687,0.998278,0.221101,0.006512,-0.066241,20.744694,367.908478,18.466337,,,,,,
1466451792.41,3.108282,-0.019199,-0.709288,-0.048506,2.071337,-0.042428,0.033298,0.019198,0.999261,0.218182,0.003339,-0.087075,20.744694,367.908478,18.466337,,,,,,
1466451792.42,3.125820,-0.018804,-0.708927,-0.037340,1.647651,-0.032309,0.015769,0.018803,0.999699,0.230737,0.008770,-0.073139,19.170506,367.906342,20.134577,,,,,,
1466451792.43,3.138177,-0.018520,-0.708665,-0.026331,1.095493,-0.023513,0.003415,0.018519,0.999823,0.228595,0.005239,-0.117071,19.170506,367.906342,20.134577,,,,,,
1466451792.44,-3.138270,-0.018358,-0.708510,-0.012135,0.541205,-0.012571,-0.003322,0.018357,0.999826,0.205486,0.006667,-0.095254,19.170506,367.906342,20.134577,,,,,,
1466451792.45,-3.136281,-0.018312,-0.708470,-0.004195,0.092037,-0.002295,-0.005311,0.018311,0.999818,0.201508,0.006851,-0.094819,17.497707,367.900085,21.710632,,,,,,
1466451792.46,3.138315,-0.018673,-0.708607,0.005946,-0.307254,0.003413,0.003277,0.018672,0.999820,0.127628,0.005254,-0.074024,17.497707,367.900085,21.710632,,,,,,
1466451792.47,3.133455,-0.018788,-0.708722,0.009902,-0.536626,0.012306,0.008136,0.018787,0.999790,0.117551,0.004895,-0.041233,17.497707,367.900085,21.710632,,,,,,
1466451792.48,3.126418,-0.018920,-0.708862,0.016004,-0.761737,0.015853,0.015172,0.018919,0.999706,0.110332,0.000353,-0.060329,17.675858,367.905151,21.478853,,,,,,
1466451792.49,3.116772,-0.019121,-0.709070,0.023104,-1.036759,0.021843,0.024814,0.019120,0.999509,0.111447,0.010436,-0.038526,17.675858,367.905151,21.478853,,,,,,
1466451792.50,3.104241,-0.019401,-0.709321,0.030203,-1.316023,0.025730,0.037336,0.019400,0.999114,0.099063,-0.000585,-0.057418,18.022718,367.905975,21.174627,,,,,,
1466451792.51,3.089703,-0.019715,-0.709618,0.034233,-1.496534,0.027931,0.051857,0.019714,0.998460,0.082863,0.009614,-0.015351,18.022718,367.905975,21.174627,,,,,,
1466451792.52,3.073368,-0.020078,-0.709965,0.038259,-1.675992,0.033318,0.068158,0.020076,0.997473,0.081347,-0.001430,-0.036520,18.022718,367.905975,21.174627,,,,,,
1466451792.53,3.055243,-0.020463,-0.710343,0.044413,-1.860752,0.035547,0.086225,0.020461,0.996066,0.096652,0.005372,-0.018176,19.495401,367.910797,19.737024,,,,,,
1466451792.54,3.034721,-0.020916,-0.710794,0.049410,-2.114537,0.041402,0.106645,0.020915,0.994077,0.080916,0.003545,-0.033750,19.495401,367.910797,19.737024,,,,,,
1466451792.55,3.012361,-0.021385,-0.711296,0.054542,-2.264260,0.044475,0.128843,0.021384,0.991434,0.055269,0.004617,-0.001170,19.495401,367.910797,19.737024,,,,,,
1466451792.56,2.989203,-0.021861,-0.711821,0.053401,-2.326903,0.043802,0.151764,0.021859,0.988175,0.022644,0.006293,0.007522,19.495401,367.910797,19.737024,,,,,,
1466451792.57,2.966146,-0.022318,-0.712366,0.054512,-2.284440,0.046730,0.174505,0.022316,0.984403,-0.024374,0.002312,0.039202,21.660088,367.913452,17.276979,,,,,,
1466451792.58,2.944233,-0.022734,-0.712892,0.048286,-2.159138,0.043809,0.196030,0.022732,0.980334,-0.021347,0.003788,0.040509,21.660088,367.913452,17.276979,,,,,,
1466451792.59,2.923003,-0.023106,-0.713394,0.046204,-2.124092,0.041458,0.216795,0.023104,0.975944,-0.012007,0.005323,0.013314,22.737812,367.910767,15.894207,,,,,,
1466451792.61,2.879946,-0.023813,-0.714479,0.044090,-2.113470,0.040325,0.258598,0.023811,0.965691,-0.056389,0.004372,0.032310,22.737812,367.910767,15.894207,,,,,,
1466451792.60,2.901341,-0.023488,-0.713950,0.050389,-2.175075,0.047105,0.237881,0.023486,0.971010,-0.032711,0.000623,0.020063,22.737812,367.910767,15.894207,,,,,,
1466451792.62,2.860501,-0.024126,-0.714962,0.042255,-1.880931,0.037801,0.277324,0.024123,0.960474,-0.105449,-0.001205,0.067481,23.710125,367.905334,14.543083,,,,,,
1466451792.63,2.844290,-0.024338,-0.715386,0.029921,-1.532644,0.032411,0.292855,0.024336,0.955847,-0.103356,0.005739,0.077570,23.710125,367.905334,14.543083,,,,,,
1466451792.64,2.830816,-0.024488,-0.715738,0.024896,-1.300098,0.027754,0.305706,0.024486,0.951811,-0.091122,0.001927,0.043733,23.710125,367.905334,14.543083,,,,,,
1466451792.65,2.818538,-0.024636,-0.716040,0.023956,-1.205588,0.023967,0.317368,0.024633,0.947982,-0.090119,0.004938,0.035386,25.188980,367.889343,12.285782,,,,,,
1466451792.66,2.807957,-0.024744,-0.716314,0.016722,-1.032506,0.021810,0.327380,0.024742,0.944569,-0.101611,0.002099,0.040096,25.188980,367.889343,12.285782,,,,,,
1466451792.67,2.799685,-0.024820,-0.716530,0.013882,-0.755365,0.016875,0.335181,0.024818,0.941827,-0.118522,-0.000831,0.063056,25.188980,367.889343,12.285782,,,,,,
1466451792.68,2.794150,-0.024849,-0.716678,0.005708,-0.487775,0.010931,0.340389,0.024847,0.939956,-0.118984,0.001948,0.055146,25.632156,367.882599,11.548996,,,,,,
1466451792.69,2.791106,-0.024855,-0.716773,0.001756,-0.244617,0.008338,0.343249,0.024853,0.938916,-0.109683,-0.000317,0.049259,25.632156,367.882599,11.548996,,,,,,
1466451792.70,2.795652,-0.024974,-0.716662,-0.002228,-0.030075,0.001667,0.338976,0.024971,0.940464,-0.096880,0.003105,0.044155,25.632156,367.882599,11.548996,,,,,,
1466451792.71,2.796983,-0.024926,-0.716623,-0.006205,0.187608,-0.003960,0.337725,0.024924,0.940915,-0.093554,0.001901,0.038074,25.632156,367.882599,11.548996,,,,,,
1466451792.72,2.805158,-0.024980,-0.716400,-0.013384,0.403190,-0.007449,0.330021,0.024977,0.943643,-0.086078,0.003114,0.036307,25.863995,367.879883,11.110142,,,,,,
1466451792.73,2.810671,-0.024856,-0.716257,-0.017396,0.598567,-0.009743,0.324815,0.024853,0.945451,-0.078355,0.003162,0.033614,25.863995,367.879883,11.110142,,,,,,
1466451792.74,2.818027,-0.024685,-0.716076,-0.023553,0.779082,-0.013010,0.317853,0.024682,0.947819,-0.067959,-0.000055,0.029278,25.665737,367.885376,11.384874,,,,,,
1466451792.75,2.826860,-0.024470,-0.715861,-0.027646,0.911810,-0.013846,0.309470,0.024468,0.950594,-0.039282,-0.000221,0.018400,25.665737,367.885376,11.384874,,,,,,
1466451792.76,2.836524,-0.024279,-0.715625,-0.025438,0.969155,-0.017397,0.300271,0.024277,0.953545,-0.008339,0.002929,0.018455,25.665737,367.885376,11.384874,,,,,,
1466451792.77,2.846292,-0.024096,-0.715374,-0.025425,0.977653,-0.018515,0.290943,0.024094,0.956437,0.000790,0.000946,0.004790,25.101822,367.887573,12.515100,,,,,,
1466451792.78,2.856098,-0.023915,-0.715110,-0.025414,0.985088,-0.019626,0.281551,0.023913,0.959248,0.002232,0.003080,-0.002583,25.101822,367.887573,12.515100,,,,,,
1466451792.79,2.866356,-0.023738,-0.714847,-0.024273,1.042431,-0.022113,0.271698,0.023736,0.962090,-0.022706,0.001655,0.015602,25.101822,367.887573,12.515100,,,,,,
1466451792.80,2.877653,-0.023542,-0.714560,-0.026275,1.145424,-0.021697,0.260814,0.023540,0.965102,-0.034358,0.001850,0.020402,24.708305,367.890808,13.185526,,,,,,
1466451792.81,2.890184,-0.023316,-0.714247,-0.031412,1.288779,-0.025794,0.248701,0.023314,0.968300,-0.034147,0.001619,0.029579,24.708305,367.890808,13.185526,,,,,,
1466451792.82,2.903651,-0.023090,-0.713919,-0.029207,1.349301,-0.026172,0.235640,0.023088,0.971566,0.004777,0.002684,0.013312,24.708305,367.890808,13.185526,,,,,,
1466451792.83,2.916376,-0.022898,-0.713592,-0.027176,1.268604,-0.026728,0.223259,0.022896,0.974490,0.043220,0.003807,-0.015140,23.699844,367.898071,14.742796,,,,,,
1466451792.84,2.927865,-0.022719,-0.713313,-0.023130,1.104014,-0.022499,0.212049,0.022717,0.976995,0.064333,0.004673,-0.029043,23.699844,367.898071,14.742796,,,,,,
1466451792.85,2.937904,-0.022536,-0.713078,-0.022234,0.974465,-0.018492,0.202232,0.022534,0.979078,0.068795,0.001941,-0.023924,23.699844,367.898071,14.742796,,,,,,
1466451792.87,2.953072,-0.022299,-0.712693,-0.014117,0.658034,-0.014370,0.187359,0.022297,0.982038,0.081241,0.002559,-0.035780,23.147232,367.902405,15.492851,,,,,,
1466451792.86,2.946684,-0.022390,-0.712860,-0.017081,0.838552,-0.017634,0.193629,0.022388,0.980819,0.077215,0.005246,-0.018265,23.147232,367.902405,15.492851,,,,,,
1466451792.88,2.958213,-0.022246,-0.712546,-0.005840,0.465844,-0.013157,0.182309,0.022244,0.982990,0.079883,0.003863,-0.031589,23.147232,367.902405,15.492851,,,,,,
1466451792.89,2.961610,-0.022233,-0.712461,-0.002862,0.302310,-0.006806,0.178968,0.022231,0.983604,0.066881,0.002030,-0.035621,22.420963,367.907623,16.409988,,,,,,
1466451792.90,2.963737,-0.022229,-0.712407,-0.000884,0.183384,-0.004994,0.176875,0.022227,0.983982,0.058385,0.005254,-0.024647,22.420963,367.907623,16.409988,,,,,,
1466451792.91,2.961730,-0.022429,-0.712437,0.003209,0.051699,-0.003099,0.178849,0.022428,0.983621,0.050338,0.002856,-0.029107,22.420963,367.907623,16.409988,,,,,,
1466451792.92,2.961323,-0.022478,-0.712431,0.006246,-0.071475,-0.001259,0.179249,0.022476,0.983547,0.041668,0.004806,-0.022289,22.281105,367.909851,16.548834,,,,,,
1466451792.93,2.958903,-0.022718,-0.712493,0.009357,-0.133076,0.002323,0.181628,0.022716,0.983105,0.021161,0.002736,-0.009503,22.281105,367.909851,16.548834,,,,,,
1466451792.94,2.957354,-0.022806,-0.712529,0.010384,-0.164928,0.001460,0.183151,0.022804,0.982820,0.019715,0.004784,-0.008303,22.281105,367.909851,16.548834,,,,,,
1466451792.95,2.954263,-0.022933,-0.712600,0.010302,-0.228645,0.002924,0.186187,0.022931,0.982247,0.015565,0.000033,-0.015816,22.391241,367.919159,16.189394,,,,,,
1466451792.97,2.948311,-0.023066,-0.712737,0.005912,-0.328461,0.006739,0.192029,0.023064,0.981118,0.012408,0.002891,-0.021340,22.391241,367.919159,16.189394,,,,,,
1466451792.96,2.951502,-0.023020,-0.712665,0.009158,-0.289173,0.005431,0.188898,0.023017,0.981727,0.014624,0.004754,-0.017158,22.391241,367.919159,16.189394,,,,,,
1466451792.98,2.944678,-0.023107,-0.712832,0.006911,-0.377310,0.009175,0.195592,0.023105,0.980413,0.010829,0.003400,-0.012853,22.520027,367.920837,15.971523,,,,,,
1466451792.99,2.939763,-0.023263,-0.712953,0.006834,-0.438898,0.009561,0.200408,0.023261,0.979436,0.007935,0.002175,-0.013082,22.520027,367.920837,15.971523,,,,,,
1466451793.00,2.935131,-0.023305,-0.713061,0.006797,-0.468629,0.009747,0.204942,0.023303,0.978497,0.002104,0.002789,-0.005505,22.520027,367.920837,15.971523,,,,,,
1466451793.01,2.930351,-0.023343,-0.713186,0.006782,-0.479250,0.010878,0.209617,0.023341,0.977505,-0.001167,0.001302,-0.001370,22.899263,367.918945,15.468231,,,,,,
1466451793.02,2.925507,-0.023408,-0.713306,0.009970,-0.485619,0.009857,0.214349,0.023406,0.976477,-0.008447,0.001619,0.001841,22.899263,367.918945,15.468231,,,,,,
1466451793.03,2.921095,-0.023532,-0.713409,0.009977,-0.480308,0.009823,0.218655,0.023529,0.975518,-0.013516,0.001007,0.004676,22.899263,367.918945,15.468231,,,,,,
1466451793.04,2.916420,-0.023613,-0.713527,0.011064,-0.462258,0.009711,0.223212,0.023611,0.974484,-0.017447,0.002543,0.004123,23.126888,367.916229,15.191080,,,,,,
1466451793.05,2.912023,-0.023706,-0.713641,0.011106,-0.430401,0.008447,0.227495,0.023703,0.973491,-0.020967,0.003808,0.005055,23.126888,367.916229,15.191080,,,,,,
1466451793.06,2.908608,-0.023857,-0.713724,0.007948,-0.403847,0.007213,0.230817,0.023854,0.972705,-0.019666,0.001994,0.002027,23.326267,367.916016,14.888763,,,,,,
1466451793.07,2.905477,-0.024079,-0.713798,0.006904,-0.385795,0.008162,0.233860,0.024077,0.971972,-0.021137,0.003893,0.005231,23.326267,367.916016,14.888763,,,,,,
1466451793.08,2.902885,-0.024099,-0.713854,0.006955,-0.348620,0.005800,0.236379,0.024096,0.971362,-0.027608,-0.001162,0.004712,23.326267,367.916016,14.888763,,,,,,
1466451793.09,2.901232,-0.024105,-0.713892,0.004917,-0.275347,0.005339,0.237983,0.024102,0.970970,-0.033394,-0.001016,0.015053,23.600269,367.919189,14.369724,,,,,,
1466451793.10,2.900619,-0.024112,-0.713898,0.002906,-0.184016,0.002635,0.238579,0.024109,0.970824,-0.037148,-0.000428,0.018419,23.600269,367.919189,14.369724,,,,,,
1466451793.12,2.902431,-0.024208,-0.713850,-0.000024,0.023059,-0.000796,0.236819,0.024205,0.971252,-0.036684,0.002025,0.015595,23.600269,367.919189,14.369724,,,,,,
1466451793.11,2.901041,-0.024135,-0.713885,0.001969,-0.082074,0.001994,0.238169,0.024133,0.970924,-0.038843,0.000067,0.014718,23.600269,367.919189,14.369724,,,,,,
1466451793.13,2.904684,-0.024230,-0.713798,-0.000969,0.117571,-0.002455,0.234630,0.024227,0.971783,-0.032436,0.001148,0.016209,23.595787,367.921387,14.320389,,,,,,
1466451793.14,2.907493,-0.024316,-0.713736,-0.001940,0.189783,-0.003973,0.231899,0.024314,0.972436,-0.027645,0.002816,0.010596,23.595787,367.921387,14.320389,,,,,,
1466451793.15,2.910358,-0.024337,-0.713669,-0.006142,0.235446,-0.004264,0.229112,0.024335,0.973096,-0.015367,0.001895,0.005099,23.472965,367.925751,14.410368,,,,,,
1466451793.16,2.912986,-0.024290,-0.713600,-0.008251,0.250316,-0.005424,0.226554,0.024288,0.973696,-0.002387,0.000493,-0.002718,23.472965,367.925751,14.410368,,,,,,
1466451793.17,2.915001,-0.024367,-0.713552,-0.005088,0.228009,-0.003152,0.224591,0.024365,0.974149,0.012149,0.004093,-0.006207,23.472965,367.925751,14.410368,,,,,,
1466451793.18,2.916232,-0.024431,-0.713520,-0.004076,0.182352,-0.004994,0.223391,0.024429,0.974423,0.022352,0.002976,-0.013852,23.346928,367.927856,14.559835,,,,,,
1466451793.19,2.916793,-0.024482,-0.713506,-0.004155,0.123940,-0.001435,0.222844,0.024480,0.974547,0.025599,0.002559,-0.014784,23.346928,367.927856,14.559835,,,,,,
1466451793.20,2.916549,-0.024519,-0.713500,-0.002109,0.055981,-0.002071,0.223082,0.024516,0.974491,0.030351,0.001302,-0.015141,23.346928,367.927856,14.559835,,,,,,
1466451793.21,2.915630,-0.024598,-0.713512,0.003131,-0.010921,-0.001646,0.223977,0.024595,0.974284,0.030204,0.001619,-0.014811,23.240330,367.934265,14.569077,,,,,,
1466451793.22,2.914178,-0.024659,-0.713531,0.003050,-0.074637,-0.000182,0.225391,0.024656,0.973956,0.026043,0.000933,-0.015109,23.240330,367.934265,14.569077,,,,,,
1466451793.23,2.912336,-0.024753,-0.713564,0.002981,-0.127734,0.001215,0.227184,0.024750,0.973537,0.020100,0.002289,-0.013775,23.240330,367.934265,14.569077,,,,,,
1466451793.24,2.910313,-0.024815,-0.713611,0.002932,-0.163844,0.003571,0.229153,0.024813,0.973074,0.012821,0.001295,-0.008978,23.274122,367.936371,14.461182,,,,,,
1466451793.25,2.908308,-0.024872,-0.713665,0.003971,-0.182961,0.004756,0.231103,0.024869,0.972611,0.004584,0.001056,-0.005158,23.274122,367.936371,14.461182,,,,,,
1466451793.26,2.906706,-0.024907,-0.713707,0.003993,-0.167030,0.003592,0.232660,0.024905,0.972239,-0.007425,0.000074,-0.002436,23.274122,367.936371,14.461182,,,,,,
1466451793.27,2.905660,-0.025010,-0.713737,0.001901,-0.137297,0.003403,0.233677,0.025007,0.971993,-0.016590,0.003038,0.002647,23.274122,367.936371,14.461182,,,,,,
1466451793.28,2.905235,-0.025025,-0.713743,-0.000158,-0.083137,0.001997,0.234090,0.025022,0.971893,-0.021474,0.000811,0.004578,23.423101,367.937775,14.182932,,,,,,
1466451793.29,2.905512,-0.024991,-0.713726,-0.001144,-0.021546,0.000545,0.233821,0.024989,0.971959,-0.023219,-0.000880,0.012844,23.423101,367.937775,14.182932,,,,,,
1466451793.30,2.906365,-0.024989,-0.713704,-0.002137,0.033675,-0.000867,0.232992,0.024986,0.972158,-0.023488,0.000664,0.011042,23.423101,367.937775,14.182932,,,,,,
1466451793.31,2.907625,-0.024944,-0.713674,-0.002072,0.085707,-0.001193,0.231767,0.024942,0.972452,-0.019334,-0.000787,0.006949,23.420029,367.939392,14.146036,,,,,,
1466451793.32,2.909146,-0.024997,-0.713639,-0.002028,0.118628,-0.002464,0.230287,0.024994,0.972802,-0.013902,0.003112,0.007270,23.420029,367.939392,14.146036,,,,,,
1466451793.33,2.910639,-0.024994,-0.713602,-0.002004,0.136682,-0.003642,0.228835,0.024991,0.973144,-0.004439,0.000232,0.003235,23.356800,367.940796,14.213638,,,,,,
1466451793.34,2.911901,-0.025074,-0.713571,0.001177,0.126062,-0.003573,0.227606,0.025071,0.973430,0.003290,0.002501,-0.000316,23.356800,367.940796,14.213638,,,,,,
1466451793.35,2.912712,-0.025192,-0.713537,0.003279,0.101641,-0.004482,0.226816,0.025190,0.973612,0.012183,0.003802,-0.003290,23.356800,367.940796,14.213638,,,,,,
1466451793.36,2.913038,-0.025152,-0.713525,0.002161,0.061288,-0.003165,0.226498,0.025150,0.973687,0.015674,-0.003772,-0.010827,23.286583,367.943604,14.256039,,,,,,
1466451793.37,2.912881,-0.025288,-0.713515,0.010633,0.026238,-0.001873,0.226651,0.025286,0.973648,0.021610,0.002180,-0.007126,23.286583,367.943604,14.256039,,,,,,
1466451793.38,2.912275,-0.025478,-0.713506,0.009495,-0.037463,-0.004668,0.227239,0.025475,0.973506,0.018366,0.003852,0.001638,23.286583,367.943604,14.256039,,,,,,
1466451793.39,2.911216,-0.025480,-0.713511,0.009459,-0.062955,-0.002379,0.228270,0.025477,0.973265,0.015795,-0.004649,-0.018263,23.224123,367.952576,14.125467,,,,,,
1466451793.40,2.910069,-0.025699,-0.713518,0.011548,-0.095873,-0.002170,0.229385,0.025697,0.972997,0.013291,0.004485,0.002055,23.224123,367.952576,14.125467,,,,,,
,,,,,,,,,,,,,,,,29.719959,-95.399082,9.675040,-1.000000,-1.000000,1466452121.07
1466451793.41,2.908760,-0.025769,-0.713530,0.011534,-0.106493,-0.002104,0.230658,0.025766,0.972694,0.003610,-0.001764,-0.023383,23.224123,367.952576,14.125467,,,,,,
1466451793.42,2.907823,-0.025899,-0.713557,0.011535,-0.102251,-0.000001,0.231569,0.025897,0.972474,-0.001619,0.000471,0.010375,23.240829,367.956543,13.993856,,,,,,
1466451793.43,2.906996,-0.026021,-0.713562,0.005171,-0.085255,-0.001179,0.232372,0.026018,0.972279,-0.009609,0.002409,-0.014942,23.240829,367.956543,13.993856,,,,,,
1466451793.44,2.906772,-0.026088,-0.713575,0.004156,-0.041725,0.000676,0.232589,0.026085,0.972225,-0.014129,0.000465,0.000034,23.240829,367.956543,13.993856,,,,,,
1466451793.45,2.906834,-0.026164,-0.713568,-0.003269,-0.018363,0.001586,0.232528,0.026161,0.972238,-0.017852,0.003975,-0.009576,23.274021,367.962799,13.773195,,,,,,
1466451793.46,2.907398,-0.026150,-0.713547,-0.003198,0.036856,0.000175,0.231980,0.026147,0.972369,-0.014955,0.001106,-0.002688,23.274021,367.962799,13.773195,,,,,,
1466451793.47,2.908153,-0.026093,-0.713529,-0.008505,0.051722,0.001141,0.231246,0.026090,0.972545,-0.011764,-0.000089,0.005482,23.274021,367.962799,13.773195,,,,,,
1466451793.48,2.909042,-0.026086,-0.713506,-0.005283,0.071899,-0.000047,0.230382,0.026083,0.972751,-0.009984,0.003062,-0.000583,23.250238,367.964478,13.768045,,,,,,
1466451793.49,2.909906,-0.025985,-0.713493,-0.009549,0.066593,-0.000018,0.229542,0.025982,0.972952,-0.006993,-0.000957,0.000559,23.250238,367.964478,13.768045,,,,,,
1466451793.50,2.910559,-0.025906,-0.713488,-0.013811,0.070831,0.004209,0.228907,0.025903,0.973104,-0.000514,0.002676,-0.015599,23.250238,367.964478,13.768045,,,,,,
1466451793.51,2.911006,-0.025840,-0.713496,-0.011701,0.051722,0.002202,0.228473,0.025837,0.973207,0.006116,0.002697,-0.004732,23.206059,367.961029,13.933619,,,,,,
1466451793.52,2.911154,-0.025686,-0.713499,-0.010662,0.030484,0.002336,0.228330,0.025683,0.973245,0.008853,-0.001971,-0.008356,23.206059,367.961029,13.933619,,,,,,
1466451793.53,2.911036,-0.025666,-0.713510,-0.007504,0.001813,0.002519,0.228444,0.025663,0.973219,0.011012,0.003298,0.000246,23.206059,367.961029,13.933619,,,,,,
1466451793.54,2.910579,-0.025490,-0.713533,-0.011800,-0.025796,0.003753,0.228890,0.025487,0.973119,0.008216,-0.003285,-0.016530,-102.346138,373.615814,-36.238033,,,,,,
1466451793.55,2.909987,-0.025425,-0.713563,-0.008638,-0.048103,0.006025,0.229466,0.025422,0.972985,0.006969,0.002013,-0.006050,-102.346138,373.615814,-36.238033,,,,,,
1466451793.56,2.909271,-0.025324,-0.713588,-0.011849,-0.061905,0.006108,0.230164,0.025322,0.972822,0.004349,0.001305,-0.006712,-102.346138,373.615814,-36.238033,,,,,,
1466451793.57,2.908579,-0.025249,-0.713623,-0.009720,-0.064027,0.005059,0.230837,0.025247,0.972665,0.000837,0.001365,-0.004708,-102.346138,373.615814,-36.238033,,,,,,
1466451793.58,2.908037,-0.025227,-0.713635,-0.007575,-0.055528,0.002879,0.231365,0.025224,0.972540,-0.002712,0.003646,0.002237,-102.350433,373.645142,-35.921715,,,,,,
1466451793.59,2.907773,-0.025097,-0.713646,-0.007546,-0.032167,0.002732,0.231622,0.025094,0.972482,-0.006753,-0.002435,0.000113,-102.350433,373.645142,-35.921715,,,,,,
1466451793.60,2.907788,-0.025089,-0.713634,-0.005387,-0.011987,0.000479,0.231607,0.025086,0.972486,-0.007639,0.002624,0.010226,-102.350433,373.645142,-35.921715,,,,,,
1466451793.61,2.908011,-0.025004,-0.713622,-0.004298,0.007126,0.000360,0.231392,0.025001,0.972539,-0.011116,-0.001930,-0.000570,-102.366447,373.663147,-35.688393,,,,,,
1466451793.62,2.908437,-0.024916,-0.713616,-0.003206,0.027304,-0.000830,0.230977,0.024913,0.972640,-0.008870,-0.002422,0.006715,-102.366447,373.663147,-35.688393,,,,,,
1466451793.63,2.908883,-0.024937,-0.713602,-0.001065,0.036859,-0.000888,0.230544,0.024935,0.972742,-0.003447,0.001661,0.004690,-102.335083,373.671570,-35.690285,,,,,,
1466451793.64,2.909310,-0.025010,-0.713585,0.000006,0.041106,-0.000913,0.230127,0.025007,0.972839,0.000509,0.004259,0.004044,-102.335083,373.671570,-35.690285,,,,,,
1466451793.65,2.909697,-0.024912,-0.713568,-0.003186,0.041111,-0.001981,0.229751,0.024909,0.972930,-0.000641,-0.004646,-0.008880,-102.335083,373.671570,-35.690285,,,,,,
1466451793.66,2.909980,-0.025040,-0.713554,-0.000007,0.032608,0.000204,0.229476,0.025037,0.972992,0.004258,0.007037,-0.003220,-102.322975,373.663330,-35.811119,,,,,,
1466451793.67,2.910005,-0.024974,-0.713547,-0.004289,0.012438,-0.000738,0.229451,0.024972,0.973000,0.005153,-0.001763,-0.010994,-102.322975,373.663330,-35.811119,,,,,,
1466451793.68,2.909866,-0.024936,-0.713557,-0.003248,-0.003496,0.001492,0.229587,0.024934,0.972969,0.005841,-0.000275,-0.007469,-102.322975,373.663330,-35.811119,,,,,,
1466451793.69,2.909550,-0.024926,-0.713556,-0.003270,-0.019415,0.000530,0.229894,0.024924,0.972896,0.005808,0.001596,-0.009914,-102.307068,373.665009,-35.838737,,,,,,
1466451793.70,2.909218,-0.024850,-0.713574,-0.003280,-0.026848,0.000577,0.230218,0.024847,0.972822,0.002356,-0.002798,-0.008359,-102.307068,373.665009,-35.838737,,,,,,
1466451793.71,2.908797,-0.024870,-0.713591,-0.000098,-0.035347,0.001698,0.230628,0.024868,0.972724,0.001138,-0.003231,-0.003990,-102.307068,373.665009,-35.838737,,,,,,
1466451793.72,2.908503,-0.024911,-0.713586,-0.000087,-0.030032,-0.000464,0.230913,0.024908,0.972656,-0.000734,0.002298,0.004105,-102.307068,373.665009,-35.838737,,,,,,
1466451793.74,2.908156,-0.024916,-0.713597,0.000994,-0.017290,-0.000543,0.231251,0.024914,0.972575,-0.006138,-0.002117,0.002599,-102.343201,373.669128,-35.692516,,,,,,
1466451793.73,2.908247,-0.024950,-0.713604,0.000972,-0.030041,0.002730,0.231162,0.024947,0.972596,-0.003134,0.001435,-0.003159,-102.343201,373.669128,-35.692516,,,,,,
1466451793.75,2.908173,-0.024987,-0.713595,-0.001121,-0.007729,-0.001670,0.231234,0.024984,0.972577,-0.006457,0.003535,-0.000989,-102.343201,373.669128,-35.692516,,,,,,
1466451793.76,2.908271,-0.024921,-0.713592,0.001020,0.005006,0.000381,0.231139,0.024918,0.972602,-0.004698,-0.003632,0.000299,-102.351784,373.669891,-35.660069,,,,,,
1466451793.77,2.908496,-0.024975,-0.713577,0.001038,0.015630,-0.001814,0.230919,0.024972,0.972652,-0.004296,0.002906,0.004353,-102.351784,373.669891,-35.660069,,,,,,
1466451793.78,2.908741,-0.025031,-0.713570,0.002104,0.016692,-0.001820,0.230680,0.025028,0.972708,-0.003813,0.001217,0.000956,-102.351784,373.669891,-35.660069,,,,,,
1466451793.79,2.908924,-0.025035,-0.713556,0.001041,0.017754,-0.001828,0.230503,0.025032,0.972750,-0.001041,-0.000939,-0.003633,-102.350800,373.660645,-35.759083,,,,,,
1466451793.80,2.909036,-0.025097,-0.713533,0.001043,0.017757,-0.002892,0.230393,0.025094,0.972774,0.003539,0.002189,-0.001369,-102.350800,373.660645,-35.759083,,,,,,
1466451793.81,2.909101,-0.025147,-0.713523,0.003161,0.010320,-0.001779,0.230330,0.025144,0.972788,0.001069,0.000841,-0.011331,-102.350800,373.660645,-35.759083,,,,,,
1466451793.82,2.909064,-0.025157,-0.713516,0.001022,0.002888,-0.001735,0.230366,0.025155,0.972779,0.002666,-0.000527,-0.004578,-102.359497,373.653412,-35.810001,,,,,,
1466451793.83,2.909004,-0.025160,-0.713513,0.001014,-0.002424,-0.000637,0.230425,0.025157,0.972765,0.002440,-0.000331,-0.004763,-102.359497,373.653412,-35.810001,,,,,,
1466451793.84,2.908852,-0.025223,-0.713513,0.002067,-0.011981,-0.000576,0.230572,0.025221,0.972728,0.001881,0.002215,-0.005871,-102.359497,373.653412,-35.810001,,,,,,
1466451793.85,2.908750,-0.025224,-0.713506,0.002069,-0.009858,-0.000589,0.230671,0.025222,0.972705,-0.001820,-0.001113,-0.007113,-102.384056,373.644257,-35.835491,,,,,,
1466451793.86,2.907106,-0.025171,-0.713595,-0.003258,0.000730,0.007855,0.232270,0.025169,0.972326,0.088302,-0.001701,-0.022024,-102.384056,373.644257,-35.835491,,,,,,
1466451793.87,2.905559,-0.025032,-0.713729,-0.013186,-0.259433,0.019057,0.233775,0.025030,0.971969,0.471380,-0.000707,-0.171294,-102.384056,373.644257,-35.835491,,,,,,
1466451793.88,2.892383,-0.024993,-0.714061,0.017791,-1.860677,0.039775,0.246561,0.024990,0.968805,1.049139,0.038700,-0.429453,-102.412262,373.654724,-35.645046,,,,,,
1466451793.89,2.847498,-0.025976,-0.715099,0.162354,-5.405124,0.089824,0.289776,0.025973,0.956742,0.800480,0.025464,-0.393601,-102.412262,373.654724,-35.645046,,,,,,
1466451793.90,2.778443,-0.027220,-0.716945,0.162279,-7.093511,0.144055,0.355089,0.027217,0.934436,0.304564,-0.014293,0.003842,-102.412262,373.654724,-35.645046,,,,,,
1466451793.91,2.713226,-0.027963,-0.718583,0.135706,-6.243993,0.116347,0.415223,0.027959,0.909290,-0.035630,-0.001546,0.327343,-105.239243,373.837921,-23.379810,,,,,,
1466451793.92,2.656866,-0.028676,-0.720228,0.128141,-5.480559,0.113681,0.465775,0.028672,0.884439,-0.143494,0.003860,0.261588,-105.239243,373.837921,-23.379810,,,,,,
1466451793.93,2.604289,-0.029026,-0.721749,0.101876,-5.185388,0.120319,0.511606,0.029022,0.858730,-0.071100,-0.024231,0.144764,-105.239243,373.837921,-23.379810,,,,,,
1466451793.94,2.553677,-0.029385,-0.723225,0.112730,-5.052612,0.099272,0.554388,0.029381,0.831739,0.054728,0.030647,0.146837,-106.464668,374.044891,-11.507229,,,,,,
1466451793.95,2.500216,-0.029536,-0.724638,0.077058,-5.473081,0.106132,0.598038,0.029532,0.800923,-0.543930,-0.021658,-0.010457,-106.464668,374.044891,-11.507229,,,,,,
1466451793.96,2.457206,-0.029298,-0.725835,0.050745,-3.506652,0.109739,0.631927,0.029294,0.774474,-1.584807,-0.071378,0.755814,-106.298058,374.266815,-1.331451,,,,,,
1466451793.97,2.463943,-0.028628,-0.725926,-0.083590,2.209247,0.020535,0.626707,0.028624,0.778729,-1.280210,0.013796,1.168949,-106.298058,374.266815,-1.331451,,,,,,
1466451793.98,2.518067,-0.027941,-0.724764,-0.124471,6.008589,-0.072523,0.583673,0.027938,0.811508,0.338690,0.056733,0.136139,-106.298058,374.266815,-1.331451,,,,,,
1466451793.99,2.556065,-0.027703,-0.723617,-0.075682,2.437762,-0.064982,0.552427,0.027700,0.833101,0.991595,0.015055,-0.841478,-106.298058,374.266815,-1.331451,,,,,,
1466451794.00,2.538731,-0.027666,-0.723575,0.030595,-2.745068,0.010207,0.566785,0.027662,0.823401,0.633014,0.031802,-0.695746,-105.495270,374.487549,2.551880,,,,,,
1466451794.01,2.510919,-0.028074,-0.724143,0.049096,-2.400035,0.024028,0.589456,0.028071,0.807312,-0.162302,-0.019572,0.288269,-105.495270,374.487549,2.551880,,,,,,
1466451794.02,2.505464,-0.027912,-0.723912,-0.035110,0.026309,-0.021077,0.593854,0.027908,0.804088,-0.231031,0.011230,0.381703,-105.495270,374.487549,2.551880,,,,,,
1466451794.04,2.504551,-0.028146,-0.723725,0.005053,-1.026017,0.006851,0.594585,0.028143,0.803540,0.290730,-0.009512,-0.262342,-105.704506,374.415039,4.081989,,,,,,
1466451794.03,2.510676,-0.028099,-0.723723,0.011210,0.452071,-0.024766,0.589652,0.028095,0.807168,0.107674,0.000103,-0.085184,-105.704506,374.415039,4.081989,,,,,,
1466451794.05,2.485783,-0.028344,-0.724228,0.060159,-2.049678,0.033551,0.609556,0.028340,0.792236,0.184175,-0.000080,-0.123291,-105.704506,374.415039,4.081989,,,,,,
1466451794.06,2.465602,-0.028525,-0.724902,0.049625,-1.942460,0.043512,0.625416,0.028521,0.779770,0.028072,-0.007586,0.060577,-105.809166,374.384674,4.150234,,,,,,
1466451794.07,2.448352,-0.028657,-0.725589,0.060598,-1.678085,0.045059,0.638770,0.028653,0.768864,0.044823,0.004215,0.051998,-105.809166,374.384674,4.150234,,,,,,
1466451794.08,2.429759,-0.028881,-0.726355,0.066637,-1.961581,0.043649,0.652951,0.028877,0.756850,0.138263,0.010170,-0.074873,-105.312500,374.464813,7.877342,,,,,,
1466451794.09,2.406005,-0.029051,-0.727201,0.070211,-2.495691,0.054454,0.670740,0.029047,0.741123,0.131552,-0.003123,-0.082630,-105.312500,374.464813,7.877342,,,,,,
1466451794.10,2.379120,-0.029262,-0.728128,0.079517,-2.719730,0.053739,0.690416,0.029258,0.722821,0.083281,0.004785,0.001285,-105.312500,374.464813,7.877342,,,,,,
1466451794.11,2.351812,-0.029426,-0.729021,0.074196,-2.722904,0.050560,0.709892,0.029422,0.703696,0.019402,0.006604,0.036309,-103.557358,374.699554,15.900600,,,,,,
1466451794.12,2.325445,-0.029746,-0.729932,0.095656,-2.608209,0.039218,0.728190,0.029742,0.684730,-0.145854,0.006925,0.144265,-103.557358,374.699554,15.900600,,,,,,
1466451794.13,2.303903,-0.030004,-0.730670,0.050740,-1.931792,0.025351,0.742765,0.030000,0.668880,-0.294767,-0.017778,0.182271,-103.557358,374.699554,15.900600,,,,,,
1466451794.14,2.292440,-0.030034,-0.730689,0.000941,-0.943135,-0.014962,0.750382,0.030029,0.660322,-0.185456,0.034912,0.232318,-103.557358,374.699554,15.900600,,,,,,
1466451794.15,2.285594,-0.030169,-0.730989,0.026839,-0.608782,0.020223,0.754883,0.030165,0.655166,-0.328644,-0.061812,0.146912,-101.377266,374.871674,23.887115,,,,,,
1466451794.16,2.285076,-0.030221,-0.730816,-0.009349,0.201477,-0.015764,0.755220,0.030217,0.654774,-0.364077,0.002712,0.246151,-101.377266,374.871674,23.887115,,,,,,
1466451794.17,2.302636,-0.030757,-0.730313,-0.036644,1.339817,-0.034641,0.743595,0.030752,0.667923,-0.400775,0.028880,0.196380,-101.220627,374.871124,24.550461,,,,,,
1466451794.18,2.324169,-0.030749,-0.729700,-0.047034,2.412211,-0.029668,0.729041,0.030744,0.683779,-0.421118,-0.059705,0.176511,-101.220627,374.871124,24.550461,,,,,,
1466451794.19,2.355751,-0.030754,-0.728705,-0.073406,3.388141,-0.079458,0.707086,0.030749,0.706459,-0.331292,0.036024,0.227211,-101.220627,374.871124,24.550461,,,,,,
1466451794.20,2.395553,-0.030601,-0.727561,-0.103321,4.162199,-0.080084,0.678418,0.030596,0.734039,-0.309888,-0.005862,0.173753,-102.532242,374.744354,20.748825,,,,,,
1466451794.21,2.443658,-0.030436,-0.726162,-0.101176,5.019083,-0.088650,0.642339,0.030431,0.765816,-0.273137,-0.033223,0.235527,-102.532242,374.744354,20.748825,,,,,,
1466451794.22,2.499748,-0.030143,-0.724440,-0.134232,5.770955,-0.129589,0.598402,0.030139,0.800629,-0.177336,0.043149,0.246628,-102.532242,374.744354,20.748825,,,,,,
1466451794.23,2.561736,-0.029716,-0.722728,-0.142082,6.328362,-0.117126,0.547662,0.029711,0.836172,-0.144159,-0.023882,0.230860,-106.021416,374.327362,3.897194,,,,,,
1466451794.24,2.629207,-0.029178,-0.720736,-0.145624,6.873115,-0.137578,0.490050,0.029173,0.871206,-0.078184,0.000093,0.275339,-106.021416,374.327362,3.897194,,,,,,
1466451794.25,2.701292,-0.028318,-0.718709,-0.177004,7.304252,-0.150957,0.426041,0.028314,0.904261,0.008590,0.028693,0.270483,-106.021416,374.327362,3.897194,,,,,,
1466451794.26,2.776161,-0.027463,-0.716737,-0.152261,7.521883,-0.142718,0.357218,0.027460,0.933617,0.067877,-0.022684,0.248374,-106.668602,374.059845,-8.816711,,,,,,
1466451794.28,2.922538,-0.024173,-0.713711,-0.271891,6.473764,-0.071332,0.217243,0.024170,0.975818,1.891262,-0.027588,-0.341358,-106.668602,374.059845,-8.816711,,,,,,
1466451794.27,2.852184,-0.026297,-0.714850,-0.171334,7.622716,-0.126338,0.285287,0.026294,0.958081,0.244040,-0.002109,0.231067,-106.668602,374.059845,-8.816711,,,,,,
1466451794.29,2.929812,-0.024404,-0.712855,0.159735,-1.711853,-0.033402,0.210139,0.024402,0.977367,2.466375,0.179700,-1.358226,-106.668602,374.059845,-8.816711,,,,,,
1466451794.30,2.861780,-0.026156,-0.714647,0.154040,-7.741131,0.136397,0.276081,0.026153,0.960779,1.440518,-0.015563,-0.869165,-101.726349,373.723572,-36.866577,,,,,,
1466451794.31,2.783802,-0.027425,-0.716397,0.210533,-7.671115,0.148788,0.350074,0.027421,0.936321,0.736474,-0.052995,0.107869,-101.726349,373.723572,-36.866577,,,,,,
1466451794.32,2.708164,-0.028502,-0.718343,0.153223,-7.574375,0.116190,0.419815,0.028498,0.907162,0.207703,0.085058,0.170841,-103.645035,373.692902,-31.433002,,,,,,
1466451794.33,2.631574,-0.029308,-0.720399,0.161564,-7.659420,0.151859,0.487983,0.029304,0.872361,-0.051109,-0.089164,0.093124,-103.645035,373.692902,-31.433002,,,,,,
1466451794.34,2.561050,-0.029384,-0.721876,0.068284,-6.478648,0.144361,0.548241,0.029380,0.835804,-1.567986,-0.060386,0.365322,-103.645035,373.692902,-31.433002,,,,,,
1466451794.35,2.543303,-0.027572,-0.722448,-0.194757,0.337086,0.141801,0.563016,0.027568,0.825986,-3.024930,-0.160823,1.457583,-103.645035,373.692902,-31.433002,,,,,,
1466451794.36,2.621819,-0.024466,-0.721208,-0.347445,10.042282,-0.006503,0.496535,0.024463,0.867672,-0.642104,0.037350,1.530049,-106.707390,374.148193,-1.833660,,,,,,
1466451794.37,2.714701,-0.022870,-0.718422,-0.240479,7.582558,-0.182571,0.413935,0.022868,0.910019,1.501043,0.179250,-0.824067,-106.707390,374.148193,-1.833660,,,,,,
1466451794.38,2.719777,-0.021700,-0.717231,-0.091048,-1.335820,-0.046655,0.409321,0.021698,0.912132,0.847088,0.041824,-1.122750,-105.701736,374.380096,-6.587166,,,,,,
1466451794.39,2.700403,-0.023179,-0.717299,0.157934,-1.462307,-0.042420,0.426901,0.023177,0.904001,-0.081503,0.066911,0.302465,-105.701736,374.380096,-6.587166,,,,,,
1466451794.40,2.718202,-0.022550,-0.716367,-0.160288,2.867919,-0.082669,0.410750,0.022548,0.911469,-0.396437,-0.045115,0.609420,-105.701736,374.380096,-6.587166,,,,,,
1466451794.41,2.757154,-0.022329,-0.715481,-0.019729,3.777730,-0.057365,0.374945,0.022327,0.926778,0.208841,-0.036609,-0.073095,-105.935440,374.058441,-15.318855,,,,,,
1466451794.42,2.773163,-0.021543,-0.714931,-0.118383,0.719707,-0.009545,0.360067,0.021541,0.932678,0.693537,-0.010402,-0.669708,-105.935440,374.058441,-15.318855,,,,,,
1466451794.43,2.760180,-0.021265,-0.715270,0.029611,-1.746020,0.059289,0.372148,0.021263,0.927930,0.499831,0.000389,-0.468854,-105.935440,374.058441,-15.318855,,,,,,
1466451794.44,2.743667,-0.021016,-0.715985,-0.024341,-1.442361,0.073298,0.387421,0.021014,0.921663,0.086883,-0.011188,0.006773,-105.299927,373.986145,-20.567169,,,,,,
1466451794.45,2.736230,-0.020712,-0.716467,0.017240,-0.573783,0.051925,0.394268,0.020711,0.918762,-0.004406,0.028804,0.170242,-105.299927,373.986145,-20.567169,,,,,,
1466451794.46,2.729646,-0.021027,-0.717030,0.047908,-0.771241,0.034034,0.400306,0.021026,0.916140,0.117715,0.024156,-0.038974,-105.299927,373.986145,-20.567169,,,,,,
1466451794.47,2.716888,-0.021348,-0.717487,0.054558,-1.428471,0.027518,0.411958,0.021346,0.910953,0.174041,-0.001067,-0.166416,-105.297707,374.205292,-16.109024,,,,,,
1466451794.49,2.687471,-0.021977,-0.718358,0.016432,-1.260696,0.029621,0.438567,0.021976,0.898430,-0.030501,-0.028690,-0.042488,-105.297707,374.205292,-16.109024,,,,,,
1466451794.48,2.701045,-0.021856,-0.717977,0.065022,-1.581365,0.024229,0.426333,0.021854,0.904302,0.080655,-0.003513,-0.115392,-105.297707,374.205292,-16.109024,,,,,,
1466451794.50,2.677239,-0.021874,-0.718669,0.002948,-0.963405,0.035194,0.447738,0.021872,0.893897,-0.042998,-0.020606,-0.052955,-105.526962,374.243011,-13.524826,,,,,,
1466451794.51,2.668325,-0.021568,-0.718927,-0.021432,-0.873146,0.036733,0.455691,0.021567,0.889877,-0.046588,-0.006827,-0.062606,-105.526962,374.243011,-13.524826,,,,,,
1466451794.52,2.661403,-0.021167,-0.719138,-0.028545,-0.602382,0.035028,0.461844,0.021165,0.886709,-0.098867,-0.011369,-0.006323,-105.526962,374.243011,-13.524826,,,,,,
1466451794.53,2.658794,-0.020735,-0.719115,-0.039647,-0.147869,0.011941,0.464160,0.020734,0.885509,-0.089496,0.017612,0.019811,-105.475281,374.386230,-9.306667,,,,,,
1466451794.54,2.660383,-0.020362,-0.718925,-0.045505,0.254592,-0.003362,0.462756,0.020361,0.886252,-0.100146,0.005320,0.027322,-105.475281,374.386230,-9.306667,,,,,,
1466451794.55,2.665184,-0.019835,-0.718531,-0.070689,0.539185,-0.011559,0.458501,0.019833,0.888473,-0.034200,-0.011899,-0.049026,-105.475281,374.386230,-9.306667,,,,,,
1466451794.56,2.671255,-0.019145,-0.718049,-0.084447,0.606086,-0.011992,0.453104,0.019144,0.891252,0.041204,-0.019311,-0.113923,-105.416077,374.412933,-8.894547,,,,,,
1466451794.57,2.676747,-0.018397,-0.717594,-0.087755,0.525373,-0.005102,0.448209,0.018396,0.893739,0.055636,-0.007776,-0.091539,-105.416077,374.412933,-8.894547,,,,,,
1466451794.58,2.681812,-0.017560,-0.717187,-0.095247,0.504123,0.001410,0.443683,0.017559,0.896012,0.075818,-0.007534,-0.077744,-105.416077,374.412933,-8.894547,,,,,,
1466451794.59,2.686260,-0.016744,-0.716829,-0.084729,0.406423,0.005227,0.439699,0.016743,0.897989,0.128142,0.005077,-0.089762,-105.319008,374.414490,-9.918934,,,,,,
1466451794.60,2.683268,-0.016296,-0.716702,-0.063738,0.169587,0.010991,0.442387,0.016296,0.896676,0.125911,0.005936,-0.070809,-105.319008,374.414490,-9.918934,,,,,,
1466451794.61,2.683532,-0.015814,-0.716597,-0.041609,-0.016237,0.011114,0.442154,0.015813,0.896800,0.138687,0.015529,-0.048808,-105.319008,374.414490,-9.918934,,,,,,
1466451794.62,2.682075,-0.015603,-0.716573,-0.015202,-0.194615,0.005872,0.443462,0.015603,0.896157,0.165516,0.016899,-0.062493,-105.257919,374.440857,-9.567013,,,,,,
1466451794.63,2.671481,-0.015792,-0.716719,0.001525,-0.444186,0.006390,0.452929,0.015791,0.891407,0.162107,0.006395,-0.081195,-105.257919,374.440857,-9.567013,,,,,,
1466451794.64,2.665465,-0.015834,-0.716830,0.010860,-0.641686,0.007638,0.458284,0.015833,0.888665,0.137587,0.003057,-0.078622,-105.257919,374.440857,-9.567013,,,,,,
1466451794.65,2.658460,-0.015904,-0.716986,0.011833,-0.709651,0.011259,0.464497,0.015903,0.885432,0.108211,0.001935,-0.062831,-105.289833,374.477783,-7.559616,,,,,,
1466451794.66,2.651318,-0.015988,-0.717092,0.012907,-0.713878,0.003835,0.470808,0.015987,0.882091,0.089800,0.007817,-0.045512,-105.289833,374.477783,-7.559616,,,,,,
1466451794.67,2.642195,-0.016241,-0.717210,0.013975,-0.716008,0.001721,0.478834,0.016240,0.877755,0.073778,0.006160,-0.051416,-105.289833,374.477783,-7.559616,,,,,,
1466451794.68,2.635442,-0.016292,-0.717243,0.003411,-0.651230,0.000239,0.484750,0.016291,0.874501,0.038184,-0.003001,-0.036076,-105.326614,374.492950,-6.167034,,,,,,
1466451794.69,2.630129,-0.016204,-0.717200,-0.014491,-0.488756,-0.000795,0.489390,0.016203,0.871915,0.027654,-0.010497,-0.026578,-105.326614,374.492950,-6.167034,,,,,,
1466451794.70,2.626071,-0.015998,-0.717056,-0.028203,-0.387875,-0.002505,0.492925,0.015997,0.869924,0.047968,-0.009497,-0.034613,-105.326614,374.492950,-6.167034,,,,,,
1466451794.71,2.620319,-0.015432,-0.716890,-0.035597,-0.343282,-0.004920,0.497926,0.015431,0.867082,0.046523,-0.007756,-0.029344,-105.462349,374.489166,-3.502789,,,,,,
1466451794.72,2.617389,-0.015080,-0.716608,-0.046158,-0.277439,-0.007473,0.500467,0.015079,0.865624,0.063712,-0.005207,-0.034783,-105.462349,374.489166,-3.502789,,,,,,
1466451794.73,2.614815,-0.014657,-0.716311,-0.052527,-0.255150,-0.003361,0.502697,0.014656,0.864339,0.064213,-0.005882,-0.024983,-105.462349,374.489166,-3.502789,,,,,,
1466451794.74,2.612474,-0.014196,-0.715996,-0.054615,-0.224353,-0.004621,0.504722,0.014195,0.863165,0.056649,0.001170,-0.001639,-105.462006,374.499146,-2.204632,,,,,,
1466451794.75,2.607877,-0.013646,-0.715729,-0.054580,-0.195700,-0.004800,0.508688,0.013645,0.860843,0.079904,-0.002018,-0.004870,-105.462006,374.499146,-2.204632,,,,,,
1466451794.76,2.605403,-0.013194,-0.715409,-0.053614,-0.276394,-0.005357,0.510819,0.013193,0.859587,0.111358,-0.002237,-0.014754,-105.462006,374.499146,-2.204632,,,,,,
1466451794.77,2.601841,-0.012894,-0.715143,-0.033505,-0.379387,-0.008949,0.513881,0.012894,0.857765,0.112981,0.011520,0.003365,-105.505905,374.493256,-0.102139,,,,,,
1466451794.79,2.590734,-0.012871,-0.714751,-0.017652,-0.480270,-0.011494,0.523376,0.012871,0.852005,0.102418,0.010017,0.019089,-105.505905,374.493256,-0.102139,,,,,,
1466451794.78,2.597603,-0.012728,-0.714923,-0.023986,-0.433538,-0.010729,0.517512,0.012728,0.855581,0.100332,0.013991,0.025614,-105.505905,374.493256,-0.102139,,,,,,
1466451794.80,2.585178,-0.012760,-0.714583,-0.018854,-0.584335,-0.007649,0.528102,0.012759,0.849085,0.111638,-0.002185,-0.008891,-105.568863,374.474274,0.964890,,,,,,
1466451794.81,2.578597,-0.012651,-0.714450,-0.013652,-0.677782,-0.004929,0.533679,0.012651,0.845593,0.095227,0.005599,0.013691,-105.568863,374.474274,0.964890,,,,,,
1466451794.82,2.571963,-0.012557,-0.714343,-0.014683,-0.649116,-0.004046,0.539278,0.012557,0.842034,0.062605,0.001527,0.044517,-105.568863,374.474274,0.964890,,,,,,
1466451794.83,2.565468,-0.012464,-0.714183,-0.015698,-0.620431,-0.010613,0.544736,0.012463,0.838515,0.090121,-0.000119,0.035692,-105.657951,374.430695,3.842781,,,,,,
1466451794.84,2.558675,-0.012465,-0.714010,-0.008339,-0.702182,-0.014351,0.550419,0.012464,0.834795,0.089961,0.001513,0.032758,-105.657951,374.430695,3.842781,,,,,,
1466451794.85,2.551649,-0.012503,-0.713831,-0.006186,-0.688371,-0.017629,0.556271,0.012502,0.830907,0.050739,0.003458,0.063823,-105.657951,374.430695,3.842781,,,,,,
1466451794.86,2.545650,-0.012469,-0.713602,-0.017747,-0.569440,-0.019451,0.561246,0.012469,0.827555,0.048038,-0.004717,0.065831,-105.682404,374.405334,5.344410,,,,,,
1466451794.87,2.539639,-0.012326,-0.713320,-0.020949,-0.576870,-0.020471,0.566211,0.012325,0.824168,0.067395,-0.006863,0.043462,-105.682404,374.405334,5.344410,,,,,,
1466451794.88,2.533204,-0.012312,-0.713052,-0.017822,-0.631025,-0.020129,0.571503,0.012312,0.820508,0.053665,0.002825,0.057620,-105.682404,374.405334,5.344410,,,,,,
1466451794.89,2.527329,-0.012292,-0.712765,-0.018805,-0.569434,-0.022645,0.576313,0.012291,0.817136,0.042400,0.003273,0.078921,-105.773552,374.326019,8.287182,,,,,,
1466451794.90,2.521852,-0.012342,-0.712446,-0.014497,-0.541809,-0.030265,0.580780,0.012342,0.813967,0.063843,0.003085,0.083005,-105.773552,374.326019,8.287182,,,,,,
1466451794.91,2.515658,-0.012507,-0.712136,-0.008196,-0.615072,-0.031928,0.585809,0.012507,0.810352,0.065253,0.005605,0.069317,-105.773552,374.326019,8.287182,,,,,,
1466451794.92,2.509164,-0.012653,-0.711834,-0.006113,-0.652237,-0.031693,0.591058,0.012653,0.806530,0.052161,0.002774,0.080860,-105.863731,374.268890,9.610706,,,,,,
1466451794.93,2.502981,-0.012827,-0.711531,-0.002861,-0.612940,-0.036194,0.596032,0.012827,0.802858,0.050284,-0.000375,0.094267,-105.863731,374.268890,9.610706,,,,,,
1466451794.94,2.496510,-0.013177,-0.711245,0.008804,-0.659650,-0.041212,0.601213,0.013176,0.798981,0.066665,0.010170,0.085037,-105.986908,374.195892,10.995728,,,,,,
1466451794.95,2.489241,-0.013542,-0.710974,0.011894,-0.744593,-0.041741,0.607001,0.013542,0.794586,0.059213,0.007012,0.079941,-105.986908,374.195892,10.995728,,,,,,
1466451794.96,2.481690,-0.013898,-0.710749,0.015068,-0.757342,-0.039529,0.612981,0.013898,0.789976,0.043819,0.000827,0.085436,-105.986908,374.195892,10.995728,,,,,,
1466451794.97,2.473887,-0.014257,-0.710550,0.016083,-0.793450,-0.037172,0.619123,0.014256,0.785164,0.055346,0.000102,0.081077,-106.250893,374.028625,13.785305,,,,,,
1466451794.98,2.465332,-0.014625,-0.710387,0.019170,-0.874157,-0.033470,0.625814,0.014625,0.779835,0.042780,-0.000358,0.079433,-106.250893,374.028625,13.785305,,,,,,
1466451794.99,2.456712,-0.014927,-0.710268,0.013867,-0.845507,-0.026204,0.632510,0.014926,0.774408,0.000577,-0.007328,0.091543,-106.250893,374.028625,13.785305,,,,,,
1466451795.00,2.449220,-0.015126,-0.710096,0.003366,-0.725523,-0.024838,0.638292,0.015126,0.769646,-0.008135,-0.006962,0.110725,-106.250893,374.028625,13.785305,,,,,,
1466451795.01,2.442288,-0.015184,-0.709891,-0.010463,-0.708539,-0.020700,0.643612,0.015184,0.765202,0.007069,-0.018953,0.101528,-106.228287,373.901337,17.030792,,,,,,
1466451795.02,2.435278,-0.015231,-0.709666,-0.007272,-0.714904,-0.022786,0.648959,0.015231,0.760671,0.009076,-0.004016,0.087840,-106.228287,373.901337,17.030792,,,,,,
1466451795.03,2.427866,-0.015448,-0.709441,0.002277,-0.756293,-0.032097,0.654578,0.015447,0.755837,0.055170,0.012416,0.098991,-106.228287,373.901337,17.030792,,,,,,
1466451795.04,2.419897,-0.015722,-0.709152,0.001155,-0.817851,-0.041292,0.660577,0.015722,0.750594,0.060828,-0.000005,0.092836,-106.228287,373.901337,17.030792,,,,,,
1466451795.05,2.411401,-0.016009,-0.708950,0.007480,-0.852920,-0.031486,0.666927,0.016009,0.744951,0.007969,0.003965,0.089399,-106.094986,373.781067,20.205173,,,,,,
1466451795.06,2.402916,-0.016257,-0.708756,0.007474,-0.856108,-0.030401,0.673221,0.016256,0.739263,0.009198,0.000239,0.116527,-106.094986,373.781067,20.205173,,,,,,
1466451795.07,2.393760,-0.016583,-0.708691,0.020133,-0.945314,-0.026636,0.679958,0.016582,0.733064,0.020024,0.001728,0.096373,-105.980453,373.714813,21.956593,,,,,,
1466451795.08,2.383105,-0.016949,-0.708686,0.029511,-1.106716,-0.024550,0.687726,0.016948,0.725773,0.044925,0.010182,0.088787,-105.980453,373.714813,21.956593,,,,,,
1466451795.09,2.371048,-0.017398,-0.708712,0.034689,-1.236235,-0.032248,0.696421,0.017397,0.717423,0.036565,-0.004534,0.081680,-105.980453,373.714813,21.956593,,,,,,
1466451795.10,2.357966,-0.017883,-0.708735,0.035652,-1.321174,-0.033843,0.705740,0.017882,0.708245,-0.033499,-0.000396,0.117530,-105.721489,373.670044,23.881943,,,,,,
1466451795.11,2.344900,-0.018380,-0.708755,0.037795,-1.306315,-0.031805,0.714927,0.018379,0.698957,-0.128242,-0.003563,0.154513,-105.721489,373.670044,23.881943,,,,,,
1466451795.12,2.332846,-0.018905,-0.708886,0.047543,-1.160876,-0.024192,0.723293,0.018904,0.690282,-0.197369,0.010484,0.189662,-105.721489,373.670044,23.881943,,,,,,
1466451795.13,2.323045,-0.019271,-0.708927,0.021215,-0.936811,-0.029881,0.730019,0.019270,0.683155,-0.118431,-0.017210,0.135418,-104.865509,373.579620,28.603962,,,,,,
1466451795.14,2.311767,-0.019638,-0.709011,0.032549,-1.222468,-0.018499,0.737672,0.019637,0.674874,0.044753,-0.007719,0.067039,-104.865509,373.579620,28.603962,,,,,,
1466451795.15,2.297171,-0.020148,-0.709139,0.041763,-1.527192,-0.022965,0.747435,0.020147,0.664029,-0.015410,0.018778,0.032397,-104.409828,373.550018,30.588577,,,,,,
1466451795.16,2.284162,-0.020390,-0.709230,0.016672,-1.127994,-0.006334,0.756007,0.020389,0.654246,-0.352046,-0.018817,0.181005,-104.409828,373.550018,30.588577,,,,,,
1466451795.17,2.279789,-0.020653,-0.709201,0.014588,-0.261530,-0.023479,0.758856,0.020652,0.650931,-0.319327,0.007562,0.266504,-104.409828,373.550018,30.588577,,,,,,
1466451795.18,2.276572,-0.020713,-0.708997,-0.017578,-0.428237,-0.015014,0.760945,0.020712,0.648485,-0.110143,-0.028326,0.107496,-104.409828,373.550018,30.588577,,,,,,
1466451795.19,2.268567,-0.020731,-0.708961,0.005249,-0.886977,-0.001470,0.766112,0.020729,0.642373,-0.050124,-0.013970,-0.001656,-103.578018,373.487854,33.987091,,,,,,
1466451795.20,2.260618,-0.020747,-0.708990,-0.000928,-0.717088,-0.001477,0.771193,0.020745,0.636263,-0.070220,0.005027,0.055387,-103.578018,373.487854,33.987091,,,,,,
1466451795.21,2.255893,-0.020702,-0.708778,-0.022891,-0.417620,-0.014022,0.774192,0.020700,0.632613,-0.054190,-0.014673,0.102800,-103.578018,373.487854,33.987091,,,,,,
1466451795.22,2.252646,-0.020962,-0.708614,0.002586,-0.484510,-0.016771,0.776238,0.020960,0.630092,0.010597,0.006460,0.068837,-103.033829,373.485321,35.629059,,,,,,
1466451795.23,2.247451,-0.021108,-0.708522,-0.001698,-0.509982,-0.019809,0.779498,0.021106,0.626049,0.071164,0.008267,0.023655,-103.033829,373.485321,35.629059,,,,,,
1466451795.24,2.242282,-0.021304,-0.708289,-0.005985,-0.547117,-0.029160,0.782721,0.021302,0.622008,0.199884,-0.006120,0.006806,-103.033829,373.485321,35.629059,,,,,,
1466451795.25,2.236503,-0.021524,-0.708187,0.011013,-0.562017,-0.019470,0.786298,0.021523,0.617472,0.174929,0.003853,-0.003855,-102.688400,373.388275,37.589310,,,,,,
1466451795.26,2.234154,-0.021621,-0.707926,-0.028855,-0.124475,-0.043543,0.787745,0.021619,0.615622,0.302831,-0.009397,-0.010611,-102.688400,373.388275,37.589310,,,,,,
1466451795.27,2.224419,-0.022044,-0.707179,-0.024090,-1.447434,-0.053336,0.793693,0.022042,0.607919,0.699150,-0.008233,-0.106073,-102.688400,373.388275,37.589310,,,,,,
1466451795.28,2.210133,-0.022191,-0.707345,0.038100,-1.034539,-0.014350,0.802294,0.022189,0.596516,-0.111620,0.093396,0.436366,-102.555908,373.336334,38.457550,,,,,,
1466451795.29,2.214507,-0.022823,-0.707095,-0.010695,0.734579,-0.072330,0.799666,0.022821,0.600011,0.091798,-0.106362,0.047587,-102.555908,373.336334,38.457550,,,,,,
1466451795.30,2.216543,-0.022893,-0.706199,-0.056539,-0.134003,-0.048833,0.798441,0.022891,0.601637,0.074300,0.091077,-0.050597,-102.555908,373.336334,38.457550,,,,,,
1466451795.31,2.207583,-0.022336,-0.706628,0.089223,-1.022875,-0.017562,0.803810,0.022335,0.594467,0.036934,-0.034282,0.033448,-102.628120,373.101471,40.490234,,,,,,
1466451795.32,2.200503,-0.022550,-0.706335,-0.031536,-0.559813,-0.040811,0.807995,0.022548,0.588758,0.039936,0.016865,0.162280,-102.628120,373.101471,40.490234,,,,,,
1466451795.33,2.196363,-0.023125,-0.706373,0.060196,-0.433496,-0.044705,0.810415,0.023123,0.585400,0.010783,0.007669,0.057895,-102.628120,373.101471,40.490234,,,,,,
1466451795.34,2.189912,-0.023675,-0.706440,0.026835,-0.714860,-0.041910,0.814164,0.023673,0.580153,0.084945,0.008279,0.050676,-101.832474,373.133942,42.165062,,,,,,
1466451795.35,2.181271,-0.024258,-0.706629,0.059596,-0.901768,-0.035382,0.819135,0.024255,0.573087,0.061953,-0.000299,0.050432,-101.832474,373.133942,42.165062,,,,,,
1466451795.36,2.171629,-0.024840,-0.706925,0.053098,-0.981415,-0.029567,0.824611,0.024838,0.565155,0.037541,0.006946,0.077057,-101.832474,373.133942,42.165062,,,,,,
1466451795.37,2.161517,-0.025394,-0.707275,0.063698,-1.015403,-0.027214,0.830272,0.025391,0.556780,0.064366,0.001327,0.078260,-101.153671,373.056824,44.421349,,,,,,
1466451795.38,2.150618,-0.026013,-0.707686,0.067831,-1.122636,-0.030796,0.836277,0.026010,0.547689,0.090618,-0.002252,0.065653,-101.153671,373.056824,44.421349,,,,,,
1466451795.39,2.138151,-0.026591,-0.708106,0.065498,-1.274490,-0.023459,0.843027,0.026588,0.537213,0.071752,-0.013541,0.071231,-101.153671,373.056824,44.421349,,,,,,
1466451795.40,2.125382,-0.027227,-0.708518,0.075099,-1.275530,-0.033023,0.849803,0.027223,0.526396,0.025212,0.012648,0.118165,-100.409363,373.059418,46.057953,,,,,,
1466451795.41,2.112953,-0.027894,-0.709031,0.074107,-1.217130,-0.033390,0.856264,0.027891,0.515784,-0.009173,-0.034131,0.089639,-100.409363,373.059418,46.057953,,,,,,
1466451795.42,2.102496,-0.028450,-0.709175,0.033946,-0.987746,-0.040191,0.861598,0.028446,0.506794,-0.042079,-0.009037,0.126186,-100.409363,373.059418,46.057953,,,,,,
1466451795.44,2.088510,-0.029565,-0.709361,0.017523,-0.505668,-0.047489,0.868573,0.029561,0.494678,-0.018110,-0.005574,0.120343,-98.581787,373.053925,49.890869,,,,,,
1466451795.43,2.094226,-0.029043,-0.709355,0.048066,-0.769016,-0.043678,0.865745,0.029039,0.499643,-0.053458,-0.002642,0.128668,-98.581787,373.053925,49.890869,,,,,,
1466451795.45,2.088478,-0.029888,-0.709174,0.021943,-0.369748,-0.044079,0.868581,0.029884,0.494646,-0.001576,0.014428,0.102217,-98.581787,373.053925,49.890869,,,,,,
1466451795.46,2.085022,-0.030359,-0.709214,0.025163,-0.337916,-0.036824,0.870273,0.030354,0.491634,0.039762,0.008937,0.099415,-98.201874,373.004395,50.998276,,,,,,
1466451795.47,2.081767,-0.030713,-0.709145,0.001753,-0.317745,-0.031652,0.871859,0.030708,0.488793,0.094556,0.026558,0.096091,-98.201874,373.004395,50.998276,,,,,,
1466451795.48,2.077907,-0.031117,-0.709195,0.030365,-0.428184,-0.031995,0.873728,0.031112,0.485419,0.098776,-0.030913,0.047372,-98.201874,373.004395,50.998276,,,,,,
1466451795.49,2.072779,-0.031382,-0.709078,-0.002774,-0.527985,-0.028209,0.876199,0.031376,0.480927,0.108787,0.020626,0.114715,-98.191254,372.895264,51.810081,,,,,,
1466451795.50,2.067165,-0.031721,-0.709194,0.034426,-0.570494,-0.021518,0.878876,0.031716,0.475996,0.089173,-0.000344,0.104586,-98.191254,372.895264,51.810081,,,,,,
1466451795.51,2.061522,-0.031957,-0.709199,0.002491,-0.563048,-0.020532,0.881541,0.031951,0.471026,0.159383,0.001115,0.119566,-98.191254,372.895264,51.810081,,,,,,
1466451795.52,2.054589,-0.032206,-0.709226,0.019280,-0.761611,-0.020335,0.884778,0.032200,0.464898,0.155856,-0.002247,0.082663,-97.827301,372.858490,52.754807,,,,,,
1466451795.53,2.045125,-0.032448,-0.709345,0.018992,-0.986721,-0.015730,0.889131,0.032442,0.456501,0.136290,0.004301,0.124798,-97.827301,372.858490,52.754807,,,,,,
1466451795.54,2.035539,-0.032702,-0.709447,0.023330,-0.928316,-0.019285,0.893459,0.032696,0.447953,0.106877,0.004139,0.183013,-97.310791,372.831787,53.886398,,,,,,
1466451795.55,2.027668,-0.033073,-0.709561,0.026792,-0.733975,-0.032210,0.896946,0.033067,0.440902,0.048061,-0.001527,0.220643,-97.310791,372.831787,53.886398,,,,,,
1466451795.56,2.022391,-0.033522,-0.709596,0.025034,-0.449391,-0.041447,0.899247,0.033516,0.436156,0.030273,-0.007301,0.238252,-97.310791,372.831787,53.886398,,,,,,
1466451795.57,2.020436,-0.034107,-0.709572,0.021212,-0.124436,-0.058391,0.900080,0.034100,0.434388,0.108801,-0.006146,0.236754,-95.907654,372.785461,56.651543,,,,,,
1466451795.58,2.019365,-0.034715,-0.709461,0.016942,-0.135049,-0.059393,0.900526,0.034708,0.433415,0.149431,0.000036,0.176814,-95.907654,372.785461,56.651543,,,,,,
1466451795.59,2.016248,-0.035312,-0.709395,0.018769,-0.372900,-0.055771,0.901853,0.035305,0.430597,0.198244,0.003254,0.169149,-95.907654,372.785461,56.651543,,,,,,
1466451795.60,2.010841,-0.035859,-0.709395,0.025925,-0.600147,-0.047952,0.904151,0.035851,0.425706,0.163964,0.004676,0.186416,-96.157928,372.699249,56.794495,,,,,,
1466451795.61,2.003700,-0.036305,-0.709423,0.018296,-0.723341,-0.036543,0.907153,0.036297,0.419232,0.073056,-0.000180,0.222171,-96.157928,372.699249,56.794495,,,,,,
1466451795.62,1.997776,-0.036714,-0.709457,0.021723,-0.539648,-0.038756,0.909607,0.036706,0.413844,0.108871,0.004935,0.295918,-96.157928,372.699249,56.794495,,,,,,
1466451795.63,1.992235,-0.037136,-0.709464,0.016329,-0.590621,-0.035248,0.911872,0.037127,0.408791,0.085503,-0.000583,0.235389,-95.588226,372.574127,58.550011,,,,,,
1466451795.64,1.985183,-0.037540,-0.709537,0.025741,-0.731836,-0.037546,0.914719,0.037532,0.402345,0.107666,0.003805,0.284850,-95.588226,372.574127,58.550011,,,,,,
1466451795.65,1.977707,-0.037951,-0.709581,0.020409,-0.731845,-0.033294,0.917687,0.037941,0.395489,-0.073357,0.009666,0.317340,-95.588226,372.574127,58.550011,,,,,,
1466451795.66,1.973987,-0.038353,-0.709589,0.010443,-0.196677,-0.041982,0.919137,0.038343,0.392067,-0.124322,0.003313,0.428948,-95.113258,372.529572,59.597595,,,,,,
1466451795.67,1.976761,-0.038831,-0.709360,-0.000526,0.384155,-0.053087,0.918029,0.038821,0.394607,-0.084030,0.022199,0.402329,-95.113258,372.529572,59.597595,,,,,,
1466451795.68,1.980971,-0.039322,-0.709165,-0.001564,0.403271,-0.054273,0.916342,0.039312,0.398462,0.007959,-0.000798,0.324622,-95.113258,372.529572,59.597595,,,,,,
1466451795.69,1.983272,-0.039846,-0.708958,0.009839,0.156942,-0.054843,0.915404,0.039836,0.400560,-0.027602,0.011449,0.319380,-95.524162,372.382172,59.861126,,,,,,
1466451795.70,1.985173,-0.040392,-0.708884,0.007843,0.265244,-0.054460,0.914621,0.040381,0.402291,-0.109353,-0.000830,0.401450,-95.524162,372.382172,59.861126,,,,,,
1466451795.71,1.990702,-0.040980,-0.708690,0.010428,0.620959,-0.060946,0.912361,0.040968,0.407332,-0.118324,-0.001372,0.409975,-95.524162,372.382172,59.861126,,,,,,
1466451795.72,1.997278,-0.041624,-0.708579,0.015790,0.646448,-0.064294,0.909638,0.041612,0.413312,-0.101609,0.008452,0.385058,-96.181091,372.287598,59.395599,,,,,,
1466451795.73,2.002792,-0.042266,-0.708616,0.035865,0.534928,-0.056123,0.907321,0.042253,0.418310,-0.164569,-0.006044,0.357203,-96.181091,372.287598,59.395599,,,,,,
1466451795.74,2.009341,-0.042949,-0.708649,0.028634,0.706953,-0.060403,0.904536,0.042936,0.424231,-0.218989,0.011080,0.423029,-96.181091,372.287598,59.395599,,,,,,
1466451795.75,2.018365,-0.043684,-0.708785,0.049206,0.974526,-0.065253,0.900642,0.043670,0.432362,-0.250953,0.004273,0.448360,-98.486649,372.100464,56.730217,,,,,,
1466451795.76,2.029356,-0.044454,-0.708882,0.037671,1.118931,-0.064042,0.895805,0.044439,0.442220,-0.245582,-0.024466,0.372996,-98.486649,372.100464,56.730217,,,,,,
1466451795.77,2.040550,-0.045296,-0.708846,0.037683,1.101989,-0.080967,0.890765,0.045280,0.452202,-0.217136,-0.010658,0.371086,-100.066544,372.023834,54.421059,,,,,,
1466451795.78,2.050381,-0.046237,-0.708982,0.055608,0.965002,-0.077961,0.886238,0.046221,0.460918,-0.293465,-0.027086,0.313771,-100.066544,372.023834,54.421059,,,,,,
1466451795.79,2.060441,-0.047104,-0.709017,0.043948,1.020198,-0.069803,0.881521,0.047086,0.469790,-0.353338,-0.012220,0.309385,-100.066544,372.023834,54.421059,,,,,,
1466451795.81,2.082537,-0.048504,-0.709122,0.044040,1.122081,-0.052346,0.870868,0.048485,0.489120,-0.394885,-0.001229,0.266877,-101.760117,371.915497,51.965740,,,,,,
1466451795.80,2.071333,-0.047852,-0.709047,0.033393,1.107247,-0.061844,0.876321,0.047834,0.479347,-0.383614,-0.012265,0.280510,-101.760117,371.915497,51.965740,,,,,,
1466451795.82,2.093402,-0.049196,-0.709370,0.056752,1.082767,-0.044636,0.865473,0.049176,0.498536,-0.459009,-0.006345,0.241866,-101.760117,371.915497,51.965740,,,,,,
1466451795.83,2.105359,-0.049825,-0.709569,0.048435,1.247342,-0.042483,0.859424,0.049805,0.508832,-0.483096,-0.010452,0.246920,-101.760117,371.915497,51.965740,,,,,,
1466451795.84,2.118888,-0.050504,-0.709840,0.056055,1.375825,-0.046475,0.852432,0.050482,0.520395,-0.469970,-0.022421,0.162100,-104.783081,371.753723,46.865326,,,,,,
1466451795.85,2.132018,-0.051200,-0.710150,0.066570,1.280240,-0.039478,0.845496,0.051177,0.531523,-0.487144,-0.011962,0.099184,-104.783081,371.753723,46.865326,,,,,,
1466451795.86,2.144585,-0.051775,-0.710528,0.062268,1.269583,-0.024513,0.838725,0.051752,0.542091,-0.534587,-0.011987,0.070123,-104.783081,371.753723,46.865326,,,,,,
1466451795.87,2.158627,-0.052366,-0.711035,0.079531,1.455381,-0.022468,0.831005,0.052342,0.553797,-0.555859,-0.004704,0.083853,-107.617645,371.685883,40.555355,,,,,,
1466451795.88,2.174643,-0.052933,-0.711646,0.077656,1.677267,-0.012152,0.822004,0.052909,0.567018,-0.629957,-0.024802,0.070876,-107.617645,371.685883,40.555355,,,,,,
1466451795.89,2.194090,-0.053404,-0.712048,0.054669,2.024491,-0.015417,0.810803,0.053379,0.582881,-0.578381,-0.036991,0.000234,-107.617645,371.685883,40.555355,,,,,,
1466451795.90,2.214923,-0.053857,-0.712442,0.062167,2.068007,-0.010360,0.798465,0.053831,0.599630,-0.508929,-0.011991,-0.118322,-108.908928,371.709412,36.710388,,,,,,
1466451795.91,2.234754,-0.054155,-0.712801,0.039672,1.978794,0.001886,0.786405,0.054129,0.615335,-0.536512,-0.016500,-0.170755,-108.908928,371.709412,36.710388,,,,,,
1466451795.92,2.255638,-0.054242,-0.713126,0.026008,2.145460,0.016793,0.773380,0.054216,0.631620,-0.516315,-0.020722,-0.196470,-110.397377,371.718750,31.847990,,,,,,
1466451795.93,2.277768,-0.054132,-0.713392,0.005829,2.210199,0.031269,0.759219,0.054106,0.648582,-0.495288,-0.020643,-0.250450,-110.397377,371.718750,31.847990,,,,,,
1466451795.94,2.300237,-0.053787,-0.713638,-0.001572,2.271752,0.043649,0.744469,0.053761,0.665489,-0.481087,0.003002,-0.232872,-110.397377,371.718750,31.847990,,,,,,
1466451795.95,2.323300,-0.053249,-0.713821,-0.034546,2.323753,0.059257,0.728945,0.053224,0.682500,-0.460345,-0.006547,-0.329686,-112.395683,371.832916,22.004292,,,,,,
1466451795.96,2.347396,-0.052553,-0.713952,-0.038660,2.437371,0.057476,0.712316,0.052529,0.699890,-0.437261,-0.019677,-0.311050,-112.395683,371.832916,22.004292,,,,,,
1466451795.97,2.372524,-0.051656,-0.714127,-0.057730,2.548808,0.079112,0.694539,0.051633,0.717600,-0.447621,-0.025876,-0.335032,-112.395683,371.832916,22.004292,,,,,,
1466451795.98,2.398924,-0.050613,-0.714347,-0.059752,2.658134,0.093326,0.675390,0.050591,0.735723,-0.351278,-0.024727,-0.377035,-112.395683,371.832916,22.004292,,,,,,
1466451796.00,2.450946,-0.048422,-0.714764,-0.071601,2.526515,0.080302,0.636289,0.048404,0.769931,-0.206998,-0.051562,-0.457782,-113.024551,372.115112,11.510490,,,,,,
1466451795.99,2.425484,-0.049507,-0.714576,-0.070417,2.635856,0.088133,0.655650,0.049487,0.753441,-0.239924,-0.036974,-0.426796,-113.024551,372.115112,11.510490,,,,,,
1466451796.01,2.475989,-0.047289,-0.714851,-0.085470,2.499985,0.077261,0.616843,0.047272,0.785665,-0.162711,-0.025787,-0.474172,-113.024551,372.115112,11.510490,,,,,,
1466451796.02,2.500339,-0.046252,-0.715008,-0.068550,2.407600,0.077857,0.597561,0.046236,0.800489,-0.158581,-0.025301,-0.482344,-112.831627,372.300903,6.145153,,,,,,
1466451796.03,2.524248,-0.045174,-0.715162,-0.084545,2.383195,0.074801,0.578281,0.045159,0.814587,-0.113666,-0.024986,-0.497875,-112.831627,372.300903,6.145153,,,,,,
1466451796.04,2.547542,-0.044003,-0.715310,-0.087828,2.314177,0.076295,0.559180,0.043988,0.827878,-0.086097,-0.025861,-0.525357,-112.831627,372.300903,6.145153,,,,,,
1466451796.05,2.569578,-0.042778,-0.715444,-0.094403,2.174007,0.082490,0.540832,0.042765,0.840043,-0.073028,-0.026484,-0.555909,-111.808395,372.643555,-3.517956,,,,,,
1466451796.06,2.590781,-0.041647,-0.715699,-0.078515,2.107106,0.082925,0.522925,0.041634,0.851361,-0.054755,-0.035455,-0.543912,-111.808395,372.643555,-3.517956,,,,,,
1466451796.08,2.631681,-0.039262,-0.716036,-0.094661,1.945758,0.070083,0.487724,0.039252,0.872115,0.032418,-0.017951,-0.602065,-110.968781,372.832031,-7.676849,,,,,,
1466451796.07,2.611833,-0.040465,-0.715883,-0.097677,2.094400,0.073406,0.504912,0.040454,0.862222,0.016374,-0.032031,-0.555566,-110.968781,372.832031,-7.676849,,,,,,
1466451796.09,2.650557,-0.038011,-0.716216,-0.104334,1.882040,0.075796,0.471199,0.038002,0.881208,0.013832,-0.021400,-0.605893,-110.968781,372.832031,-7.676849,,,,,,
1466451796.10,2.669499,-0.036751,-0.716466,-0.097942,1.900061,0.085269,0.454445,0.036743,0.890017,-0.025017,-0.013946,-0.621096,-110.968781,372.832031,-7.676849,,,,,,
1466451796.11,2.689975,-0.035294,-0.716744,-0.129651,2.072112,0.075643,0.436150,0.035287,0.899182,0.135444,-0.014169,-0.618481,-108.935730,373.213196,-14.886448,,,,,,
1466451796.12,2.709380,-0.033803,-0.716984,-0.119245,1.891580,0.084236,0.418642,0.033797,0.907522,0.214170,-0.009016,-0.687124,-108.935730,373.213196,-14.886448,,,,,,
1466451796.13,2.726230,-0.032327,-0.717246,-0.127014,1.639937,0.085807,0.403311,0.032322,0.914492,0.261774,-0.013706,-0.706942,-108.935730,373.213196,-14.886448,,,,,,
1466451796.14,2.741643,-0.030789,-0.717494,-0.131426,1.523132,0.089728,0.389188,0.030784,0.920644,0.296604,-0.026542,-0.710119,-107.618767,373.443390,-18.301308,,,,,,
1466451796.15,2.756469,-0.029348,-0.717843,-0.113402,1.460479,0.089075,0.375512,0.029344,0.926353,0.347693,-0.028337,-0.659553,-107.618767,373.443390,-18.301308,,,,,,
1466451796.16,2.770623,-0.027897,-0.718263,-0.128398,1.390405,0.090564,0.362378,0.027894,0.931614,0.450260,-0.045121,-0.692463,-107.618767,373.443390,-18.301308,,,,,,
1466451796.17,2.782640,-0.026457,-0.718638,-0.109553,1.131322,0.090079,0.351170,0.026454,0.935938,0.527537,-0.019938,-0.721598,-105.050705,373.916046,-22.974476,,,,,,
1466451796.18,2.792478,-0.025001,-0.719105,-0.131092,0.931722,0.088116,0.341959,0.024998,0.939382,0.650412,-0.026249,-0.655493,-105.050705,373.916046,-22.974476,,,,,,
1466451796.19,2.800085,-0.023542,-0.719455,-0.119643,0.715120,0.085228,0.334816,0.023540,0.941990,0.692253,-0.018870,-0.641880,-105.050705,373.916046,-22.974476,,,,,,
1466451796.20,2.805735,-0.022157,-0.719875,-0.115631,0.519744,0.087521,0.329498,0.022155,0.943896,0.734894,-0.019790,-0.598361,-103.856644,374.162048,-24.356586,,,,,,
1466451796.21,2.810161,-0.020771,-0.720276,-0.115744,0.412531,0.077549,0.325327,0.020769,0.945373,0.832098,-0.022112,-0.509567,-103.856644,374.162048,-24.356586,,,,,,
1466451796.22,2.812820,-0.019457,-0.720633,-0.110642,0.223548,0.071288,0.322821,0.019455,0.946260,0.873636,-0.018937,-0.439745,-102.901245,374.395294,-24.823235,,,,,,
1466451796.23,2.813231,-0.018305,-0.721068,-0.092859,-0.015390,0.081320,0.322439,0.018304,0.946413,0.920603,-0.019815,-0.451342,-102.901245,374.395294,-24.823235,,,,,,
1466451796.24,2.811387,-0.017103,-0.721477,-0.108039,-0.247894,0.074248,0.324191,0.017102,0.945837,1.011106,0.003970,-0.442023,-102.901245,374.395294,-24.823235,,,,,,
1466451796.26,2.800051,-0.014023,-0.722108,-0.146935,-0.700200,0.075981,0.334907,0.014022,0.942147,1.088692,-0.001510,-0.234231,-101.577118,374.822357,-23.811234,,,,,,
1466451796.25,2.806708,-0.015659,-0.721835,-0.130778,-0.536716,0.084552,0.328620,0.015658,0.944332,1.048776,-0.020831,-0.407376,-101.577118,374.822357,-23.811234,,,,,,
1466451796.27,2.792091,-0.012478,-0.722214,-0.142805,-0.828636,0.060824,0.342403,0.012478,0.939470,1.100605,0.007908,-0.070696,-101.577118,374.822357,-23.811234,,,,,,
1466451796.28,2.783284,-0.010897,-0.722094,-0.153494,-0.892286,0.042052,0.350670,0.010897,0.936436,1.077767,0.020322,0.061443,-101.577118,374.822357,-23.811234,,,,,,
1466451796.29,2.774049,-0.009331,-0.721877,-0.155671,-0.944290,0.033861,0.359309,0.009331,0.933172,1.087774,0.007270,0.083521,-101.173073,375.213806,-18.850075,,,,,,
1466451796.30,2.763975,-0.007576,-0.721548,-0.183452,-1.023908,0.033268,0.368696,0.007576,0.929519,1.065965,-0.019280,0.131364,-101.173073,375.213806,-18.850075,,,,,,
1466451796.31,2.753860,-0.005761,-0.721003,-0.184441,-1.000483,0.009702,0.378084,0.005761,0.925753,1.070921,0.011985,0.265302,-101.173073,375.213806,-18.850075,,,,,,
1466451796.32,2.743566,-0.004140,-0.720207,-0.185539,-1.066247,-0.014369,0.387597,0.004140,0.921820,1.118430,0.011378,0.292765,-101.249344,375.339935,-15.658489,,,,,,
1466451796.33,2.731678,-0.002486,-0.719243,-0.186765,-1.216985,-0.027263,0.398530,0.002486,0.917152,1.057586,-0.000045,0.406487,-101.249344,375.339935,-15.658489,,,,,,
1466451796.34,2.719832,-0.001215,-0.718120,-0.156815,-1.155333,-0.057424,0.409367,0.001215,0.912369,1.009792,0.029074,0.563873,-101.249344,375.339935,-15.658489,,,,,,
1466451796.35,2.707975,0.000038,-0.716791,-0.171783,-1.224307,-0.069780,0.420156,-0.000038,0.907452,1.040140,-0.002694,0.577290,-102.038406,375.357330,-8.468540,,,,,,
1466451796.36,2.693653,0.000948,-0.715387,-0.130553,-1.505627,-0.096714,0.433109,-0.000948,0.901341,1.033978,0.013384,0.634670,-102.038406,375.357330,-8.468540,,,,,,
1466451796.37,2.676213,0.001527,-0.713852,-0.113856,-1.812432,-0.118191,0.448761,-0.001527,0.893650,0.954284,0.026155,0.769726,-102.038406,375.357330,-8.468540,,,,,,
1466451796.38,2.657403,0.001769,-0.712333,-0.080921,-1.886745,-0.128337,0.465491,-0.001769,0.885051,0.827127,0.026489,0.900487,-102.797760,375.217255,-4.618828,,,,,,
1466451796.39,2.637574,0.001590,-0.710864,-0.045941,-2.035374,-0.142272,0.482948,-0.001590,0.875648,0.805992,0.031467,0.931588,-102.797760,375.217255,-4.618828,,,,,,
1466451796.40,2.614702,0.001136,-0.709511,-0.021900,-2.385792,-0.135793,0.502848,-0.001136,0.864374,0.748617,0.023902,0.952185,-102.797760,375.217255,-4.618828,,,,,,
1466451796.41,2.589702,0.000301,-0.708332,0.023726,-2.548207,-0.158147,0.524298,-0.000301,0.851535,0.751032,0.033474,0.988034,-104.711052,374.687164,4.671299,,,,,,
1466451796.42,2.560769,-0.000993,-0.707325,0.063594,-3.010129,-0.148823,0.548712,0.000993,0.836011,0.678888,0.019164,1.012790,-104.711052,374.687164,4.671299,,,,,,
1466451796.44,2.494676,-0.004766,-0.705810,0.106638,-3.557935,-0.183665,0.602722,0.004766,0.797937,0.464539,-0.014486,1.070609,-105.428703,374.378998,10.091923,,,,,,
1466451796.43,2.529240,-0.002817,-0.706527,0.123022,-3.206525,-0.172014,0.574792,0.002817,0.818295,0.618278,0.047812,1.086978,-105.428703,374.378998,10.091923,,,,,,
1466451796.45,2.457218,-0.006784,-0.705189,0.125510,-3.810621,-0.193770,0.632174,0.006784,0.774797,0.166029,-0.020975,1.225203,-105.428703,374.378998,10.091923,,,,,,
1466451796.46,2.421927,-0.008834,-0.705243,0.169671,-3.301160,-0.130925,0.659108,0.008834,0.751997,-0.307225,0.012040,1.244799,-105.428703,374.378998,10.091923,,,,,,
1466451796.47,2.395756,-0.010241,-0.705389,0.092885,-2.417933,-0.052450,0.678551,0.010240,0.734482,0.113457,-0.057527,1.087219,-105.536453,373.784180,22.894474,,,,,,
1466451796.48,2.375195,-0.011456,-0.705321,0.083919,-2.121348,-0.176730,0.693499,0.011455,0.720367,1.357618,-0.029430,0.860123,-105.536453,373.784180,22.894474,,,,,,
1466451796.49,2.319702,-0.013918,-0.703449,0.055797,-6.852494,-0.232242,0.732363,0.013918,0.680772,1.442060,-0.053636,0.553481,-105.536453,373.784180,22.894474,,,,,,
1466451796.50,2.257869,-0.017344,-0.705884,0.510053,-5.205245,-0.081388,0.772990,0.017343,0.634181,-1.158122,0.336890,1.637532,-105.010117,373.653046,27.073132,,,,,,
1466451796.51,2.243421,-0.018676,-0.705573,-0.151448,-0.421372,-0.155693,0.782053,0.018675,0.622932,-0.476419,-0.303404,1.573753,-105.010117,373.653046,27.073132,,,,,,
1466451796.52,2.238690,-0.019877,-0.704240,0.124710,-0.988460,-0.171021,0.784973,0.019875,0.619211,0.206772,0.007728,1.331198,-105.010117,373.653046,27.073132,,,,,,
1466451796.53,2.208056,-0.022198,-0.704978,0.120346,-3.581445,-0.131346,0.803531,0.022196,0.594849,0.238507,-0.052699,0.753387,-103.066925,373.088531,39.482567,,,,,,
1466451796.54,2.172477,-0.023383,-0.704175,0.029111,-3.345629,-0.151011,0.824160,0.023381,0.565874,0.133039,-0.080861,1.089583,-103.066925,373.088531,39.482567,,,,,,
1466451796.55,2.148960,-0.025347,-0.704157,0.091453,-2.043864,-0.168693,0.837199,0.025344,0.546311,-0.316187,-0.060698,1.328933,-103.066925,373.088531,39.482567,,,,,,
1466451796.56,2.132877,-0.026715,-0.703133,-0.019738,-1.560688,-0.171835,0.845846,0.026712,0.532758,-0.384145,-0.009088,1.261172,-101.320755,372.881989,45.495316,,,,,,
1466451796.57,2.115337,-0.028341,-0.702813,0.073569,-1.833682,-0.146611,0.855022,0.028337,0.517817,-0.339534,0.006713,1.114278,-101.320755,372.881989,45.495316,,,,,,
1466451796.59,2.086162,-0.030999,-0.702315,0.082947,-1.110664,-0.127719,0.869694,0.030994,0.492617,-0.474507,0.011029,1.203413,-100.696793,372.588379,49.140129,,,,,,
1466451796.58,2.098389,-0.029578,-0.702391,0.017411,-1.587366,-0.130117,0.863644,0.029573,0.503235,-0.460399,0.005400,1.078598,-100.696793,372.588379,49.140129,,,,,,
1466451796.60,2.077298,-0.032607,-0.702368,0.076925,-0.840924,-0.143254,0.873982,0.032601,0.484863,-0.523579,-0.002099,1.148208,-100.696793,372.588379,49.140129,,,,,,
1466451796.61,2.069440,-0.034272,-0.702362,0.086606,-0.770836,-0.149007,0.877716,0.034266,0.477954,-0.550461,-0.038065,1.061795,-99.866692,372.161377,53.844849,,,,,,
1466451796.62,2.062264,-0.036131,-0.702707,0.122898,-0.693351,-0.146263,0.881066,0.036123,0.471613,-0.607979,-0.014456,0.997351,-99.866692,372.161377,53.844849,,,,,,
1466451796.63,2.056152,-0.037955,-0.703011,0.112396,-0.573368,-0.144897,0.883872,0.037946,0.466187,-0.673392,-0.025022,0.970932,-99.866692,372.161377,53.844849,,,,,,
1466451796.64,2.051278,-0.039832,-0.703526,0.141265,-0.470399,-0.141256,0.886069,0.039821,0.461840,-0.722357,-0.016643,0.923215,-99.866692,372.161377,53.844849,,,,,,
1466451796.65,2.046886,-0.041686,-0.704181,0.141328,-0.404594,-0.132089,0.888022,0.041674,0.457909,-0.835821,-0.013842,0.852470,-100.618622,371.819702,54.796688,,,,,,
1466451796.66,2.045067,-0.043401,-0.705108,0.165115,-0.071276,-0.106480,0.888788,0.043387,0.456260,-0.974314,0.020700,0.835824,-100.618622,371.819702,54.796688,,,,,,
1466451796.67,2.048451,-0.044934,-0.705877,0.130646,0.477664,-0.099312,0.887179,0.044919,0.459234,-1.070986,-0.005246,0.790446,-100.618622,371.819702,54.796688,,,,,,
1466451796.68,2.056185,-0.046343,-0.706596,0.131118,0.872623,-0.090080,0.883544,0.046326,0.466052,-1.123916,-0.018631,0.714368,-101.192032,371.739105,54.285210,,,,,,
1466451796.69,2.068261,-0.047657,-0.707326,0.116759,1.332364,-0.080202,0.877797,0.047639,0.476658,-1.188573,-0.022889,0.615521,-101.192032,371.739105,54.285210,,,,,,
1466451796.70,2.085608,-0.048860,-0.707855,0.105723,1.878125,-0.079378,0.869347,0.048840,0.491784,-1.239662,-0.033414,0.571311,-101.192032,371.739105,54.285210,,,,,,
1466451796.72,2.137455,-0.051313,-0.708549,0.079329,2.897483,-0.091120,0.842589,0.051290,0.536109,-1.230834,-0.052786,0.313683,-104.579224,371.635345,48.239464,,,,,,
1466451796.71,2.109091,-0.050093,-0.708319,0.095887,2.518408,-0.087662,0.857507,0.050072,0.512030,-1.306817,-0.054543,0.463343,-104.579224,371.635345,48.239464,,,,,,
1466451796.74,2.194430,-0.053111,-0.708909,0.054609,2.785880,-0.044673,0.810617,0.053086,0.583165,-1.108835,-0.054383,-0.081029,-107.570915,371.533905,42.044594,,,,,,
1466451796.73,2.166452,-0.052328,-0.708736,0.069682,2.880441,-0.069734,0.826648,0.052305,0.560284,-1.154803,-0.067075,0.049366,-107.570915,371.533905,42.044594,,,,,,
1466451796.75,2.223968,-0.053590,-0.709171,0.047408,3.034264,-0.016434,0.793020,0.053564,0.606836,-1.167776,-0.034445,-0.132776,-107.570915,371.533905,42.044594,,,,,,
1466451796.76,2.256753,-0.053829,-0.709468,0.031793,3.353813,0.003900,0.772692,0.053803,0.632496,-1.154925,-0.024415,-0.205754,-110.255692,371.444122,35.350277,,,,,,
1466451796.77,2.290913,-0.053771,-0.709775,0.017971,3.417446,0.033292,0.750642,0.053745,0.658519,-1.061571,-0.040211,-0.336330,-110.255692,371.444122,35.350277,,,,,,
1466451796.78,2.324716,-0.053649,-0.710187,0.023212,3.357970,0.037928,0.727962,0.053623,0.683517,-0.958080,-0.041569,-0.508285,-110.255692,371.444122,35.350277,,,,,,
1466451796.79,2.357367,-0.053492,-0.710609,0.023054,3.239037,0.042931,0.705267,0.053467,0.706923,-0.861929,-0.055511,-0.598616,-110.255692,371.444122,35.350277,,,,,,
1466451796.80,2.389852,-0.053363,-0.711229,0.034773,3.266600,0.056608,0.681939,0.053338,0.729462,-0.815545,-0.055657,-0.673187,-113.736237,371.525574,20.236355,,,,,,
1466451796.81,2.422922,-0.053034,-0.711757,0.005001,3.310128,0.063756,0.657459,0.053009,0.751623,-0.684483,-0.068496,-0.825918,-113.736237,371.525574,20.236355,,,,,,
1466451796.82,2.454747,-0.052542,-0.712306,-0.003771,3.131709,0.079769,0.633226,0.052518,0.772183,-0.536333,-0.069974,-0.930783,-113.736237,371.525574,20.236355,,,,,,
1466451796.83,2.485748,-0.051705,-0.712888,-0.041103,3.107256,0.097981,0.609014,0.051682,0.791474,-0.493505,-0.056382,-0.985688,-114.531677,371.796936,5.124226,,,,,,
1466451796.84,2.517365,-0.050468,-0.713265,-0.088938,3.184765,0.107027,0.583727,0.050447,0.810382,-0.378328,-0.042131,-1.042575,-114.531677,371.796936,5.124226,,,,,,
1466451796.85,2.549230,-0.048942,-0.713566,-0.119830,3.182640,0.113396,0.557654,0.048922,0.828631,-0.284720,-0.032153,-1.058169,-114.531677,371.796936,5.124226,,,,,,
1466451796.86,2.580731,-0.047091,-0.713744,-0.147588,3.126372,0.115850,0.531327,0.047074,0.845858,-0.078964,-0.047608,-1.100909,-113.887787,372.026306,-1.640797,,,,,,
1466451796.87,2.611623,-0.045226,-0.713982,-0.146585,3.077529,0.116158,0.504990,0.045210,0.861940,0.074524,-0.059386,-1.085802,-113.887787,372.026306,-1.640797,,,,,,
1466451796.88,2.641616,-0.043286,-0.714183,-0.163756,2.971354,0.117871,0.478956,0.043273,0.876772,0.202501,-0.042159,-1.094133,-113.887787,372.026306,-1.640797,,,,,,
1466451796.89,2.669790,-0.041377,-0.714436,-0.156576,2.739901,0.110814,0.454104,0.041366,0.889988,0.299863,-0.040603,-1.137318,-111.224380,372.588043,-13.564251,,,,,,
1466451796.90,2.694901,-0.039555,-0.714930,-0.135677,2.449974,0.128620,0.431646,0.039545,0.901176,0.434534,-0.048410,-1.113929,-111.224380,372.588043,-13.564251,,,,,,
1466451796.91,2.717539,-0.037836,-0.715568,-0.129602,2.204686,0.133358,0.411164,0.037827,0.910776,0.604140,-0.046692,-1.095011,-111.224380,372.588043,-13.564251,,,,,,
1466451796.92,2.736869,-0.036139,-0.716333,-0.121553,1.842587,0.143088,0.393507,0.036131,0.918611,0.775606,-0.033812,-1.069170,-109.492004,372.896637,-18.338181,,,,,,
1466451796.93,2.751450,-0.034647,-0.717205,-0.099830,1.326554,0.141023,0.380092,0.034640,0.924300,0.854253,-0.046831,-1.037963,-109.492004,372.896637,-18.338181,,,,,,
1466451796.94,2.761339,-0.033094,-0.718196,-0.109960,0.898638,0.149019,0.370952,0.033088,0.928062,0.899418,-0.043296,-0.981132,-109.492004,372.896637,-18.338181,,,,,,
1466451796.96,2.773620,-0.030086,-0.720320,-0.101953,0.493022,0.152636,0.359562,0.030082,0.932636,1.015865,-0.035727,-0.852711,-106.003830,373.595795,-23.792332,,,,,,
1466451796.95,2.768350,-0.031571,-0.719238,-0.099630,0.649103,0.152723,0.364455,0.031566,0.930686,0.938447,-0.037044,-0.914741,-106.003830,373.595795,-23.792332,,,,,,
1466451796.97,2.777301,-0.028488,-0.721311,-0.111723,0.338013,0.150405,0.356143,0.028484,0.933997,0.998547,-0.041591,-0.731910,-106.003830,373.595795,-23.792332,,,,,,
1466451796.98,2.781473,-0.026891,-0.722253,-0.125364,0.481392,0.138847,0.352258,0.026888,0.935516,1.082342,-0.004808,-0.626587,-104.556931,373.968353,-24.335732,,,,,,
1466451796.99,2.787907,-0.025003,-0.722730,-0.166564,0.684314,0.102407,0.346249,0.025000,0.937809,1.161121,0.011911,-0.571598,-104.556931,373.968353,-24.335732,,,,,,
1466451797.00,2.794816,-0.023010,-0.722928,-0.191009,0.688626,0.083195,0.339778,0.023008,0.940224,1.243352,0.008532,-0.509240,-104.556931,373.968353,-24.335732,,,,,,
1466451797.01,2.801404,-0.020656,-0.722807,-0.232544,0.651534,0.065291,0.333593,0.020655,0.942491,1.327127,-0.010935,-0.432801,-102.198219,374.615997,-24.393993,,,,,,
1466451797.02,2.807640,-0.018122,-0.722523,-0.254926,0.616535,0.054843,0.327726,0.018121,0.944599,1.397066,-0.015420,-0.251987,-102.198219,374.615997,-24.393993,,,,,,
1466451797.03,2.813211,-0.015374,-0.721982,-0.281604,0.529547,0.030880,0.322474,0.015374,0.946454,1.424139,-0.019738,-0.076077,-102.198219,374.615997,-24.393993,,,,,,
1466451797.04,2.818003,-0.012749,-0.721250,-0.266733,0.462714,0.006832,0.317946,0.012749,0.948023,1.463578,0.010048,0.099325,-101.420151,374.857849,-23.921429,,,,,,
1466451797.05,2.821633,-0.010387,-0.720351,-0.250904,0.311994,-0.015625,0.314511,0.010387,0.949197,1.466342,0.012364,0.266852,-101.420151,374.857849,-23.921429,,,,,,
1466451797.06,2.823150,-0.008279,-0.719254,-0.225562,0.098636,-0.041937,0.313077,0.008279,0.949692,1.434771,0.019736,0.429962,-101.420151,374.857849,-23.921429,,,,,,
1466451797.07,2.823201,-0.006514,-0.717996,-0.203301,-0.025527,-0.069877,0.313033,0.006514,0.949720,1.455431,0.017015,0.504824,-101.046448,375.099792,-21.598133,,,,,,
1466451797.08,2.820937,-0.004991,-0.716506,-0.185494,-0.312132,-0.101059,0.315185,0.004991,0.949017,1.396714,0.017805,0.614475,-101.046448,375.099792,-21.598133,,,,,,
1466451797.09,2.815507,-0.003842,-0.714959,-0.148572,-0.614715,-0.117221,0.320335,0.003842,0.947297,1.354180,0.039279,0.748184,-101.046448,375.099792,-21.598133,,,,,,
1466451797.10,2.807384,-0.003068,-0.713333,-0.120121,-0.882251,-0.134674,0.328020,0.003068,0.944666,1.323454,0.028533,0.821234,-101.683647,375.022675,-19.877594,,,,,,
1466451797.11,2.795872,-0.002552,-0.711610,-0.102452,-1.251723,-0.148306,0.338873,0.002552,0.940829,1.244730,0.016064,0.906202,-101.683647,375.022675,-19.877594,,,,,,
1466451797.12,2.780458,-0.002247,-0.709851,-0.083738,-1.629702,-0.157626,0.353335,0.002247,0.935494,1.121213,0.030331,1.056953,-101.683647,375.022675,-19.877594,,,,,,
1466451797.13,2.762138,-0.002361,-0.708105,-0.043573,-1.885581,-0.168755,0.370413,0.002361,0.928864,0.983835,0.024968,1.193862,-104.374985,374.552185,-13.900219,,,,,,
1466451797.14,2.742020,-0.002862,-0.706363,-0.011826,-2.065001,-0.182500,0.389023,0.002862,0.921223,0.959823,0.024253,1.229427,-104.374985,374.552185,-13.900219,,,,,,
1466451797.15,2.718254,-0.003820,-0.704725,0.033422,-2.505648,-0.188207,0.410804,0.003820,0.911716,0.907693,0.028025,1.252270,-104.374985,374.552185,-13.900219,,,,,,
1466451797.16,2.688924,-0.005293,-0.703384,0.090214,-3.066309,-0.184634,0.437361,0.005293,0.899270,0.815401,0.032702,1.310950,-106.124886,374.195648,-9.582180,,,,,,
1466451797.17,2.655043,-0.007264,-0.702355,0.142921,-3.488933,-0.181931,0.467567,0.007264,0.883928,0.728509,0.032089,1.375197,-106.124886,374.195648,-9.582180,,,,,,
1466451797.18,2.617178,-0.009657,-0.701720,0.189246,-3.887164,-0.167678,0.500683,0.009657,0.865577,0.646747,0.030046,1.412698,-106.124886,374.195648,-9.582180,,,,,,
1466451797.20,2.530021,-0.014937,-0.701494,0.217077,-4.579541,-0.138826,0.574091,0.014936,0.818655,0.438315,-0.015760,1.449533,-109.266045,373.405914,2.380096,,,,,,
1466451797.19,2.575258,-0.012321,-0.701472,0.219600,-4.289629,-0.155544,0.536502,0.012321,0.843809,0.561246,0.001870,1.416353,-109.266045,373.405914,2.380096,,,,,,
1466451797.21,2.483269,-0.017346,-0.701656,0.196686,-4.691050,-0.127502,0.611700,0.017346,0.790900,0.262858,-0.025219,1.490213,-109.266045,373.405914,2.380096,,,,,,
1466451797.23,2.393655,-0.021406,-0.701958,0.143923,-4.296062,-0.119388,0.679972,0.021404,0.732925,0.084417,-0.035152,1.544358,-109.844696,373.101044,10.317570,,,,,,
1466451797.22,2.437173,-0.019465,-0.701856,0.172356,-4.548782,-0.118839,0.647469,0.019464,0.761843,0.147514,-0.027826,1.541852,-109.844696,373.101044,10.317570,,,,,,
1466451797.24,2.351951,-0.023102,-0.701909,0.111125,-4.128283,-0.119408,0.709912,0.023099,0.703912,0.043430,-0.031339,1.547004,-109.844696,373.101044,10.317570,,,,,,
1466451797.25,2.311587,-0.024696,-0.701766,0.095321,-4.005089,-0.126583,0.737710,0.024694,0.674666,-0.068673,-0.033513,1.549623,-108.333237,372.682465,27.356773,,,,,,
1466451797.26,2.273547,-0.026132,-0.701542,0.073318,-3.713096,-0.123114,0.762807,0.026129,0.646098,-0.197911,-0.019049,1.593739,-108.333237,372.682465,27.356773,,,,,,
1466451797.27,2.239751,-0.027529,-0.701263,0.063229,-3.271375,-0.128024,0.784173,0.027525,0.619931,-0.278924,-0.026411,1.597034,-108.333237,372.682465,27.356773,,,,,,
1466451797.28,2.209735,-0.028854,-0.700840,0.041312,-2.919905,-0.131314,0.802395,0.028850,0.596095,-0.340649,-0.026698,1.571263,-106.807487,372.470795,35.133583,,,,,,
1466451797.29,2.182887,-0.030212,-0.700307,0.036392,-2.609835,-0.140715,0.818075,0.030208,0.574318,-0.404653,-0.013911,1.568001,-106.807487,372.470795,35.133583,,,,,,
1466451797.30,2.158892,-0.031659,-0.699794,0.039942,-2.340116,-0.150918,0.831582,0.031654,0.554500,-0.454461,-0.011421,1.553578,-106.807487,372.470795,35.133583,,,,,,
1466451797.31,2.136554,-0.033318,-0.699447,0.073118,-2.220122,-0.161218,0.843714,0.033312,0.535758,-0.538996,0.010191,1.549996,-104.157112,371.972107,46.526962,,,,,,
1466451797.32,2.114980,-0.035056,-0.699456,0.095584,-2.111871,-0.146972,0.855025,0.035049,0.517401,-0.696806,-0.005019,1.510293,-104.157112,371.972107,46.526962,,,,,,
1466451797.33,2.095460,-0.036788,-0.699593,0.106473,-1.901668,-0.137635,0.864907,0.036780,0.500583,-0.863427,-0.001822,1.416165,-104.157112,371.972107,46.526962,,,,,,
1466451797.34,2.078322,-0.038490,-0.700082,0.128053,-1.640534,-0.117962,0.873302,0.038480,0.485656,-0.922359,0.007861,1.376633,-103.159149,371.730743,50.509010,,,,,,
1466451797.35,2.062551,-0.040089,-0.700742,0.135566,-1.570497,-0.104556,0.880797,0.040079,0.471794,-1.045119,-0.004281,1.281883,-103.159149,371.730743,50.509010,,,,,,
1466451797.36,2.048290,-0.041553,-0.701693,0.158162,-1.344409,-0.082534,0.887383,0.041541,0.459158,-1.158531,-0.010916,1.263345,-103.159149,371.730743,50.509010,,,,,,
1466451797.37,2.037916,-0.042966,-0.702627,0.142707,-0.925004,-0.079857,0.892045,0.042953,0.449901,-1.287110,-0.025772,1.212773,-101.331406,371.534332,55.415474,,,,,,
1466451797.38,2.032276,-0.044420,-0.703579,0.157171,-0.433387,-0.086120,0.894512,0.044406,0.444834,-1.417949,-0.025530,1.167700,-101.331406,371.534332,55.415474,,,,,,
1466451797.39,2.031734,-0.045995,-0.704725,0.174855,0.079461,-0.091447,0.894689,0.045979,0.444317,-1.590245,-0.037205,1.050571,-101.331406,371.534332,55.415474,,,,,,
1466451797.40,2.038218,-0.047643,-0.705919,0.185437,0.883229,-0.092220,0.891720,0.047625,0.450075,-1.803845,-0.033556,1.002623,-101.077789,371.527588,55.921665,,,,,,
1466451797.41,2.055314,-0.049358,-0.707124,0.182556,1.985376,-0.097006,0.883822,0.049338,0.465215,-1.819582,-0.058096,0.765864,-101.077789,371.527588,55.921665,,,,,,
1466451797.42,2.080254,-0.050998,-0.707981,0.142894,2.620357,-0.102092,0.871874,0.050976,0.487069,-1.767565,-0.096661,0.426856,-101.077789,371.527588,55.921665,,,,,,
1466451797.43,2.108547,-0.052464,-0.708740,0.141088,2.904874,-0.086847,0.857681,0.052440,0.511501,-1.782837,-0.069865,0.284962,-104.990463,371.502441,48.369690,,,,,,
1466451797.44,2.140760,-0.053782,-0.709346,0.109658,3.337002,-0.074687,0.840703,0.053756,0.538822,-1.695577,-0.096831,0.045178,-104.990463,371.502441,48.369690,,,,,,
1466451797.45,2.176181,-0.054826,-0.709736,0.088654,3.593925,-0.060352,0.821047,0.054798,0.568224,-1.631961,-0.087651,-0.211778,-104.990463,371.502441,48.369690,,,,,,
1466451797.46,2.212657,-0.055684,-0.710245,0.090798,3.651182,-0.031969,0.799742,0.055655,0.597759,-1.541197,-0.068320,-0.391612,-108.323578,371.438507,40.940361,,,,,,
1466451797.47,2.248954,-0.056111,-0.710868,0.070456,3.629839,0.010723,0.777504,0.056082,0.626372,-1.470848,-0.046545,-0.624785,-108.323578,371.438507,40.940361,,,,,,
1466451797.48,2.286059,-0.056304,-0.711573,0.066286,3.743381,0.036617,0.753725,0.056274,0.654776,-1.311678,-0.051727,-0.771399,-108.323578,371.438507,40.940361,,,,,,
1466451797.49,2.322767,-0.056185,-0.712323,0.039483,3.643503,0.067022,0.729192,0.056155,0.682002,-1.226308,-0.080905,-1.007059,-113.278290,371.468750,23.573238,,,,,,
1466451797.50,2.359928,-0.055816,-0.713145,0.031069,3.765547,0.090730,0.703365,0.055787,0.708636,-1.090175,-0.079606,-1.085437,-113.278290,371.468750,23.573238,,,,,,
1466451797.51,2.399195,-0.055094,-0.713985,-0.003843,3.984226,0.114871,0.675031,0.055066,0.735732,-0.874936,-0.087903,-1.246077,-114.169113,371.646851,14.856632,,,,,,
1466451797.52,2.439096,-0.054212,-0.714704,-0.023033,3.959823,0.111811,0.645176,0.054185,0.762110,-0.564289,-0.094026,-1.401118,-114.169113,371.646851,14.856632,,,,,,
1466451797.53,2.476645,-0.053335,-0.715353,-0.031855,3.693356,0.098571,0.616141,0.053309,0.785830,-0.336600,-0.102687,-1.506899,-114.169113,371.646851,14.856632,,,,,,
1466451797.54,2.513224,-0.052273,-0.715771,-0.068071,3.676394,0.095448,0.587023,0.052249,0.807882,-0.216189,-0.089267,-1.492025,-114.169113,371.646851,14.856632,,,,,,
1466451797.55,2.550934,-0.050932,-0.715993,-0.107324,3.793206,0.096805,0.556186,0.050910,0.829497,-0.076755,-0.077873,-1.499099,-113.534920,372.130798,-2.274353,,,,,,
1466451797.56,2.589023,-0.049197,-0.716186,-0.147805,3.802735,0.113736,0.524241,0.049177,0.850149,0.059942,-0.059889,-1.523184,-113.534920,372.130798,-2.274353,,,,,,
1466451797.57,2.626376,-0.046978,-0.716344,-0.192672,3.710337,0.130238,0.492180,0.046960,0.869226,0.262856,-0.059060,-1.561411,-113.534920,372.130798,-2.274353,,,,,,
1466451797.58,2.662357,-0.044444,-0.716557,-0.218450,3.541506,0.137658,0.460646,0.044429,0.886471,0.554720,-0.051647,-1.518353,-112.304054,372.377533,-9.974148,,,,,,
1466451797.59,2.695834,-0.041898,-0.716834,-0.216643,3.282428,0.138220,0.430764,0.041885,0.901492,0.811210,-0.056549,-1.421588,-112.304054,372.377533,-9.974148,,,,,,
1466451797.60,2.726230,-0.039335,-0.717037,-0.225554,2.935281,0.119099,0.403209,0.039324,0.914262,1.071232,-0.042056,-1.304735,-110.332329,372.727264,-16.669785,,,,,,
1466451797.61,2.751871,-0.036967,-0.717344,-0.196353,2.445778,0.121134,0.379672,0.036959,0.924383,1.170103,-0.048098,-1.227743,-110.332329,372.727264,-16.669785,,,,,,
1466451797.62,2.773330,-0.034689,-0.717733,-0.201118,2.031695,0.117339,0.359778,0.034682,0.932393,1.320046,-0.034789,-1.120366,-110.332329,372.727264,-16.669785,,,,,,
1466451797.64,2.802416,-0.030082,-0.718749,-0.202287,1.099433,0.123185,0.332560,0.030077,0.942602,1.540029,-0.001070,-0.950934,-106.086761,373.455872,-25.553581,,,,,,
1466451797.63,2.790192,-0.032414,-0.718252,-0.189986,1.581465,0.127625,0.344032,0.032409,0.938398,1.399025,-0.033553,-1.043760,-106.086761,373.455872,-25.553581,,,,,,
1466451797.65,2.809009,-0.027851,-0.719356,-0.187058,0.519660,0.134287,0.326360,0.027848,0.944835,1.595988,-0.021027,-0.832241,-106.086761,373.455872,-25.553581,,,,,,
1466451797.66,2.811001,-0.025515,-0.719893,-0.209902,0.113036,0.124041,0.324497,0.025512,0.945543,1.665035,-0.009567,-0.705964,-106.086761,373.455872,-25.553581,,,,,,
1466451797.67,2.809424,-0.023137,-0.720309,-0.205022,-0.254327,0.117835,0.326007,0.023135,0.945084,1.714597,0.002805,-0.507432,-103.170891,374.202148,-26.555740,,,,,,
1466451797.68,2.804766,-0.020928,-0.720624,-0.198915,-0.520769,0.092901,0.330422,0.020927,0.943601,1.699013,-0.004066,-0.229032,-103.170891,374.202148,-26.555740,,,,,,
1466451797.69,2.799133,-0.018923,-0.720616,-0.186146,-0.580132,0.058161,0.335745,0.018922,0.941763,1.700663,0.011718,-0.016348,-103.170891,374.202148,-26.555740,,,,,,
1466451797.70,2.792677,-0.017121,-0.720375,-0.174484,-0.666064,0.029971,0.341829,0.017120,0.939606,1.656081,0.008744,0.117019,-102.508369,374.531952,-24.383389,,,,,,
1466451797.71,2.785397,-0.015518,-0.719893,-0.164955,-0.750940,0.003902,0.348669,0.015517,0.937117,1.651437,0.014344,0.227800,-102.508369,374.531952,-24.383389,,,,,,
1466451797.72,2.777101,-0.014027,-0.719168,-0.165040,-0.859174,-0.020966,0.356440,0.014027,0.934213,1.645620,0.001659,0.317389,-102.508369,374.531952,-24.383389,,,,,,
1466451797.73,2.767405,-0.012660,-0.718227,-0.159852,-1.006699,-0.044518,0.365487,0.012660,0.930730,1.622428,0.013616,0.436884,-102.731941,374.786133,-18.925812,,,,,,
1466451797.74,2.756628,-0.011365,-0.717070,-0.166311,-1.096891,-0.065248,0.375502,0.011365,0.926752,1.579546,0.006930,0.595633,-102.731941,374.786133,-18.925812,,,,,,
1466451797.75,2.744892,-0.010130,-0.715630,-0.165335,-1.210431,-0.091146,0.386357,0.010130,0.922294,1.557765,0.019884,0.711907,-103.452255,374.741333,-15.596363,,,,,,
1466451797.76,2.730650,-0.009128,-0.714087,-0.152904,-1.515125,-0.107319,0.399457,0.009128,0.916707,1.531223,-0.002444,0.837032,-103.452255,374.741333,-15.596363,,,,,,
1466451797.77,2.712532,-0.008359,-0.712415,-0.128860,-1.903698,-0.126147,0.416002,0.008359,0.909325,1.418043,0.022082,1.039665,-103.452255,374.741333,-15.596363,,,,,,
1466451797.78,2.691726,-0.008211,-0.710759,-0.070545,-2.138318,-0.149099,0.434831,0.008211,0.900475,1.297637,0.057325,1.204628,-103.452255,374.741333,-15.596363,,,,,,
1466451797.79,2.668674,-0.008341,-0.709158,-0.055917,-2.361301,-0.148751,0.455471,0.008341,0.890212,1.173909,0.027349,1.252717,-105.861343,374.331970,-6.755886,,,,,,
1466451797.80,2.642906,-0.008708,-0.707794,-0.024382,-2.669269,-0.136143,0.478254,0.008708,0.878178,1.104464,0.009587,1.300044,-105.861343,374.331970,-6.755886,,,,,,
1466451797.81,2.613532,-0.009216,-0.706628,-0.007793,-3.006963,-0.122300,0.503838,0.009215,0.863749,0.943443,0.024476,1.390325,-105.861343,374.331970,-6.755886,,,,,,
1466451797.82,2.582673,-0.010009,-0.705698,0.028291,-3.100420,-0.121678,0.530244,0.010009,0.847786,0.865661,0.030061,1.479576,-107.128052,374.030518,-1.211884,,,,,,
1466451797.83,2.549930,-0.011181,-0.704876,0.062072,-3.355228,-0.134948,0.557707,0.011181,0.829963,0.852709,0.043277,1.494882,-107.128052,374.030518,-1.211884,,,,,,
1466451797.84,2.513793,-0.012851,-0.704235,0.111733,-3.691789,-0.153013,0.587317,0.012850,0.809255,0.781427,0.048887,1.551112,-107.128052,374.030518,-1.211884,,,,,,
1466451797.85,2.475149,-0.014856,-0.703766,0.131692,-3.917946,-0.157961,0.618127,0.014856,0.785938,0.658744,0.011099,1.596142,-108.377823,373.475525,12.123943,,,,,,
1466451797.86,2.434856,-0.016949,-0.703448,0.146442,-4.044304,-0.158218,0.649262,0.016948,0.760376,0.444748,0.003499,1.657944,-108.377823,373.475525,12.123943,,,,,,
1466451797.87,2.394289,-0.019134,-0.703410,0.159172,-4.063456,-0.146377,0.679539,0.019133,0.733390,0.341793,-0.016661,1.665673,-108.377823,373.475525,12.123943,,,,,,
1466451797.88,2.352770,-0.021046,-0.703383,0.128105,-4.190897,-0.130706,0.709367,0.021044,0.704525,0.308608,-0.030505,1.632297,-108.300980,373.176941,19.660732,,,,,,
1466451797.89,2.308879,-0.022944,-0.703570,0.151178,-4.460624,-0.122605,0.739566,0.022942,0.672693,0.248395,-0.020149,1.653585,-108.300980,373.176941,19.660732,,,,,,
1466451797.90,2.263420,-0.024638,-0.703754,0.112731,-4.545564,-0.116788,0.769340,0.024636,0.638365,0.144051,-0.045189,1.668032,-108.300980,373.176941,19.660732,,,,,,
1466451797.91,2.218797,-0.026227,-0.703853,0.109697,-4.419205,-0.118648,0.797018,0.026224,0.603386,0.018442,-0.032160,1.739326,-105.493668,372.769257,35.928680,,,,,,
1466451797.92,2.177075,-0.027756,-0.703894,0.080346,-4.056045,-0.124148,0.821458,0.027752,0.569594,-0.161668,-0.038968,1.769929,-105.493668,372.769257,35.928680,,,,,,
1466451797.93,2.139869,-0.029335,-0.703699,0.072419,-3.617461,-0.147131,0.842039,0.029331,0.538619,-0.235716,-0.029499,1.820939,-105.493668,372.769257,35.928680,,,,,,
1466451797.94,2.107221,-0.031137,-0.703614,0.090088,-3.133252,-0.162924,0.859125,0.031132,0.510818,-0.430261,-0.008076,1.828186,-102.927582,372.599152,44.186913,,,,,,
1466451797.95,2.080741,-0.033157,-0.703454,0.086682,-2.480195,-0.184054,0.872292,0.033151,0.487861,-0.567253,-0.014001,1.836709,-102.927582,372.599152,44.186913,,,,,,
1466451797.96,2.060391,-0.035361,-0.703392,0.102342,-1.897241,-0.199404,0.881972,0.035354,0.469975,-0.697569,-0.032714,1.771969,-100.727730,372.369568,50.710190,,,,,,
1466451797.97,2.044907,-0.037525,-0.703294,0.092242,-1.449175,-0.194773,0.889073,0.037516,0.456226,-0.772846,-0.029566,1.692318,-100.727730,372.369568,50.710190,,,,,,
1466451797.98,2.032290,-0.039842,-0.703488,0.131938,-1.209228,-0.196238,0.894678,0.039831,0.444933,-0.845117,-0.009024,1.631056,-100.727730,372.369568,50.710190,,,,,,
1466451797.99,2.021857,-0.042070,-0.703767,0.116224,-0.984153,-0.184892,0.899189,0.042058,0.435534,-0.956959,-0.032994,1.550931,-99.569733,371.815460,56.708305,,,,,,
1466451798.00,2.014122,-0.044189,-0.704114,0.131471,-0.686899,-0.170774,0.902448,0.044175,0.428527,-1.129911,-0.028962,1.468949,-99.569733,371.815460,56.708305,,,,,,
1466451798.01,2.010415,-0.046217,-0.704709,0.134095,-0.262232,-0.154275,0.903948,0.046200,0.425140,-1.285188,-0.012936,1.393677,-99.569733,371.815460,56.708305,,,,,,
1466451798.02,2.010805,-0.047958,-0.705230,0.121792,0.159233,-0.129255,0.903708,0.047940,0.425457,-1.451895,-0.006924,1.278720,-99.884659,371.593475,57.602364,,,,,,
1466451798.03,2.016379,-0.049615,-0.705999,0.142651,0.690075,-0.114467,0.901249,0.049595,0.430454,-1.583683,0.019604,1.211667,-99.884659,371.593475,57.602364,,,,,,
1466451798.04,2.027980,-0.051093,-0.706746,0.132780,1.346209,-0.095174,0.896128,0.051070,0.440847,-1.777430,0.006379,1.069224,-99.884659,371.593475,57.602364,,,,,,
1466451798.05,2.047904,-0.052564,-0.707711,0.155164,2.231713,-0.090061,0.887100,0.052540,0.458578,-1.907073,-0.016682,0.927546,-102.550125,371.380493,54.191322,,,,,,
1466451798.06,2.076090,-0.053947,-0.708481,0.122032,2.993021,-0.087418,0.873759,0.053921,0.483360,-1.911327,-0.051480,0.688927,-102.550125,371.380493,54.191322,,,,,,
1466451798.07,2.109406,-0.055208,-0.709016,0.109765,3.414537,-0.080494,0.857115,0.055180,0.512161,-1.860319,-0.076878,0.425751,-102.550125,371.380493,54.191322,,,,,,
1466451798.08,2.145030,-0.056234,-0.709549,0.092927,3.626812,-0.047779,0.838281,0.056204,0.542333,-1.842066,-0.085425,0.150690,-105.658234,371.346649,48.111206,,,,,,
1466451798.09,2.182970,-0.057021,-0.709977,0.075049,3.827461,-0.034153,0.817071,0.056990,0.573714,-1.733514,-0.085966,-0.088530,-105.658234,371.346649,48.111206,,,,,,
1466451798.10,2.220516,-0.057514,-0.710586,0.079101,3.722238,0.003766,0.794937,0.057482,0.603963,-1.665375,-0.079973,-0.332158,-105.658234,371.346649,48.111206,,,,,,
1466451798.11,2.257179,-0.057826,-0.711375,0.085352,3.661627,0.035022,0.772251,0.057794,0.632684,-1.587039,-0.075372,-0.576638,-105.658234,371.346649,48.111206,,,,,,
1466451798.12,2.294484,-0.057836,-0.712260,0.055620,3.766690,0.059880,0.748116,0.057803,0.661045,-1.487099,-0.076312,-0.797856,-112.068649,371.292755,30.967890,,,,,,
1466451798.13,2.331729,-0.057751,-0.713254,0.078899,3.684861,0.081705,0.722986,0.057719,0.688447,-1.258722,-0.059901,-1.041459,-112.068649,371.292755,30.967890,,,,,,
1466451798.14,2.367112,-0.057553,-0.714384,0.057365,3.513886,0.095530,0.698187,0.057522,0.713601,-1.113180,-0.076107,-1.247979,-113.731628,371.424011,22.045990,,,,,,
1466451798.15,2.402154,-0.057102,-0.715187,0.011600,3.511815,0.084852,0.672775,0.057071,0.737643,-0.899139,-0.098071,-1.406023,-113.731628,371.424011,22.045990,,,,,,
1466451798.16,2.437932,-0.056466,-0.715838,-0.012765,3.627534,0.094747,0.645982,0.056436,0.761264,-0.809892,-0.102685,-1.478702,-113.731628,371.424011,22.045990,,,,,,
1466451798.17,2.480376,-0.055210,-0.716107,-0.098978,4.556558,0.123961,0.613142,0.055182,0.788043,-0.838331,-0.074729,-1.461200,-114.374435,371.846100,5.066532,,,,,,
1466451798.18,2.530046,-0.053839,-0.716844,-0.075163,4.903695,0.144161,0.573303,0.053813,0.817575,-0.374450,-0.149776,-1.359109,-114.374435,371.846100,5.066532,,,,,,
1466451798.19,2.571296,-0.051892,-0.717475,-0.129731,3.858878,0.161304,0.539155,0.051868,0.840608,0.070662,-0.071079,-1.872895,-114.374435,371.846100,5.066532,,,,,,
1466451798.20,2.603351,-0.049848,-0.717802,-0.176454,3.048851,0.128017,0.511990,0.049827,0.857545,0.434817,-0.071052,-1.859833,-113.488419,372.119751,-4.896454,,,,,,
1466451798.21,2.635385,-0.047272,-0.717803,-0.234652,3.344050,0.130366,0.484322,0.047254,0.873613,0.348793,-0.041532,-1.721681,-113.488419,372.119751,-4.896454,,,,,,
1466451798.22,2.673498,-0.044135,-0.717722,-0.295700,3.930158,0.140467,0.450747,0.044120,0.891561,0.416379,-0.075615,-1.537297,-113.488419,372.119751,-4.896454,,,,,,
1466451798.23,2.710459,-0.040663,-0.717530,-0.322828,3.506541,0.132452,0.417556,0.040652,0.907741,0.876954,-0.041461,-1.591564,-109.699402,372.852325,-17.996780,,,,,,
1466451798.24,2.737612,-0.037252,-0.717563,-0.304975,2.470195,0.145356,0.392809,0.037244,0.918866,1.152815,-0.049374,-1.617810,-109.699402,372.852325,-17.996780,,,,,,
1466451798.25,2.757556,-0.034037,-0.717851,-0.277002,1.857512,0.152420,0.374449,0.034030,0.926623,1.357882,-0.061786,-1.477572,-109.699402,372.852325,-17.996780,,,,,,
1466451798.26,2.772022,-0.031162,-0.718428,-0.238323,1.303202,0.166579,0.361040,0.031157,0.932030,1.510161,-0.061507,-1.284599,-107.366394,373.280396,-22.603294,,,,,,
1466451798.27,2.779113,-0.028567,-0.719219,-0.201012,0.477124,0.163282,0.354450,0.028563,0.934639,1.716351,-0.066771,-1.134804,-107.366394,373.280396,-22.603294,,,,,,
1466451798.28,2.776749,-0.026505,-0.720340,-0.138311,-0.444590,0.182963,0.356678,0.026502,0.933851,1.834819,-0.055677,-0.998732,-107.366394,373.280396,-22.603294,,,,,,
1466451798.29,2.770415,-0.024861,-0.721640,-0.103350,-0.599605,0.174390,0.362601,0.024859,0.931613,1.729226,-0.035509,-0.675448,-103.995514,374.183624,-23.414021,,,,,,
1466451798.30,2.766512,-0.023154,-0.722299,-0.141237,-0.350942,0.106797,0.366250,0.023152,0.930229,1.750419,0.013606,-0.406104,-103.995514,374.183624,-23.414021,,,,,,
1466451798.31,2.761234,-0.021600,-0.722541,-0.134043,-0.617356,0.071219,0.371167,0.021599,0.928315,1.790713,0.013893,-0.396424,-103.995514,374.183624,-23.414021,,,,,,
1466451798.32,2.753659,-0.019947,-0.722495,-0.165070,-0.770181,0.050858,0.378202,0.019946,0.925508,1.772113,0.006803,-0.327516,-103.086784,374.552399,-21.454578,,,,,,
1466451798.33,2.746549,-0.018187,-0.722044,-0.181940,-0.684087,0.021561,0.384785,0.018186,0.922827,1.783733,0.007235,-0.128470,-103.086784,374.552399,-21.454578,,,,,,
1466451798.34,2.739942,-0.016353,-0.721342,-0.202111,-0.668097,0.002280,0.390886,0.016352,0.920294,1.771758,-0.010279,0.035608,-103.086784,374.552399,-21.454578,,,,,,
1466451798.35,2.732628,-0.014467,-0.720313,-0.213882,-0.765690,-0.029053,0.397618,0.014467,0.917437,1.781460,0.002730,0.225736,-102.954491,374.851929,-16.220589,,,,,,
1466451798.36,2.724409,-0.012746,-0.719042,-0.207530,-0.830401,-0.050994,0.405154,0.012746,0.914159,1.751477,0.022914,0.424525,-102.954491,374.851929,-16.220589,,,,,,
1466451798.37,2.715564,-0.011087,-0.717550,-0.212917,-0.916343,-0.072814,0.413232,0.011087,0.910558,1.739050,0.015143,0.582255,-102.954491,374.851929,-16.220589,,,,,,
1466451798.38,2.704102,-0.009472,-0.715833,-0.218610,-1.243320,-0.090994,0.423649,0.009472,0.905777,1.742611,-0.008053,0.684494,-103.434792,374.844177,-13.030682,,,,,,
1466451798.40,2.670036,-0.007466,-0.712428,-0.123559,-1.920695,-0.123906,0.454261,0.007466,0.890837,1.508019,0.046993,1.138063,-103.434792,374.844177,-13.030682,,,,,,
1466451798.39,2.688649,-0.008158,-0.714108,-0.181823,-1.645726,-0.101207,0.437600,0.008158,0.899133,1.664009,0.010901,0.886405,-103.434792,374.844177,-13.030682,,,,,,
1466451798.41,2.649530,-0.007322,-0.710827,-0.073688,-2.086311,-0.140913,0.472432,0.007322,0.881337,1.373332,0.042330,1.293620,-105.299171,374.524475,-4.494873,,,,,,
1466451798.42,2.626227,-0.007893,-0.709339,-0.004897,-2.450489,-0.158785,0.492838,0.007893,0.870085,1.352957,0.047283,1.348665,-105.299171,374.524475,-4.494873,,,,,,
1466451798.43,2.597835,-0.008958,-0.708127,0.043460,-2.953793,-0.160903,0.517335,0.008958,0.855736,1.247191,0.034651,1.380073,-105.299171,374.524475,-4.494873,,,,,,
1466451798.44,2.565204,-0.010438,-0.707179,0.082337,-3.363674,-0.156165,0.544970,0.010438,0.838391,1.177183,0.046676,1.438862,-106.480125,374.217010,0.554501,,,,,,
1466451798.45,2.528940,-0.011971,-0.706460,0.092541,-3.702420,-0.144450,0.574999,0.011971,0.818067,1.029433,0.019767,1.501040,-106.480125,374.217010,0.554501,,,,,,
1466451798.46,2.490030,-0.013773,-0.705905,0.114613,-3.949800,-0.154585,0.606372,0.013773,0.795062,0.801038,0.002722,1.611203,-106.480125,374.217010,0.554501,,,,,,
1466451798.47,2.449173,-0.015571,-0.705363,0.105881,-4.115446,-0.150362,0.638324,0.015570,0.769610,0.552350,-0.004889,1.715726,-107.772415,373.583527,14.040985,,,,,,
1466451798.48,2.408754,-0.017391,-0.704999,0.114534,-3.999727,-0.145757,0.668881,0.017390,0.743166,0.442783,-0.021159,1.723661,-107.772415,373.583527,14.040985,,,,,,
1466451798.49,2.369776,-0.019008,-0.704600,0.079539,-3.876559,-0.140177,0.697312,0.019007,0.716515,0.409270,-0.027658,1.686378,-107.772415,373.583527,14.040985,,,,,,
