timestamp,attitude_roll,attitude_pitch,attitude_yaw,rotation_rate_x,rotation_rate_y,rotation_rate_z,gravity_x,gravity_y,gravity_z,user_acc_x,user_acc_y,user_acc_z,magnetic_field_x,magnetic_field_y,magnetic_field_z,latitude(degree),longitude(degree),altitude(meter),speed(m/s),course(degree),timestamp
1465827689.50,-0.371257,-0.011416,1.257484,0.005347,-0.010978,-0.000477,-0.362764,0.011416,-0.931811,0.020234,0.004941,-0.002133,6.803307,248.731949,-179.970520,,,,,,
1465827689.51,-0.371332,-0.011450,1.257500,0.003199,-0.023721,0.000665,-0.362833,0.011450,-0.931784,0.009837,0.003290,0.003073,7.013042,248.760086,-179.923584,,,,,,
1465827689.52,-0.371008,-0.011432,1.257504,0.003226,-0.005662,-0.001577,-0.362531,0.011432,-0.931902,0.020887,0.000241,-0.004073,7.013042,248.760086,-179.923584,,,,,,
1465827689.53,-0.371017,-0.011378,1.257514,0.002134,-0.025837,-0.000387,-0.362540,0.011378,-0.931899,0.009268,-0.000300,-0.001222,7.013042,248.760086,-179.923584,,,,,,
1465827689.54,-0.370855,-0.011394,1.257528,0.004283,-0.009909,-0.000484,-0.362389,0.011394,-0.931957,0.017480,0.001973,0.000286,7.063919,248.761246,-179.919998,,,,,,
,,,,,,,,,,,,,,,,29.719964,-95.399051,10.198070,-1.000000,-1.000000,1465828759.88
1465827689.55,-0.370705,-0.011341,1.257532,0.001074,-0.021585,-0.000414,-0.362250,0.011340,-0.932012,0.014563,-0.001239,-0.005579,7.063919,248.761246,-179.919998,,,,,,
,,,,,,,,,,,,,,,,29.719964,-95.399051,10.198070,-1.000000,-1.000000,1465828759.88
1465827689.56,-0.370675,-0.011368,1.257548,0.002128,-0.029019,0.000698,-0.362222,0.011368,-0.932023,0.016259,0.001984,-0.002441,7.063919,248.761246,-179.919998,,,,,,
,,,,,,,,,,,,,,,,29.719964,-95.399051,10.198070,-1.000000,-1.000000,1465828759.88
1465827689.57,-0.370545,-0.011401,1.257565,0.001041,-0.046004,0.000803,-0.362100,0.011401,-0.932070,0.027337,0.001951,-0.003859,7.128212,248.747482,-179.936447,,,,,,
1465827689.58,-0.370728,-0.011384,1.257577,-0.001169,-0.110769,0.001207,-0.362271,0.011384,-0.932003,0.036389,-0.001252,-0.013752,7.128212,248.747482,-179.936447,,,,,,
1465827689.59,-0.371405,-0.011481,1.257609,-0.000178,-0.165983,0.003684,-0.362901,0.011481,-0.931757,0.044588,0.004251,-0.005575,7.128212,248.747482,-179.936447,,,,,,
1465827689.60,-0.372886,-0.011504,1.257644,-0.002416,-0.254104,0.003170,-0.364280,0.011503,-0.931218,0.041999,0.000170,-0.012294,7.126717,248.748108,-179.935638,,,,,,
1465827689.61,-0.375238,-0.011626,1.257690,-0.000355,-0.307194,0.004570,-0.366469,0.011626,-0.930358,0.033232,0.005006,-0.007249,7.126717,248.748108,-179.935638,,,,,,
1465827689.62,-0.378107,-0.011645,1.257724,-0.001447,-0.328427,0.004702,-0.369137,0.011645,-0.929302,0.020855,-0.000216,-0.003788,7.126717,248.748108,-179.935638,,,,,,
1465827689.63,-0.381255,-0.011684,1.257757,-0.003558,-0.315681,0.003556,-0.372060,0.011683,-0.928135,0.006139,-0.000407,0.000782,5.856586,248.780518,-179.936676,,,,,,
1465827689.64,-0.384298,-0.011692,1.257800,-0.000343,-0.295514,0.005561,-0.374882,0.011692,-0.926999,0.001286,-0.001041,0.004879,5.856586,248.780518,-179.936676,,,,,,
1465827689.65,-0.387155,-0.011683,1.257845,-0.002425,-0.258351,0.005326,-0.377530,0.011683,-0.925924,-0.006183,-0.002008,0.003316,5.856586,248.780518,-179.936676,,,,,,
1465827689.66,-0.389522,-0.011745,1.257891,-0.000236,-0.210572,0.005028,-0.379720,0.011745,-0.925027,-0.004557,0.001454,0.008477,4.764359,248.782852,-179.965668,,,,,,
1465827689.67,-0.391469,-0.011806,1.257928,0.000856,-0.190395,0.003839,-0.381520,0.011805,-0.924285,0.001606,0.002538,0.002120,4.764359,248.782852,-179.965668,,,,,,
1465827689.68,-0.393149,-0.011888,1.257966,0.000866,-0.181900,0.003786,-0.383072,0.011888,-0.923642,0.010773,0.003676,0.003033,4.764359,248.782852,-179.965668,,,,,,
1465827689.69,-0.394621,-0.011946,1.257988,-0.000204,-0.189324,0.001702,-0.384431,0.011946,-0.923077,0.022202,0.002214,-0.003117,3.227493,248.803329,-179.971512,,,,,,
1465827689.70,-0.396304,-0.011985,1.258018,-0.002403,-0.243474,0.003104,-0.385984,0.011984,-0.922428,0.032224,0.000711,-0.007275,3.227493,248.803329,-179.971512,,,,,,
1465827689.71,-0.398374,-0.012051,1.258065,-0.002494,-0.312491,0.005666,-0.387892,0.012051,-0.921626,0.046858,0.001209,-0.013005,3.227493,248.803329,-179.971512,,,,,,
1465827689.72,-0.401163,-0.012073,1.258130,-0.004780,-0.435654,0.007501,-0.390461,0.012073,-0.920540,0.065968,-0.002567,-0.018608,2.680717,248.815506,-179.963608,,,,,,
1465827689.73,-0.406869,-0.012172,1.258196,-0.006079,-0.619351,0.010781,-0.395706,0.012172,-0.918297,0.095917,0.001896,-0.030297,2.680717,248.815506,-179.963608,,,,,,
1465827689.74,-0.414889,-0.012323,1.258289,-0.011722,-0.868881,0.015533,-0.403058,0.012322,-0.915092,0.119870,-0.000634,-0.037515,2.680717,248.815506,-179.963608,,,,,,
1465827689.75,-0.425601,-0.012539,1.258400,-0.016321,-1.135400,0.020394,-0.412836,0.012538,-0.910719,0.130701,-0.000957,-0.041750,-0.568848,248.851700,-179.932663,,,,,,
,,,,,,,,,,,,,,,,29.719966,-95.399053,10.198070,-1.000000,-1.000000,1465828760.03
1465827689.76,-0.438801,-0.012816,1.258542,-0.020919,-1.400857,0.025247,-0.424819,0.012815,-0.905188,0.138701,0.000780,-0.037516,-0.568848,248.851700,-179.932663,,,,,,
1465827689.77,-0.455024,-0.013172,1.258708,-0.026618,-1.692861,0.031331,-0.439446,0.013172,-0.898172,0.147972,-0.001666,-0.041403,-0.568848,248.851700,-179.932663,,,,,,
,,,,,,,,,,,,,,,,29.719967,-95.399055,10.198070,-1.000000,-1.000000,1465828760.06
1465827689.78,-0.473913,-0.013603,1.258874,-0.032262,-1.945573,0.035039,-0.456330,0.013603,-0.889707,0.127976,0.000344,-0.033114,-4.762405,248.914825,-179.783157,,,,,,
1465827689.79,-0.494549,-0.014066,1.259046,-0.032460,-2.101661,0.037082,-0.474588,0.014066,-0.880096,0.107706,0.000262,-0.014512,-4.762405,248.914825,-179.783157,,,,,,
1465827689.80,-0.516587,-0.014579,1.259212,-0.037951,-2.231204,0.040018,-0.493863,0.014579,-0.869418,0.077069,-0.001105,-0.013944,-4.762405,248.914825,-179.783157,,,,,,
1465827689.81,-0.538742,-0.015101,1.259376,-0.036849,-2.200415,0.040890,-0.512998,0.015101,-0.858257,0.030149,0.001546,0.020962,-18.358055,249.156570,-178.569962,,,,,,
1465827689.82,-0.560721,-0.015619,1.259526,-0.035780,-2.198289,0.039814,-0.531732,0.015619,-0.846768,0.030405,-0.000360,0.005612,-18.358055,249.156570,-178.569962,,,,,,
1465827689.83,-0.582382,-0.016125,1.259672,-0.034663,-2.156880,0.039555,-0.549944,0.016124,-0.835046,0.019334,0.001621,0.025201,-18.358055,249.156570,-178.569962,,,,,,
1465827689.84,-0.603727,-0.016639,1.259790,-0.035679,-2.119713,0.038256,-0.567636,0.016638,-0.823112,0.013177,0.003427,0.011573,-26.015495,249.304688,-177.408066,,,,,,
1465827689.85,-0.624438,-0.017127,1.259910,-0.032410,-2.060254,0.037887,-0.584555,0.017126,-0.811173,0.008948,0.006128,0.021516,-26.015495,249.304688,-177.408066,,,,,,
,,,,,,,,,,,,,,,,29.719994,-95.399083,10.146534,-1.000000,-1.000000,1465828760.23
1465827689.86,-0.644230,-0.017597,1.260022,-0.031190,-1.938144,0.036058,-0.600490,0.017596,-0.799439,-0.023610,0.004529,0.025055,-26.015495,249.304688,-177.408066,,,,,,
1465827689.87,-0.662286,-0.018018,1.260123,-0.027784,-1.772498,0.032893,-0.614821,0.018017,-0.788461,-0.025956,0.002735,0.039208,-40.328972,249.592804,-174.299316,,,,,,
1465827689.88,-0.679757,-0.018434,1.260208,-0.027732,-1.731089,0.032634,-0.628497,0.018433,-0.777593,-0.000638,0.002013,0.005666,-40.328972,249.592804,-174.299316,,,,,,
1465827689.89,-0.696778,-0.018844,1.260278,-0.026618,-1.693923,0.031337,-0.641636,0.018843,-0.766778,0.006215,0.002123,0.012749,-46.327667,249.716263,-172.623260,,,,,,
1465827689.91,-0.727735,-0.019578,1.260392,-0.022043,-1.446517,0.026597,-0.665053,0.019576,-0.746540,-0.034990,0.004105,0.026981,-46.327667,249.716263,-172.623260,,,,,,
1465827689.90,-0.712934,-0.019235,1.260337,-0.024344,-1.580308,0.029563,-0.653935,0.019234,-0.756306,-0.015148,0.005379,0.019475,-46.327667,249.716263,-172.623260,,,,,,
1465827689.92,-0.740786,-0.019866,1.260437,-0.016454,-1.241580,0.021059,-0.674735,0.019865,-0.737793,-0.055047,0.004427,0.028061,-51.873581,249.837616,-170.861206,,,,,,
1465827689.93,-0.751701,-0.020122,1.260467,-0.016208,-1.047267,0.018776,-0.682744,0.020121,-0.730381,-0.059352,0.004125,0.033634,-51.873581,249.837616,-170.861206,,,,,,
1465827689.94,-0.760879,-0.020321,1.260497,-0.010660,-0.872066,0.015554,-0.689416,0.020319,-0.724080,-0.055396,0.003591,0.022420,-51.873581,249.837616,-170.861206,,,,,,
1465827689.95,-0.768396,-0.020492,1.260531,-0.010468,-0.719167,0.014596,-0.694837,0.020490,-0.718876,-0.044513,0.003771,0.026142,-59.787113,250.003036,-168.009613,,,,,,
1465827689.97,-0.781189,-0.020765,1.260589,-0.006062,-0.606611,0.010701,-0.703973,0.020764,-0.709923,0.000649,0.003635,0.007653,-59.787113,250.003036,-168.009613,,,,,,
1465827689.96,-0.775123,-0.020643,1.260552,-0.008219,-0.628907,0.010838,-0.699655,0.020642,-0.714183,-0.021659,0.001591,0.008098,-59.787113,250.003036,-168.009613,,,,,,
1465827689.98,-0.787378,-0.020892,1.260615,-0.007150,-0.625723,0.010819,-0.708351,0.020890,-0.705551,0.022209,0.002914,-0.005005,-62.108128,250.051559,-167.092957,,,,,,
1465827689.99,-0.794077,-0.021032,1.260623,-0.009358,-0.688368,0.011210,-0.713059,0.021031,-0.700788,0.039979,0.000316,-0.008822,-62.108128,250.051559,-167.092957,,,,,,
1465827690.00,-0.801112,-0.021219,1.260662,-0.006244,-0.749955,0.012664,-0.717968,0.021217,-0.695752,0.043164,0.003823,-0.015506,-62.108128,250.051559,-167.092957,,,,,,
1465827690.01,-0.808952,-0.021370,1.260683,-0.009498,-0.797734,0.012960,-0.723399,0.021368,-0.690100,0.040324,0.003214,-0.009821,-62.108128,250.051559,-167.092957,,,,,,
1465827690.02,-0.817047,-0.021537,1.260703,-0.009506,-0.804105,0.013000,-0.728959,0.021536,-0.684218,0.045884,0.003046,-0.015702,-66.307030,250.137283,-165.341980,,,,,,
1465827690.03,-0.824633,-0.021698,1.260709,-0.010487,-0.739331,0.011529,-0.734126,0.021696,-0.678667,-0.001882,0.003358,0.003892,-66.307030,250.137283,-165.341980,,,,,,
1465827690.04,-0.831375,-0.021817,1.260720,-0.007178,-0.651198,0.008850,-0.738682,0.021815,-0.673700,-0.013774,0.001058,0.009043,-66.307030,250.137283,-165.341980,,,,,,
1465827690.05,-0.837709,-0.021954,1.260726,-0.007078,-0.569445,0.009402,-0.742933,0.021953,-0.669005,-0.017046,0.001287,0.010497,-71.159332,250.230316,-163.169830,,,,,,
1465827690.06,-0.842831,-0.022065,1.260731,-0.006980,-0.492992,0.007858,-0.746348,0.022063,-0.665190,-0.014440,0.002657,0.007933,-71.159332,250.230316,-163.169830,,,,,,
1465827690.07,-0.847322,-0.022160,1.260730,-0.005841,-0.435652,0.006435,-0.749326,0.022158,-0.661830,-0.006762,0.004240,0.008236,-71.159332,250.230316,-163.169830,,,,,,
1465827690.08,-0.851397,-0.022239,1.260743,-0.003666,-0.399552,0.006211,-0.752016,0.022237,-0.658770,0.000078,0.005244,0.004168,-18.828133,248.523010,-187.612274,,,,,,
1465827690.09,-0.855159,-0.022433,1.260744,-0.004699,-0.375127,0.004993,-0.754486,0.022431,-0.655933,0.008575,0.004210,0.001438,-18.828133,248.523010,-187.612274,,,,,,
1465827690.10,-0.858938,-0.022495,1.260750,-0.004703,-0.378312,0.005013,-0.756958,0.022493,-0.653077,0.017273,0.003905,-0.004379,-20.399994,248.545578,-187.417892,,,,,,
1465827690.11,-0.862908,-0.022569,1.260751,-0.004739,-0.405922,0.006250,-0.759543,0.022567,-0.650066,0.025610,0.001939,-0.004765,-20.399994,248.545578,-187.417892,,,,,,
1465827690.12,-0.867265,-0.022656,1.260756,-0.004790,-0.446270,0.006503,-0.762367,0.022654,-0.646749,0.032829,0.000631,-0.012996,-20.399994,248.545578,-187.417892,,,,,,
1465827690.13,-0.871376,-0.022804,1.260786,-0.005918,-0.495111,0.007873,-0.765017,0.022802,-0.643607,0.037096,0.001887,-0.010690,-23.290016,248.601974,-187.005829,,,,,,
1465827690.14,-0.876753,-0.022916,1.260795,-0.007059,-0.552454,0.010361,-0.768464,0.022914,-0.639483,0.041184,0.001866,-0.014707,-23.290016,248.601974,-187.005829,,,,,,
1465827690.15,-0.882650,-0.023050,1.260800,-0.009252,-0.603419,0.010678,-0.772219,0.023048,-0.634938,0.042453,0.004799,-0.013515,-23.290016,248.601974,-187.005829,,,,,,
1465827690.16,-0.889163,-0.023191,1.260809,-0.008274,-0.670316,0.012163,-0.776336,0.023189,-0.629893,0.046096,0.003697,-0.012884,-25.007469,248.632965,-186.742645,,,,,,
1465827690.17,-0.896100,-0.023380,1.260830,-0.010510,-0.754198,0.013752,-0.780683,0.023378,-0.624489,0.055601,0.001723,-0.018348,-25.007469,248.632965,-186.742645,,,,,,
1465827690.18,-0.904456,-0.023558,1.260835,-0.010650,-0.863566,0.015502,-0.785871,0.023556,-0.617942,0.064252,0.003864,-0.019616,-25.007469,248.632965,-186.742645,,,,,,
1465827690.19,-0.913948,-0.023768,1.260835,-0.013986,-0.977178,0.016211,-0.791697,0.023766,-0.610451,0.068995,0.001289,-0.024650,-30.039154,248.716812,-185.887421,,,,,,
1465827690.20,-0.924433,-0.023992,1.260842,-0.011977,-1.069561,0.018921,-0.798050,0.023990,-0.602114,0.067017,0.001706,-0.020598,-30.039154,248.716812,-185.887421,,,,,,
1465827690.21,-0.935650,-0.024247,1.260835,-0.016322,-1.136456,0.020401,-0.804748,0.024245,-0.593121,0.053527,0.002229,-0.018619,-30.039154,248.716812,-185.887421,,,,,,
1465827690.22,-0.947091,-0.024502,1.260836,-0.013140,-1.146013,0.020464,-0.811476,0.024499,-0.583871,0.035430,0.001944,-0.010809,-33.659195,248.775986,-185.186676,,,,,,
1465827690.24,-0.969539,-0.025030,1.260809,-0.017345,-1.103539,0.020194,-0.824367,0.025028,-0.565503,0.015483,0.004803,-0.002475,-33.659195,248.775986,-185.186676,,,,,,
1465827690.23,-0.958442,-0.024771,1.260828,-0.017378,-1.130084,0.020360,-0.818046,0.024769,-0.574619,0.021278,0.002011,-0.006909,-33.659195,248.775986,-185.186676,,,,,,
1465827690.25,-0.980747,-0.025293,1.260784,-0.016313,-1.127964,0.021412,-0.830648,0.025290,-0.556224,0.028325,0.007852,-0.005177,-41.766541,248.923767,-183.327744,,,,,,
1465827690.26,-0.991840,-0.025545,1.260751,-0.016268,-1.097163,0.018026,-0.836761,0.025542,-0.546973,0.019821,0.003968,-0.007608,-41.766541,248.923767,-183.327744,,,,,,
1465827690.27,-1.002278,-0.025797,1.260727,-0.015117,-1.024966,0.019703,-0.842419,0.025794,-0.538205,0.000576,0.003595,0.003064,-41.766541,248.923767,-183.327744,,,,,,
1465827690.28,-1.012243,-0.026017,1.260713,-0.012941,-0.990984,0.017363,-0.847736,0.026014,-0.529781,0.004566,0.002153,-0.001103,-45.744492,249.002274,-182.268616,,,,,,
1465827690.29,-1.022039,-0.026250,1.260686,-0.013990,-0.977183,0.018340,-0.852879,0.026247,-0.521448,0.013280,0.001448,-0.005377,-45.744492,249.002274,-182.268616,,,,,,
1465827690.30,-1.031679,-0.026485,1.260666,-0.012900,-0.957009,0.018215,-0.857861,0.026482,-0.513199,0.014844,0.002861,-0.007309,-45.744492,249.002274,-182.268616,,,,,,
1465827690.31,-1.040800,-0.026678,1.260650,-0.011754,-0.895419,0.015701,-0.862502,0.026675,-0.505350,0.003920,0.004102,0.002390,-45.744492,249.002274,-182.268616,,,,,,
1465827690.32,-1.049704,-0.026885,1.260628,-0.011758,-0.897546,0.016778,-0.866962,0.026881,-0.497648,0.016346,0.004445,-0.002016,-52.777344,249.142731,-180.163788,,,,,,
1465827690.33,-1.059218,-0.027107,1.260593,-0.013985,-0.972936,0.018313,-0.871653,0.027104,-0.489374,0.046137,0.004680,-0.016180,-52.777344,249.142731,-180.163788,,,,,,
1465827690.34,-1.069817,-0.027340,1.260567,-0.015196,-1.089733,0.019045,-0.876785,0.027336,-0.480105,0.063263,0.001381,-0.025342,-52.777344,249.142731,-180.163788,,,,,,
1465827690.36,-1.094021,-0.027914,1.260456,-0.020876,-1.286609,0.023506,-0.888133,0.027910,-0.458738,0.067912,-0.000460,-0.022967,-59.432953,249.273056,-177.896606,,,,,,
1465827690.35,-1.081427,-0.027618,1.260519,-0.018616,-1.182553,0.022856,-0.882293,0.027614,-0.469890,0.065841,0.000904,-0.029179,-59.432953,249.273056,-177.896606,,,,,,
1465827690.37,-1.107879,-0.028236,1.260390,-0.019981,-1.420399,0.025411,-0.894397,0.028232,-0.446382,0.078525,0.000942,-0.032958,-59.432953,249.273056,-177.896606,,,,,,
1465827690.38,-1.123250,-0.028598,1.260308,-0.024445,-1.580735,0.028541,-0.901143,0.028594,-0.432578,0.089833,-0.000015,-0.033227,-63.605774,249.366104,-176.316193,,,,,,
1465827690.39,-1.140306,-0.028990,1.260214,-0.025720,-1.745320,0.031701,-0.908379,0.028986,-0.417141,0.096032,-0.000772,-0.038547,-63.605774,249.366104,-176.316193,,,,,,
1465827690.41,-1.179306,-0.029910,1.259926,-0.033569,-2.054312,0.037888,-0.923928,0.029905,-0.381396,0.093743,0.001329,-0.037229,-68.592880,249.478973,-174.275085,,,,,,
1465827690.40,-1.159083,-0.029432,1.260088,-0.031271,-1.921585,0.035994,-0.916040,0.029428,-0.400007,0.103753,0.003028,-0.037692,-68.592880,249.478973,-174.275085,,,,,,
1465827690.42,-1.201473,-0.030413,1.259758,-0.035983,-2.277296,0.041413,-0.932140,0.030409,-0.360818,0.114849,0.004610,-0.033393,-68.592880,249.478973,-174.275085,,,,,,
1465827690.44,-1.251190,-0.031557,1.259341,-0.042816,-2.623454,0.048900,-0.948887,0.031552,-0.314036,0.117374,0.004703,-0.030782,-81.625702,249.797745,-168.091858,,,,,,
1465827690.43,-1.225411,-0.030970,1.259568,-0.038308,-2.427020,0.046608,-0.940494,0.030965,-0.338397,0.108493,0.002452,-0.041745,-81.625702,249.797745,-168.091858,,,,,,
1465827690.45,-1.278528,-0.032206,1.259039,-0.046219,-2.784856,0.053102,-0.957096,0.032200,-0.287975,0.104588,-0.000050,-0.036854,-81.625702,249.797745,-168.091858,,,,,,
1465827690.47,-1.344376,-0.033661,1.258334,-0.056791,-3.558931,0.067526,-0.973924,0.033655,-0.224364,0.147325,0.001624,-0.012865,-89.637863,250.007019,-163.640106,,,,,,
1465827690.46,-1.309499,-0.032886,1.258737,-0.051021,-3.209589,0.061083,-0.965533,0.032880,-0.258195,0.179233,0.006808,-0.057418,-89.637863,250.007019,-163.640106,,,,,,
1465827690.48,-1.381347,-0.034477,1.257880,-0.062347,-3.740502,0.070788,-0.981524,0.034471,-0.188206,0.160068,0.008117,0.011174,-89.637863,250.007019,-163.640106,,,,,,
1465827690.49,-1.421151,-0.035315,1.257366,-0.067031,-4.072856,0.077126,-0.988207,0.035308,-0.148994,0.198199,-0.002532,-0.021309,-89.637863,250.007019,-163.640106,,,,,,
1465827690.50,-1.464899,-0.036232,1.256760,-0.072847,-4.455120,0.085904,-0.993746,0.036224,-0.105630,0.169466,0.001419,0.023339,-109.462059,250.590088,-150.130630,,,,,,
1465827690.51,-1.511131,-0.037179,1.256052,-0.080587,-4.682344,0.088386,-0.997531,0.037171,-0.059588,0.180194,0.004745,0.025088,-109.462059,250.590088,-150.130630,,,,,,
1465827690.52,-1.560517,-0.038161,1.255239,-0.087401,-5.013638,0.095779,-0.999219,0.038152,-0.010271,0.166715,0.002330,0.025820,-109.462059,250.590088,-150.130630,,,,,,
1465827690.53,-1.612369,-0.039164,1.254383,-0.084485,-5.224956,0.103494,-0.998370,0.039154,0.041529,0.152285,0.000015,0.070775,-133.535034,251.422394,-127.560616,,,,,,
1465827690.54,-1.666341,-0.040151,1.253413,-0.089039,-5.460674,0.104968,-0.994637,0.040140,0.095322,0.173088,0.007925,0.047637,-133.535034,251.422394,-127.560616,,,,,,
1465827690.55,-1.723175,-0.041129,1.252320,-0.099005,-5.761168,0.110036,-0.987577,0.041118,0.151661,0.240110,0.010076,0.060452,-133.535034,251.422394,-127.560616,,,,,,
1465827690.56,-1.784423,-0.042123,1.251080,-0.106007,-6.228396,0.126797,-0.976402,0.042110,0.211818,0.249259,-0.004101,0.058690,-145.711365,251.920074,-112.343277,,,,,,
1465827690.57,-1.849854,-0.043077,1.249681,-0.111847,-6.640373,0.129375,-0.960424,0.043064,0.275194,0.243551,0.005963,0.096266,-145.711365,251.920074,-112.343277,,,,,,
1465827690.58,-1.919130,-0.043963,1.248162,-0.119747,-6.998193,0.130547,-0.939035,0.043949,0.341002,0.145929,0.018002,0.146379,-145.711365,251.920074,-112.343277,,,,,,
1465827690.59,-1.989200,-0.044736,1.246500,-0.123985,-6.976964,0.133603,-0.912825,0.044721,0.405896,0.044233,0.014331,0.168659,-167.805359,253.086426,-71.450394,,,,,,
1465827690.60,-2.057497,-0.045405,1.244833,-0.123705,-6.757165,0.130096,-0.882970,0.045390,0.467230,0.050923,0.011495,0.212655,-167.805359,253.086426,-71.450394,,,,,,
1465827690.61,-2.125176,-0.045932,1.243133,-0.119478,-6.780529,0.131311,-0.849330,0.045916,0.525861,0.077068,0.005246,0.138721,-167.805359,253.086426,-71.450394,,,,,,
1465827690.62,-2.193636,-0.046424,1.241430,-0.115315,-6.850623,0.136012,-0.811350,0.046407,0.582716,0.136988,0.007838,0.168398,-175.332153,253.691025,-47.074791,,,,,,
1465827690.63,-2.263739,-0.046779,1.239612,-0.119879,-7.082114,0.144911,-0.768528,0.046762,0.638105,0.211125,0.000311,0.119647,-175.332153,253.691025,-47.074791,,,,,,
1465827690.64,-2.338404,-0.047032,1.237661,-0.130106,-7.588601,0.152335,-0.718778,0.047015,0.693648,0.308363,0.002790,0.142091,-175.332153,253.691025,-47.074791,,,,,,
1465827690.65,-2.418891,-0.047116,1.235555,-0.140469,-8.201273,0.162554,-0.660679,0.047099,0.749189,0.371968,0.007772,0.153124,-179.949188,254.786133,4.340698,,,,,,
1465827690.66,-2.506275,-0.046996,1.233251,-0.160512,-8.886152,0.176409,-0.592778,0.046979,0.803995,0.389333,-0.000119,0.189612,-179.949188,254.786133,4.340698,,,,,,
1465827690.67,-2.600702,-0.046628,1.230790,-0.166796,-9.641109,0.187524,-0.514340,0.046611,0.856319,0.445264,0.009724,0.243520,-179.949188,254.786133,4.340698,,,,,,
1465827690.68,-2.702935,-0.045947,1.228176,-0.190099,-10.379076,0.201709,-0.424276,0.045931,0.904367,0.405676,0.006193,0.319067,-175.802719,255.315628,34.983826,,,,,,
1465827690.69,-2.811155,-0.044964,1.225466,-0.190818,-10.936548,0.214785,-0.324129,0.044949,0.944945,0.411943,0.009449,0.403047,-175.802719,255.315628,34.983826,,,,,,
1465827690.70,-2.924469,-0.043565,1.222779,-0.215931,-11.420742,0.226312,-0.215217,0.043551,0.975595,0.311638,0.001646,0.475638,-175.802719,255.315628,34.983826,,,,,,
1465827690.71,-3.040909,-0.041835,1.220144,-0.205629,-11.686215,0.234374,-0.100425,0.041823,0.994065,0.261283,0.019517,0.529937,-144.071518,256.109039,104.728714,,,,,,
1465827690.72,3.124645,-0.039758,1.217761,-0.222752,-11.757344,0.233739,0.016933,0.039748,0.999066,0.151066,0.003801,0.599170,-144.071518,256.109039,104.728714,,,,,,
1465827690.73,3.008468,-0.037519,1.215598,-0.200105,-11.528007,0.232323,0.132639,0.037510,0.990454,0.052771,0.023098,0.636895,-114.579849,256.188934,136.217590,,,,,,
1465827690.74,2.895273,-0.035069,1.213852,-0.207163,-11.234908,0.216640,0.243686,0.035062,0.969220,-0.018329,0.021335,0.602984,-114.579849,256.188934,136.217590,,,,,,
1465827690.75,2.786649,-0.032567,1.212385,-0.195868,-10.718877,0.213415,0.347354,0.032562,0.937169,-0.125109,0.022324,0.625469,-114.579849,256.188934,136.217590,,,,,,
1465827690.77,2.590880,-0.027689,1.210532,-0.167181,-9.108069,0.178858,0.523094,0.027686,0.851825,-0.313774,0.023263,0.580029,-79.367783,256.011200,159.610687,,,,,,
1465827690.76,2.684301,-0.030077,1.211316,-0.182201,-10.038218,0.191064,0.441320,0.030072,0.896846,-0.204183,0.020755,0.563161,-79.367783,256.011200,159.610687,,,,,,
1465827690.78,2.506709,-0.025464,1.210069,-0.157435,-8.157710,0.154812,0.592891,0.025461,0.804880,-0.368022,0.021780,0.457998,-79.367783,256.011200,159.610687,,,,,,
1465827690.80,2.372995,-0.021934,1.209681,-0.119272,-5.789829,0.111260,0.694960,0.021932,0.718713,-0.464827,0.013163,0.351706,-10.767570,255.134964,179.183548,,,,,,
1465827690.79,2.434008,-0.023634,1.209757,-0.113337,-6.976969,0.133613,0.649818,0.023632,0.759722,-0.450371,0.021259,0.479109,-10.767570,255.134964,179.183548,,,,,,
1465827690.81,2.323974,-0.020663,1.209647,-0.081577,-4.620765,0.090128,0.729363,0.020661,0.683814,-0.503518,0.028884,0.321984,-10.767570,255.134964,179.183548,,,,,,
1465827690.82,2.286829,-0.019650,1.209722,-0.066156,-3.392214,0.063278,0.754270,0.019649,0.656270,-0.540861,0.018071,0.272670,13.911491,254.691238,179.597839,,,,,,
1465827690.83,2.263175,-0.019052,1.209737,-0.032465,-2.022461,0.038754,0.769590,0.019051,0.638254,-0.568220,0.024925,0.251883,13.911491,254.691238,179.597839,,,,,,
1465827690.84,2.252702,-0.018780,1.209746,-0.012705,-0.724903,0.014669,0.776236,0.018779,0.630162,-0.574973,0.021306,0.224437,13.911491,254.691238,179.597839,,,,,,
1465827690.85,2.255519,-0.018870,1.209739,0.013513,0.623626,-0.012922,0.774457,0.018869,0.632346,-0.561535,0.020270,0.205759,13.911491,254.691238,179.597839,,,,,,
1465827690.86,2.271404,-0.019328,1.209693,0.038570,1.897824,-0.037920,0.764307,0.019327,0.644562,-0.540308,0.017264,0.210968,35.976189,254.244858,177.149109,,,,,,
1465827690.87,2.299407,-0.020100,1.209639,0.061404,3.099818,-0.061402,0.745949,0.020098,0.665700,-0.478203,0.017072,0.198711,35.976189,254.244858,177.149109,,,,,,
1465827690.88,2.338444,-0.021197,1.209558,0.085105,4.151023,-0.079680,0.719384,0.021195,0.694289,-0.407861,0.018325,0.212022,32.558998,254.327393,177.690826,,,,,,
1465827690.89,2.387185,-0.022555,1.209558,0.102318,5.119416,-0.099574,0.684683,0.022553,0.728492,-0.355261,0.017562,0.226479,32.558998,254.327393,177.690826,,,,,,
1465827690.90,2.445110,-0.024165,1.209674,0.115158,5.995439,-0.119958,0.641337,0.024162,0.766879,-0.308359,0.010872,0.249188,32.558998,254.327393,177.690826,,,,,,
1465827690.92,2.587410,-0.027972,1.210342,0.153561,7.712423,-0.155170,0.526042,0.027968,0.849998,-0.185359,0.015504,0.329872,0.571587,255.001053,179.696075,,,,,,
1465827690.91,2.511927,-0.025908,1.209943,0.123791,6.925592,-0.132170,0.588677,0.025905,0.807953,-0.290138,0.018223,0.310928,0.571587,255.001053,179.696075,,,,,,
1465827690.93,2.668918,-0.030068,1.210997,0.151098,8.290053,-0.161989,0.455063,0.030063,0.889951,-0.119935,0.011105,0.346209,0.571587,255.001053,179.696075,,,,,,
1465827690.94,2.756100,-0.032286,1.211857,0.169912,8.845390,-0.173968,0.375820,0.032281,0.926130,-0.051754,0.014549,0.389101,-25.572090,255.448624,177.224731,,,,,,
1465827690.96,2.939830,-0.036619,1.214319,0.169419,9.292424,-0.182095,0.200263,0.036611,0.979058,0.122415,0.006510,0.373710,-25.572090,255.448624,177.224731,,,,,,
1465827690.95,2.847169,-0.034471,1.212994,0.173506,9.155450,-0.181232,0.290016,0.034464,0.956401,0.056053,0.016561,0.375707,-25.572090,255.448624,177.224731,,,,,,
1465827690.97,3.033138,-0.038596,1.215857,0.176889,9.306224,-0.182174,0.108161,0.038586,0.993384,0.228493,0.010898,0.367852,-86.592392,256.166748,155.553513,,,,,,
1465827690.98,3.123961,-0.040425,1.217563,0.165834,8.981318,-0.180147,0.017617,0.040414,0.999028,0.297523,0.000953,0.304561,-86.592392,256.166748,155.553513,,,,,,
1465827690.99,-3.071837,-0.042023,1.219356,0.167522,8.640457,-0.170557,-0.069638,0.042011,0.996687,0.332303,0.013134,0.283876,-86.592392,256.166748,155.553513,,,,,,
1465827691.00,-2.988710,-0.043359,1.221153,0.146690,8.169013,-0.162298,-0.152145,0.043345,0.987407,0.385879,0.000478,0.233693,-114.439941,256.301453,136.123489,,,,,,
1465827691.02,-2.842763,-0.045383,1.224602,0.126777,6.752528,-0.135339,-0.294099,0.045368,0.954698,0.466965,-0.003665,0.112731,-114.439941,256.301453,136.123489,,,,,,
1465827691.01,-2.912241,-0.044486,1.222933,0.142583,7.453340,-0.150363,-0.227121,0.044471,0.972851,0.423182,0.002343,0.162419,-114.439941,256.301453,136.123489,,,,,,
1465827691.03,-2.781814,-0.046069,1.226129,0.109654,5.851037,-0.119058,-0.351694,0.046053,0.934982,0.494837,-0.001939,0.043122,-152.439468,256.135498,92.050789,,,,,,
1465827691.04,-2.730756,-0.046549,1.227427,0.090248,4.834857,-0.096737,-0.398944,0.046532,0.915794,0.516482,-0.004708,-0.027778,-152.439468,256.135498,92.050789,,,,,,
1465827691.05,-2.689959,-0.046911,1.228472,0.068727,3.831420,-0.074499,-0.435956,0.046894,0.898745,0.491727,-0.008869,-0.063220,-152.439468,256.135498,92.050789,,,,,,
1465827691.06,-2.659267,-0.047148,1.229272,0.053565,2.798258,-0.055261,-0.463325,0.047130,0.884934,0.489097,-0.001446,-0.117203,-162.306641,255.954575,73.894119,,,,,,
1465827691.07,-2.639506,-0.047283,1.229805,0.031914,1.687585,-0.034479,-0.480718,0.047265,0.875600,0.508611,-0.007287,-0.143575,-162.306641,255.954575,73.894119,,,,,,
1465827691.08,-2.631382,-0.047378,1.230050,0.015512,0.521687,-0.010152,-0.487813,0.047360,0.871663,0.498448,-0.007749,-0.178685,-162.306641,255.954575,73.894119,,,,,,
1465827691.09,-2.634345,-0.047352,1.229977,-0.010367,-0.563504,0.011530,-0.485228,0.047335,0.873105,0.479537,-0.007723,-0.176008,-169.311218,255.751038,56.935524,,,,,,
1465827691.11,-2.672712,-0.047154,1.229051,-0.043972,-2.695661,0.051480,-0.451386,0.047136,0.891083,0.430466,-0.003801,-0.160950,-169.311218,255.751038,56.935524,,,,,,
1465827691.10,-2.648228,-0.047294,1.229646,-0.025611,-1.659315,0.032225,-0.473062,0.047276,0.879760,0.461496,-0.005620,-0.179671,-169.311218,255.751038,56.935524,,,,,,
1465827691.12,-2.706304,-0.046894,1.228205,-0.064245,-3.561052,0.068596,-0.421209,0.046877,0.905751,0.377126,-0.005999,-0.114476,-168.248535,255.788300,59.844093,,,,,,
1465827691.13,-2.748230,-0.046552,1.227168,-0.075962,-4.396715,0.084470,-0.382881,0.046535,0.922625,0.358039,-0.000392,-0.087664,-168.248535,255.788300,59.844093,,,,,,
1465827691.14,-2.798223,-0.046081,1.225914,-0.091894,-5.190976,0.104338,-0.336305,0.046065,0.940626,0.342225,-0.003905,-0.046720,-168.248535,255.788300,59.844093,,,,,,
1465827691.15,-2.855638,-0.045460,1.224539,-0.107694,-5.894958,0.114059,-0.281782,0.045444,0.958402,0.304029,-0.000354,0.000171,-156.637650,256.072601,84.900040,,,,,,
1465827691.17,-2.987567,-0.043677,1.221489,-0.127148,-6.947242,0.137671,-0.153271,0.043663,0.987219,0.210232,0.008064,0.103754,-156.637650,256.072601,84.900040,,,,,,
1465827691.16,-2.919069,-0.044664,1.223041,-0.115895,-6.474728,0.128332,-0.220472,0.044649,0.974371,0.261670,0.003904,0.047007,-156.637650,256.072601,84.900040,,,,,,
1465827691.18,-3.059536,-0.042566,1.219943,-0.129697,-7.278530,0.141875,-0.081890,0.042553,0.995732,0.183788,0.004352,0.154826,-144.636841,256.224609,103.661423,,,,,,
,,,,,,,,,,,,,,,,29.719998,-95.399075,10.294725,-1.000000,-1.000000,1465828761.58
1465827691.19,-3.134417,-0.041268,1.218440,-0.137460,-7.522746,0.145527,-0.007170,0.041256,0.999123,0.116850,0.002063,0.185905,-127.969406,256.309479,123.473907,,,,,,
1465827691.20,3.073547,-0.039860,1.216994,-0.134245,-7.505759,0.145424,0.067939,0.039850,0.996893,0.033516,0.013220,0.244257,-127.969406,256.309479,123.473907,,,,,,
1465827691.21,2.998997,-0.038379,1.215687,-0.136272,-7.426120,0.143858,0.142009,0.038369,0.989121,0.005483,0.007606,0.256820,-127.969406,256.309479,123.473907,,,,,,
1465827691.23,2.855005,-0.035283,1.213498,-0.127101,-6.913259,0.135329,0.282505,0.035276,0.958617,-0.122959,0.016711,0.281404,-107.282974,256.292084,141.849457,,,,,,
1465827691.22,2.925404,-0.036867,1.214507,-0.124426,-7.318883,0.143197,0.214363,0.036859,0.976058,-0.044045,0.012946,0.273362,-107.282974,256.292084,141.849457,,,,,,
1465827691.24,2.789344,-0.033772,1.212640,-0.114799,-6.450307,0.128180,0.344813,0.033765,0.938064,-0.175623,0.013827,0.296494,-107.282974,256.292084,141.849457,,,,,,
1465827691.25,2.729123,-0.032317,1.211969,-0.103390,-5.859921,0.113844,0.400664,0.032311,0.915655,-0.225386,0.017005,0.278162,-107.282974,256.292084,141.849457,,,,,,
1465827691.26,2.675105,-0.031004,1.211443,-0.099383,-5.227062,0.100299,0.449536,0.030999,0.892724,-0.283734,0.013053,0.254996,-107.282974,256.292084,141.849457,,,,,,
1465827691.27,2.629301,-0.029848,1.211051,-0.071665,-4.364865,0.085339,0.489958,0.029843,0.871235,-0.333403,0.018146,0.264217,-41.589600,255.736923,173.739700,,,,,,
1465827691.28,2.591843,-0.028911,1.210762,-0.068474,-3.535570,0.069497,0.522256,0.028907,0.852299,-0.355370,0.016381,0.224193,-41.589600,255.736923,173.739700,,,,,,
1465827691.29,2.562644,-0.028175,1.210545,-0.045061,-2.712655,0.053714,0.546927,0.028171,0.836706,-0.358099,0.014203,0.194147,-26.572067,255.529129,176.961365,,,,,,
1465827691.30,2.542242,-0.027641,1.210428,-0.033244,-1.800537,0.035232,0.563891,0.027638,0.825387,-0.391787,0.015758,0.178046,-26.572067,255.529129,176.961365,,,,,,
1465827691.31,2.531405,-0.027379,1.210345,-0.012870,-0.856569,0.016559,0.572806,0.027376,0.819233,-0.391700,0.016615,0.174800,-26.572067,255.529129,176.961365,,,,,,
1465827691.32,2.529258,-0.027339,1.210331,0.002070,0.000331,-0.000509,0.574565,0.027335,0.818002,-0.377666,0.013634,0.139838,-17.513893,255.393372,178.280731,,,,,,
1465827691.33,2.535825,-0.027535,1.210347,0.019155,0.872092,-0.016604,0.569178,0.027532,0.821753,-0.370539,0.015010,0.143289,-17.513893,255.393372,178.280731,,,,,,
1465827691.35,2.574087,-0.028587,1.210555,0.048951,2.518998,-0.050321,0.537311,0.028583,0.842900,-0.335041,0.013668,0.140850,-15.133316,255.362976,178.542084,,,,,,
1465827691.34,2.550869,-0.027951,1.210423,0.035141,1.712005,-0.034629,0.556745,0.027947,0.830213,-0.356702,0.014442,0.132830,-15.133316,255.362976,178.542084,,,,,,
1465827691.36,2.604489,-0.029421,1.210770,0.063583,3.201248,-0.066259,0.511428,0.029417,0.858823,-0.276824,0.010928,0.130023,-15.133316,255.362976,178.542084,,,,,,
1465827691.38,2.684499,-0.031518,1.211436,0.087593,4.495613,-0.088190,0.441123,0.031513,0.896893,-0.232840,0.014233,0.156695,-28.876289,255.597977,176.500366,,,,,,
1465827691.37,2.641227,-0.030391,1.211057,0.072895,3.826660,-0.075494,0.479525,0.030386,0.877002,-0.245058,0.008875,0.134625,-28.876289,255.597977,176.500366,,,,,,
1465827691.39,2.733691,-0.032779,1.211924,0.094688,5.045646,-0.100149,0.396471,0.032773,0.917462,-0.182451,0.010119,0.169284,-28.876289,255.597977,176.500366,,,,,,
1465827691.40,2.787481,-0.034103,1.212542,0.104807,5.465068,-0.108091,0.346555,0.034096,0.937410,-0.110502,0.011070,0.169707,-28.876289,255.597977,176.500366,,,,,,
1465827691.41,2.844196,-0.035499,1.213258,0.106235,5.750698,-0.112010,0.292847,0.035491,0.955500,-0.059571,0.010621,0.157125,-28.876289,255.597977,176.500366,,,,,,
1465827691.42,2.903556,-0.036891,1.214089,0.115041,5.973684,-0.117658,0.235635,0.036883,0.971142,-0.005807,0.004758,0.180439,-61.343121,256.031708,167.335953,,,,,,
1465827691.43,2.964509,-0.038230,1.215039,0.109906,6.121284,-0.120717,0.176031,0.038221,0.983642,0.036722,0.006808,0.168183,-61.343121,256.031708,167.335953,,,,,,
1465827691.44,3.025470,-0.039544,1.216048,0.115155,6.064999,-0.118230,0.115771,0.039533,0.992489,0.102491,0.005770,0.158375,-80.854683,256.230164,158.509216,,,,,,
1465827691.45,3.084742,-0.040782,1.217141,0.113839,5.861139,-0.119082,0.056772,0.040770,0.997554,0.174429,0.005021,0.127827,-80.854683,256.230164,158.509216,,,,,,
1465827691.46,-3.141170,-0.041865,1.218252,0.107215,5.676383,-0.115801,-0.000422,0.041852,0.999124,0.184672,0.003253,0.113837,-80.854683,256.230164,158.509216,,,,,,
1465827691.47,-3.086647,-0.042893,1.219372,0.099350,5.357829,-0.107424,-0.054867,0.042879,0.997573,0.234967,0.005109,0.094438,-117.051193,256.413818,133.669434,,,,,,
1465827691.48,-3.035896,-0.043773,1.220434,0.097769,4.956451,-0.098522,-0.105399,0.043759,0.993467,0.255790,-0.002499,0.071490,-117.051193,256.413818,133.669434,,,,,,
1465827691.49,-2.990860,-0.044504,1.221429,0.080028,4.404302,-0.088690,-0.150013,0.044489,0.987683,0.305836,0.001028,0.022602,-117.051193,256.413818,133.669434,,,,,,
1465827691.50,-2.951478,-0.045143,1.222334,0.076018,3.770378,-0.074074,-0.188779,0.045128,0.980982,0.324323,-0.001778,-0.009928,-130.942276,256.412903,120.096191,,,,,,
1465827691.51,-2.917804,-0.045602,1.223124,0.059356,3.229911,-0.064314,-0.221695,0.045586,0.974050,0.302978,0.000907,-0.026739,-130.942276,256.412903,120.096191,,,,,,
1465827691.53,-2.870728,-0.046252,1.224266,0.036238,1.804933,-0.037304,-0.267279,0.046235,0.962509,0.333441,-0.003877,-0.087998,-141.004517,256.371643,108.202835,,,,,,
1465827691.52,-2.890604,-0.046005,1.223775,0.048875,2.530159,-0.049291,-0.248099,0.045989,0.967642,0.321357,-0.003112,-0.052451,-141.004517,256.371643,108.202835,,,,,,
1465827691.54,-2.858257,-0.046432,1.224581,0.020376,1.059526,-0.022001,-0.279258,0.046415,0.959094,0.330070,-0.004499,-0.106005,-141.004517,256.371643,108.202835,,,,,,
1465827691.56,-2.856049,-0.046505,1.224654,-0.006065,-0.463145,0.008811,-0.281375,0.046488,0.958471,0.321536,-0.003702,-0.128775,-141.004517,256.371643,108.202835,,,,,,
1465827691.55,-2.853293,-0.046514,1.224715,0.008761,0.304561,-0.006633,-0.284015,0.046498,0.957692,0.329120,-0.003788,-0.115788,-141.004517,256.371643,108.202835,,,,,,
1465827691.57,-2.866028,-0.046396,1.224441,-0.019743,-1.170319,0.020684,-0.271798,0.046379,0.961236,0.300652,-0.001748,-0.121026,-151.134796,256.278137,93.788765,,,,,,
1465827691.58,-2.882775,-0.046225,1.224053,-0.031244,-1.831849,0.036530,-0.255665,0.046208,0.965661,0.269977,-0.002598,-0.112786,-151.134796,256.278137,93.788765,,,,,,
1465827691.59,-2.905475,-0.045945,1.223533,-0.041566,-2.411606,0.046543,-0.233683,0.045929,0.971227,0.239649,0.000290,-0.093160,-148.446732,256.312225,97.898705,,,,,,
1465827691.60,-2.933762,-0.045573,1.222884,-0.053977,-2.957387,0.057404,-0.206123,0.045557,0.977465,0.215156,-0.000696,-0.077425,-148.446732,256.312225,97.898705,,,,,,
1465827691.61,-2.967062,-0.045117,1.222122,-0.059927,-3.444772,0.067906,-0.173469,0.045101,0.983806,0.189247,-0.001171,-0.054012,-148.446732,256.312225,97.898705,,,,,,
1465827691.62,-3.004495,-0.044566,1.221296,-0.068939,-3.832337,0.074586,-0.136532,0.044551,0.989633,0.154324,0.001317,-0.029184,-143.011719,256.363800,105.554733,,,,,,
1465827691.63,-3.046179,-0.043943,1.220413,-0.074833,-4.280427,0.081648,-0.095177,0.043929,0.994491,0.157021,0.000138,-0.011504,-143.011719,256.363800,105.554733,,,,,,
1465827691.64,-3.091539,-0.043183,1.219475,-0.084830,-4.602163,0.088978,-0.049986,0.043170,0.997817,0.119123,0.002683,0.010423,-143.011719,256.363800,105.554733,,,,,,
1465827691.65,-3.139177,-0.042346,1.218536,-0.086135,-4.786928,0.094393,-0.002414,0.042334,0.999101,0.077502,0.002176,0.043548,-123.827805,256.446838,127.350815,,,,,,
1465827691.66,3.095926,-0.041443,1.217593,-0.087238,-4.814539,0.096694,0.045612,0.041431,0.998100,0.009091,0.005352,0.084984,-123.827805,256.446838,127.350815,,,,,,
1465827691.67,3.047363,-0.040562,1.216709,-0.084078,-4.843207,0.095813,0.094013,0.040550,0.994745,-0.009296,0.010078,0.093131,-110.598595,256.434326,139.017670,,,,,,
1465827691.68,2.999450,-0.039574,1.215875,-0.087187,-4.778430,0.093275,0.141553,0.039563,0.989140,-0.045728,0.004489,0.115597,-110.598595,256.434326,139.017670,,,,,,
1465827691.69,2.951792,-0.038617,1.215117,-0.082865,-4.731707,0.090857,0.188523,0.038607,0.981310,-0.040803,0.008283,0.113020,-110.598595,256.434326,139.017670,,,,,,
1465827691.70,2.906302,-0.037651,1.214407,-0.076159,-4.482180,0.087170,0.232961,0.037642,0.971757,-0.108739,0.008317,0.140044,-110.598595,256.434326,139.017670,,,,,,
1465827691.71,2.864019,-0.036697,1.213821,-0.076761,-4.123273,0.078532,0.273838,0.036689,0.961076,-0.154438,0.008019,0.140014,-110.598595,256.434326,139.017670,,,,,,
1465827691.72,2.825781,-0.035844,1.213297,-0.064538,-3.720847,0.072827,0.310389,0.035837,0.949934,-0.195414,0.008963,0.154390,-81.412292,256.295837,158.117126,,,,,,
1465827691.73,2.791845,-0.035041,1.212864,-0.060786,-3.284432,0.064771,0.342451,0.035033,0.938882,-0.200712,0.010011,0.138281,-68.023331,256.180359,164.502228,,,,,,
1465827691.74,2.763129,-0.034366,1.212517,-0.047295,-2.726972,0.053837,0.369275,0.034360,0.928685,-0.244092,0.012668,0.140468,-68.023331,256.180359,164.502228,,,,,,
1465827691.75,2.739748,-0.033810,1.212254,-0.039180,-2.213040,0.042106,0.390893,0.033803,0.919815,-0.244577,0.012843,0.139969,-68.023331,256.180359,164.502228,,,,,,
1465827691.76,2.721339,-0.033391,1.212049,-0.027885,-1.703368,0.034663,0.407764,0.033385,0.912477,-0.234867,0.011293,0.109725,-68.023331,256.180359,164.502228,,,,,,
1465827691.77,2.709067,-0.033114,1.211920,-0.016410,-1.062013,0.018944,0.418936,0.033108,0.907412,-0.271749,0.010944,0.107587,-49.962368,255.992020,171.138489,,,,,,
1465827691.78,2.703296,-0.033011,1.211857,-0.002813,-0.419608,0.007477,0.424167,0.033005,0.904983,-0.290072,0.011261,0.116059,-49.962368,255.992020,171.138489,,,,,,
1465827691.80,2.711217,-0.033268,1.211926,0.019099,0.893878,-0.017770,0.416981,0.033262,0.908306,-0.257038,0.009722,0.109699,-46.781826,255.962555,172.078995,,,,,,
1465827691.79,2.703878,-0.033057,1.211856,0.005468,0.224928,-0.006137,0.423639,0.033051,0.905228,-0.281946,0.013137,0.104507,-46.781826,255.962555,172.078995,,,,,,
1465827691.81,2.724204,-0.033598,1.212064,0.026170,1.424799,-0.029608,0.405146,0.033592,0.913635,-0.215403,0.009423,0.088593,-46.781826,255.962555,172.078995,,,,,,
1465827691.82,2.742189,-0.034046,1.212253,0.036379,1.917482,-0.036946,0.388644,0.034039,0.920759,-0.189715,0.009937,0.095568,-46.781826,255.962555,172.078995,,,,,,
1465827691.83,2.764291,-0.034624,1.212499,0.045383,2.293377,-0.046746,0.368192,0.034617,0.929105,-0.157896,0.007329,0.072726,-53.631527,256.057404,169.925888,,,,,,
1465827691.84,2.789895,-0.035282,1.212825,0.052212,2.636351,-0.054212,0.344278,0.035275,0.938205,-0.159753,0.009372,0.098614,-53.631527,256.057404,169.925888,,,,,,
1465827691.85,2.819447,-0.036037,1.213195,0.061267,3.055774,-0.062156,0.316397,0.036030,0.947942,-0.124014,0.007290,0.098185,-53.631527,256.057404,169.925888,,,,,,
1465827691.86,2.852236,-0.036836,1.213627,0.063746,3.330785,-0.066007,0.285142,0.036827,0.957777,-0.089494,0.005241,0.084840,-61.917149,256.158966,166.929291,,,,,,
1465827691.88,2.924498,-0.038522,1.214664,0.072829,3.773567,-0.074097,0.215233,0.038512,0.975803,-0.030175,0.003312,0.084790,-61.917149,256.158966,166.929291,,,,,,
1465827691.87,2.887141,-0.037665,1.214119,0.068283,3.547400,-0.070554,0.251537,0.037656,0.967115,-0.073711,0.006274,0.094180,-61.917149,256.158966,166.929291,,,,,,
1465827691.89,2.962845,-0.039362,1.215282,0.069728,3.842595,-0.077726,0.177660,0.039352,0.983305,0.008192,0.005005,0.072222,-84.386681,256.383301,156.406631,,,,,,
1465827691.91,3.038966,-0.041019,1.216571,0.073822,3.716230,-0.073736,0.102360,0.041007,0.993902,0.091670,0.002129,0.032084,-84.386681,256.383301,156.406631,,,,,,
1465827691.90,3.001313,-0.040200,1.215914,0.071856,3.844712,-0.075609,0.139707,0.040189,0.989377,0.054537,0.005527,0.060077,-84.386681,256.383301,156.406631,,,,,,
1465827691.92,3.074644,-0.041749,1.217224,0.063999,3.527228,-0.070432,0.066840,0.041737,0.996890,0.080468,0.000530,0.033200,-96.510269,256.463470,149.093246,,,,,,
1465827691.94,3.141356,-0.043094,1.218515,0.062485,3.172578,-0.066080,0.000237,0.043081,0.999072,0.124336,0.001216,0.005384,-96.510269,256.463470,149.093246,,,,,,
1465827691.93,3.109255,-0.042432,1.217876,0.067061,3.427408,-0.066610,0.032303,0.042419,0.998578,0.107041,0.005173,0.026554,-96.510269,256.463470,149.093246,,,,,,
1465827691.95,-3.112004,-0.043649,1.219119,0.054703,2.921976,-0.057065,-0.029556,0.043635,0.998610,0.112259,0.001012,-0.000365,-117.029068,256.547272,133.432526,,,,,,
1465827691.96,-3.084436,-0.044154,1.219697,0.052280,2.691560,-0.053494,-0.057069,0.044139,0.997394,0.150591,-0.000133,-0.009723,-117.029068,256.547272,133.432526,,,,,,
1465827691.98,-3.041972,-0.044941,1.220606,0.035109,1.755023,-0.034864,-0.099356,0.044926,0.994037,0.198813,-0.002232,-0.058063,-124.770729,256.550049,126.217560,,,,,,
1465827691.97,-3.060589,-0.044613,1.220198,0.046399,2.257268,-0.044389,-0.080835,0.044598,0.995729,0.199380,-0.000286,-0.055940,-124.770729,256.550049,126.217560,,,,,,
1465827691.99,-3.027584,-0.045181,1.220925,0.024981,1.327109,-0.027932,-0.113645,0.045166,0.992494,0.199934,-0.001937,-0.065126,-124.770729,256.550049,126.217560,,,,,,
1465827692.00,-3.018135,-0.045353,1.221150,0.016865,0.809995,-0.017246,-0.123018,0.045337,0.991368,0.218370,-0.004703,-0.080709,-124.770729,256.550049,126.217560,,,,,,
1465827692.01,-3.014219,-0.045436,1.221243,0.007628,0.250406,-0.005230,-0.126899,0.045420,0.990875,0.217719,-0.003290,-0.089859,-133.182831,256.538940,117.331375,,,,,,
1465827692.02,-3.031943,-0.045686,1.220479,-0.002611,-0.261493,0.004359,-0.109316,0.045670,0.992957,0.197008,-0.002061,-0.086005,-133.182831,256.538940,117.331375,,,,,,
1465827692.03,-3.038510,-0.045599,1.220347,-0.012869,-0.790283,0.014052,-0.102794,0.045583,0.993658,0.187190,-0.002950,-0.090414,-133.182831,256.538940,117.331375,,,,,,
1465827692.04,-3.050153,-0.045435,1.220108,-0.019884,-1.277667,0.024552,-0.091218,0.045419,0.994795,0.160554,-0.001032,-0.071668,-131.373398,256.662048,119.088844,,,,,,
1465827692.05,-3.065867,-0.045200,1.219785,-0.027829,-1.662051,0.032277,-0.075576,0.045184,0.996116,0.122802,-0.001026,-0.053382,-131.373398,256.662048,119.088844,,,,,,
1465827692.06,-3.084978,-0.044895,1.219399,-0.035700,-1.990153,0.037521,-0.056528,0.044880,0.997392,0.120920,0.000484,-0.042756,-131.373398,256.662048,119.088844,,,,,,
1465827692.07,-3.107843,-0.044534,1.218945,-0.040439,-2.363921,0.045182,-0.033709,0.044519,0.998440,0.102389,-0.001062,-0.036068,-124.617020,256.683655,126.097763,,,,,,
1465827692.08,-3.133448,-0.044095,1.218445,-0.046067,-2.601770,0.049862,-0.008137,0.044080,0.998995,0.047764,0.002764,-0.007814,-124.617020,256.683655,126.097763,,,,,,
1465827692.09,3.123081,-0.043630,1.217928,-0.046172,-2.682473,0.052497,0.018493,0.043617,0.998877,0.016023,0.002251,0.014840,-124.617020,256.683655,126.097763,,,,,,
1465827692.10,3.095469,-0.043118,1.217404,-0.049500,-2.785472,0.055268,0.046064,0.043105,0.998008,0.008760,0.003541,0.016350,-118.123672,256.688812,132.189972,,,,,,
1465827692.11,3.066750,-0.042594,1.216881,-0.050695,-2.889529,0.055920,0.074705,0.042581,0.996296,-0.003950,0.003089,0.022197,-118.123672,256.688812,132.189972,,,,,,
1465827692.12,3.037796,-0.042051,1.216374,-0.048569,-2.892715,0.055942,0.103519,0.042038,0.993739,-0.036899,0.002777,0.039388,-118.123672,256.688812,132.189972,,,,,,
1465827692.13,3.009097,-0.041481,1.215869,-0.051726,-2.860862,0.056803,0.131995,0.041469,0.990383,-0.037116,0.002919,0.042576,-102.047981,256.657806,145.015564,,,,,,
1465827692.14,2.980378,-0.040893,1.215396,-0.050677,-2.876784,0.054775,0.160383,0.040882,0.986208,-0.025404,0.005429,0.039702,-102.047981,256.657806,145.015564,,,,,,
1465827692.15,2.951639,-0.040299,1.214945,-0.050650,-2.855548,0.054642,0.188660,0.040288,0.981216,-0.065903,0.007274,0.049271,-102.047981,256.657806,145.015564,,,,,,
1465827692.16,2.924409,-0.039739,1.214531,-0.046170,-2.682469,0.051432,0.215310,0.039729,0.975737,-0.104348,0.007497,0.070756,-93.268936,256.616577,150.881973,,,,,,
1465827692.17,2.899073,-0.039192,1.214162,-0.043783,-2.480722,0.048040,0.239965,0.039182,0.969990,-0.128469,0.004931,0.069988,-93.268936,256.616577,150.881973,,,,,,
1465827692.18,2.876234,-0.038709,1.213843,-0.038103,-2.203583,0.042050,0.262059,0.038699,0.964276,-0.159794,0.005430,0.079868,-93.268936,256.616577,150.881973,,,,,,
1465827692.19,2.856574,-0.038294,1.213588,-0.031309,-1.890337,0.033706,0.280969,0.038284,0.958953,-0.162714,0.007050,0.076799,-76.557068,256.503571,160.192001,,,,,,
1465827692.20,2.840324,-0.037952,1.213383,-0.026626,-1.555864,0.029484,0.296519,0.037943,0.954273,-0.193385,0.007879,0.078839,-76.557068,256.503571,160.192001,,,,,,
1465827692.21,2.827820,-0.037682,1.213224,-0.018650,-1.149180,0.020554,0.308430,0.037674,0.950501,-0.197682,0.006867,0.082825,-76.557068,256.503571,160.192001,,,,,,
1465827692.22,2.819162,-0.037521,1.213113,-0.008591,-0.775418,0.013963,0.316649,0.037512,0.947801,-0.188338,0.008554,0.073104,-70.589081,256.455017,162.986328,,,,,,
1465827692.23,2.813969,-0.037425,1.213054,-0.006020,-0.432443,0.006492,0.321568,0.037416,0.946147,-0.183324,0.006544,0.068105,-70.589081,256.455017,162.986328,,,,,,
1465827692.24,2.825816,-0.037923,1.213540,0.001903,-0.066033,-0.000057,0.310331,0.037913,0.949872,-0.165709,0.007100,0.064456,-70.589081,256.455017,162.986328,,,,,,
1465827692.25,2.827727,-0.037991,1.213575,0.005537,0.275881,-0.007520,0.308515,0.037982,0.950461,-0.161573,0.006040,0.059854,-68.252342,256.432709,164.013458,,,,,,
1465827692.26,2.844068,-0.038573,1.214071,0.012365,0.619976,-0.012865,0.292937,0.038564,0.955354,-0.143034,0.006862,0.058181,-68.252342,256.432709,164.013458,,,,,,
1465827692.27,2.852589,-0.038801,1.214185,0.020209,0.924721,-0.019027,0.284783,0.038791,0.957807,-0.132119,0.003704,0.053576,-68.252342,256.432709,164.013458,,,,,,
1465827692.28,2.864170,-0.039083,1.214344,0.023803,1.236901,-0.025239,0.273669,0.039073,0.961030,-0.121676,0.006261,0.054488,-71.409973,256.458893,162.622238,,,,,,
1465827692.29,2.878652,-0.039441,1.214554,0.030548,1.514040,-0.031228,0.259719,0.039431,0.964879,-0.109572,0.004210,0.054393,-71.409973,256.458893,162.622238,,,,,,
1465827692.30,2.895788,-0.039862,1.214808,0.035113,1.752953,-0.035915,0.243143,0.039852,0.969171,-0.086771,0.005299,0.049399,-71.409973,256.458893,162.622238,,,,,,
1465827692.31,2.915227,-0.040239,1.215182,0.026971,2.034367,-0.049397,0.224256,0.040228,0.973700,-0.178388,0.004892,0.038904,-79.980789,256.546631,158.440628,,,,,,
1465827692.32,2.943753,-0.040878,1.215603,0.067820,3.197015,-0.054519,0.196387,0.040867,0.979674,-0.436774,0.016415,0.247895,-79.980789,256.546631,158.440628,,,,,,
1465827692.33,2.981611,-0.041621,1.216069,0.046278,3.848973,-0.058629,0.159162,0.041609,0.986375,-0.114942,0.007982,0.124144,-79.980789,256.546631,158.440628,,,,,,
1465827692.34,3.012840,-0.042466,1.216659,0.113023,2.700126,-0.072647,0.128281,0.042454,0.990829,0.524963,-0.018085,-0.112350,-87.731384,256.590576,154.210953,,,,,,
1465827692.35,3.030879,-0.042607,1.216936,-0.037334,1.730667,-0.027332,0.110387,0.042594,0.992976,0.205821,0.006508,-0.141779,-87.731384,256.590576,154.210953,,,,,,
1465827692.36,3.046673,-0.043226,1.217250,0.080460,1.398299,-0.037903,0.094688,0.043212,0.994569,0.386955,-0.014144,-0.061326,-87.731384,256.590576,154.210953,,,,,,
1465827692.37,3.051991,-0.043159,1.217342,-0.011586,0.267937,-0.006391,0.089399,0.043145,0.995061,0.276080,-0.020776,-0.121129,-103.578194,256.712555,143.828903,,,,,,
1465827692.39,3.044910,-0.043195,1.217250,0.005177,-0.779044,0.012965,0.096442,0.043182,0.994401,0.221093,-0.018066,-0.027956,-103.578194,256.712555,143.828903,,,,,,
1465827692.38,3.050820,-0.043229,1.217333,-0.006853,-0.195026,0.001839,0.090563,0.043216,0.994953,0.278318,0.016828,-0.141986,-103.578194,256.712555,143.828903,,,,,,
1465827692.40,3.032909,-0.042890,1.217050,-0.035922,-1.278089,0.022440,0.108370,0.042876,0.993186,0.144819,0.005204,-0.098731,-104.194542,256.703339,143.399582,,,,,,
1465827692.41,3.018857,-0.042686,1.216812,-0.016998,-1.463925,0.027883,0.122316,0.042673,0.991573,0.114866,-0.006769,-0.009747,-104.194542,256.703339,143.399582,,,,,,
1465827692.42,3.001579,-0.042291,1.216529,-0.037654,-1.795212,0.035262,0.139431,0.042279,0.989329,0.069110,0.004306,-0.052851,-101.529633,256.691071,145.320236,,,,,,
1465827692.43,2.983048,-0.041977,1.216221,-0.029219,-1.861048,0.035683,0.157742,0.041964,0.986588,0.031772,-0.003588,0.021728,-101.529633,256.691071,145.320236,,,,,,
1465827692.44,2.964390,-0.041589,1.215940,-0.029203,-1.850427,0.034552,0.176124,0.041577,0.983490,-0.034370,0.002627,0.013642,-101.529633,256.691071,145.320236,,,,,,
1465827692.45,2.947204,-0.041250,1.215677,-0.031090,-1.660358,0.031229,0.193002,0.041238,0.980331,-0.076700,0.009772,0.037613,-101.529633,256.691071,145.320236,,,,,,
1465827692.46,2.932016,-0.041007,1.215450,-0.017017,-1.480911,0.026925,0.207871,0.040996,0.977297,-0.098908,-0.003764,0.060286,-91.010239,256.646515,152.204590,,,,,,
1465827692.47,2.919038,-0.040758,1.215246,-0.015615,-1.215455,0.023132,0.220538,0.040747,0.974527,-0.138370,0.009165,0.044989,-91.010239,256.646515,152.204590,,,,,,
1465827692.48,2.909425,-0.040585,1.215103,-0.016255,-0.883099,0.016789,0.229898,0.040573,0.972368,-0.137903,0.000213,0.060163,-91.010239,256.646515,152.204590,,,,,,
1465827692.49,2.902324,-0.040494,1.215001,-0.003182,-0.655865,0.010055,0.236798,0.040483,0.970715,-0.123089,0.009993,0.038989,-82.248062,256.609314,157.173340,,,,,,
1465827692.50,2.897779,-0.040409,1.214937,-0.006032,-0.382977,0.007276,0.241208,0.040398,0.969632,-0.135296,-0.002374,0.059497,-82.248062,256.609314,157.173340,,,,,,
1465827692.51,2.896071,-0.040379,1.214900,-0.000348,-0.100532,0.002317,0.242864,0.040368,0.969220,-0.127568,0.015647,0.035892,-82.248062,256.609314,157.173340,,,,,,
1465827692.52,2.897015,-0.040434,1.214902,0.006366,0.152186,-0.003519,0.241949,0.040423,0.969447,-0.115316,-0.005190,0.052053,-80.361160,256.605103,158.153244,,,,,,
1465827692.54,2.906002,-0.040699,1.215036,0.018697,0.633197,-0.013974,0.233225,0.040687,0.971571,-0.104379,-0.003822,0.042925,-80.361160,256.605103,158.153244,,,,,,
1465827692.53,2.900281,-0.040524,1.214949,0.007729,0.384729,-0.008169,0.238781,0.040513,0.970228,-0.116329,0.010863,0.040133,-80.361160,256.605103,158.153244,,,,,,
1465827692.55,2.913848,-0.040882,1.215151,0.014688,0.830697,-0.016281,0.225593,0.040870,0.973364,-0.095008,0.009469,0.034311,-81.700096,256.632385,157.421280,,,,,,
1465827692.57,2.934907,-0.041365,1.215483,0.021475,1.140755,-0.023542,0.205041,0.041353,0.977879,-0.053262,0.002211,0.029414,-81.700096,256.632385,157.421280,,,,,,
1465827692.56,2.923713,-0.041124,1.215306,0.021338,1.034569,-0.020747,0.215977,0.041112,0.975533,-0.076084,0.002909,0.035835,-81.700096,256.632385,157.421280,,,,,,
1465827692.58,2.947111,-0.041631,1.215680,0.021611,1.246938,-0.025272,0.193090,0.041619,0.980298,-0.037756,0.003624,0.018573,-84.564926,256.657928,155.858963,,,,,,
1465827692.59,2.960150,-0.041942,1.215898,0.027024,1.314897,-0.027822,0.180290,0.041929,0.982719,-0.022713,-0.001570,0.027840,-84.564926,256.657928,155.858963,,,,,,
1465827692.60,2.973838,-0.042250,1.216120,0.026026,1.370109,-0.027104,0.166820,0.042238,0.985082,-0.017910,0.003249,0.014811,-84.564926,256.657928,155.858963,,,,,,
1465827692.61,2.987562,-0.042594,1.216350,0.030280,1.362680,-0.029182,0.153283,0.042581,0.987264,0.006141,-0.000193,0.011728,-92.516800,256.713959,151.179138,,,,,,
1465827692.62,3.000962,-0.042901,1.216577,0.027042,1.330822,-0.026857,0.140038,0.042888,0.989217,0.024497,0.000645,-0.000417,-92.516800,256.713959,151.179138,,,,,,
1465827692.63,3.013667,-0.043187,1.216795,0.024801,1.241631,-0.026300,0.127458,0.043173,0.990904,0.043226,0.002084,-0.000242,-92.516800,256.713959,151.179138,,,,,,
1465827692.64,3.024737,-0.043456,1.216981,0.024617,1.100401,-0.022221,0.116480,0.043442,0.992243,0.056647,-0.000397,-0.015527,-96.719376,256.747772,148.467117,,,,,,
1465827692.65,3.034828,-0.043707,1.217165,0.020206,0.980417,-0.020408,0.106461,0.043693,0.993356,0.052978,-0.003761,-0.012308,-96.719376,256.747772,148.467117,,,,,,
1465827692.66,3.043962,-0.043917,1.217340,0.019021,0.888035,-0.017701,0.097382,0.043902,0.994278,0.052139,0.004270,-0.010620,-96.719376,256.747772,148.467117,,,,,,
1465827692.67,3.051900,-0.044099,1.217489,0.017792,0.758492,-0.015826,0.089486,0.044085,0.995012,0.047050,-0.003908,-0.012636,-103.227402,256.794189,143.935379,,,,,,
1465827692.68,3.058307,-0.044315,1.217596,0.012341,0.661860,-0.012032,0.083108,0.044301,0.995555,0.039970,0.005001,-0.021022,-103.227402,256.794189,143.935379,,,,,,
1465827692.69,3.064348,-0.044475,1.217722,0.014373,0.581168,-0.013652,0.077091,0.044460,0.996032,0.031536,-0.005016,-0.006485,-103.227402,256.794189,143.935379,,,,,,
1465827692.70,3.069513,-0.044605,1.217834,0.013197,0.494098,-0.012043,0.071946,0.044591,0.996411,0.029022,0.000774,-0.013181,-105.353996,256.817322,142.344467,,,,,,
1465827692.71,3.073790,-0.044690,1.217929,0.006690,0.402780,-0.009348,0.067683,0.044675,0.996706,0.027440,-0.001325,-0.012240,-105.353996,256.817322,142.344467,,,,,,
1465827692.72,3.074901,-0.044689,1.217915,0.007631,0.304019,-0.008727,0.066576,0.044674,0.996781,0.030363,-0.001736,-0.013214,-107.007294,256.828125,141.086121,,,,,,
1465827692.73,3.077051,-0.044756,1.217955,0.005344,0.185087,-0.003726,0.064432,0.044741,0.996919,0.032690,0.003767,-0.020509,-107.007294,256.828125,141.086121,,,,,,
1465827692.74,3.075570,-0.044629,1.217864,0.004124,0.065084,-0.000845,0.065909,0.044614,0.996828,0.031839,-0.002897,-0.015794,-107.007294,256.828125,141.086121,,,,,,
1465827692.75,3.075319,-0.044643,1.217866,0.002910,-0.053837,-0.000101,0.066159,0.044628,0.996811,0.027865,0.001698,-0.022186,-107.867798,256.827820,140.429916,,,,,,
1465827692.76,3.071921,-0.044556,1.217759,-0.000423,-0.162154,0.001640,0.069546,0.044541,0.996584,0.026645,-0.001786,-0.012529,-107.867798,256.827820,140.429916,,,,,,
1465827692.77,3.069480,-0.044532,1.217723,-0.002691,-0.269401,0.004439,0.071979,0.044517,0.996412,0.019162,-0.000084,-0.017210,-107.867798,256.827820,140.429916,,,,,,
1465827692.78,3.065158,-0.044578,1.217628,-0.003861,-0.352229,0.006022,0.076284,0.044563,0.996090,0.010142,0.000695,-0.013927,-107.326981,256.830322,140.839050,,,,,,
1465827692.79,3.061207,-0.044533,1.217558,-0.004995,-0.405322,0.007418,0.080219,0.044518,0.995783,-0.000156,0.001777,-0.010263,-107.326981,256.830322,140.839050,,,,,,
1465827692.80,3.056874,-0.044471,1.217481,-0.005043,-0.442488,0.008716,0.084534,0.044456,0.995428,-0.010834,0.001183,-0.002753,-107.326981,256.830322,140.839050,,,,,,
1465827692.81,3.052275,-0.044402,1.217404,-0.006130,-0.461597,0.007770,0.089111,0.044388,0.995032,-0.019211,0.003387,-0.003028,-105.124657,256.851410,142.452454,,,,,,
1465827692.82,3.048688,-0.044215,1.217380,-0.005072,-0.469021,0.006753,0.092680,0.044200,0.994714,-0.021650,-0.001781,0.003531,-105.124657,256.851410,142.452454,,,,,,
1465827692.83,3.043952,-0.044141,1.217308,-0.006147,-0.475394,0.007856,0.097391,0.044126,0.994268,-0.024637,0.003969,-0.001439,-103.923790,256.829163,143.370728,,,,,,
1465827692.84,3.039023,-0.044081,1.217223,-0.005114,-0.498757,0.009068,0.102290,0.044067,0.993778,-0.022777,-0.000762,0.000912,-103.923790,256.829163,143.370728,,,,,,
1465827692.85,3.034698,-0.044206,1.217172,-0.006212,-0.524238,0.010291,0.106587,0.044191,0.993321,-0.020649,0.003325,-0.004185,-103.923790,256.829163,143.370728,,,,,,
1465827692.86,3.030143,-0.044058,1.217112,-0.007298,-0.541221,0.010397,0.111111,0.044044,0.992832,-0.019772,-0.001182,-0.000598,-103.923790,256.829163,143.370728,,,,,,
1465827692.88,3.019871,-0.043949,1.216978,-0.007358,-0.588996,0.010696,0.121304,0.043935,0.991643,-0.016476,0.000743,-0.000065,-101.176132,256.839630,145.304291,,,,,,
1465827692.87,3.025189,-0.043998,1.217057,-0.007335,-0.570948,0.010583,0.116029,0.043984,0.992271,-0.018296,0.000572,0.001121,-101.176132,256.839630,145.304291,,,,,,
1465827692.89,3.013982,-0.043878,1.216890,-0.012727,-0.624034,0.011975,0.127142,0.043864,0.990914,-0.011588,0.001195,0.000922,-101.176132,256.839630,145.304291,,,,,,
1465827692.90,3.007555,-0.043773,1.216797,-0.008511,-0.660134,0.011141,0.133509,0.043759,0.990081,-0.008829,0.000110,-0.000762,-99.641457,256.840668,146.359100,,,,,,
1465827692.91,3.000705,-0.043733,1.216693,-0.011763,-0.704730,0.012482,0.140288,0.043719,0.989145,-0.008834,0.002119,0.001547,-99.641457,256.840668,146.359100,,,,,,
1465827692.92,2.993678,-0.043630,1.216586,-0.009661,-0.724907,0.013675,0.147236,0.043616,0.988139,-0.013676,0.000344,-0.000972,-99.641457,256.840668,146.359100,,,,,,
1465827692.93,2.986917,-0.043487,1.216500,-0.011779,-0.717468,0.012562,0.153914,0.043473,0.987127,-0.023696,0.000213,0.007532,-95.665245,256.843872,148.982986,,,,,,
1465827692.94,2.981038,-0.043371,1.216451,-0.010644,-0.664367,0.010101,0.159715,0.043357,0.986210,-0.041200,0.000496,0.009654,-95.665245,256.843872,148.982986,,,,,,
1465827692.95,2.975700,-0.043306,1.216390,-0.009514,-0.609155,0.011885,0.164978,0.043292,0.985347,-0.044922,0.001843,0.014898,-95.665245,256.843872,148.982986,,,,,,
1465827692.96,2.971446,-0.043333,1.216358,-0.006238,-0.546499,0.010430,0.169168,0.043319,0.984635,-0.046778,0.003693,0.011856,-93.730553,256.825073,150.239868,,,,,,
1465827692.97,2.968190,-0.043346,1.216357,-0.005060,-0.461538,0.006705,0.172373,0.043333,0.984078,-0.052515,0.002703,0.017982,-93.730553,256.825073,150.239868,,,,,,
1465827692.98,2.966284,-0.043280,1.216381,-0.003875,-0.365965,0.006107,0.174249,0.043266,0.983751,-0.057306,0.000404,0.017638,-93.730553,256.825073,150.239868,,,,,,
1465827692.99,2.965745,-0.043178,1.216443,-0.003721,-0.244904,0.004283,0.174780,0.043165,0.983661,-0.061087,-0.001356,0.022549,-91.482330,256.821075,151.626068,,,,,,
1465827693.00,2.966526,-0.043134,1.216523,-0.001430,-0.119593,0.001370,0.174012,0.043121,0.983799,-0.061311,-0.000320,0.023159,-91.482330,256.821075,151.626068,,,,,,
1465827693.01,2.968511,-0.043190,1.216627,0.000858,0.003593,-0.001530,0.172058,0.043177,0.984140,-0.061234,0.001761,0.021735,-91.482330,256.821075,151.626068,,,,,,
1465827693.02,2.971589,-0.043276,1.216743,0.004212,0.128899,-0.003377,0.169027,0.043263,0.984661,-0.056448,0.001797,0.022464,-91.547386,256.785156,151.647598,,,,,,
1465827693.03,2.975613,-0.043439,1.216858,0.007546,0.238277,-0.005124,0.165062,0.043425,0.985327,-0.052132,0.002901,0.014994,-91.547386,256.785156,151.647598,,,,,,
1465827693.04,2.980168,-0.043483,1.216978,0.006592,0.325357,-0.006736,0.160573,0.043470,0.986066,-0.040089,-0.000592,0.016650,-92.374535,256.778412,151.156647,,,,,,
1465827693.05,2.984934,-0.043598,1.217094,0.008802,0.385890,-0.009242,0.155871,0.043584,0.986815,-0.027758,0.000361,0.008897,-92.374535,256.778412,151.156647,,,,,,
1465827693.06,2.989798,-0.043722,1.217210,0.008847,0.419875,-0.010520,0.151068,0.043708,0.987557,-0.004126,0.000420,0.002632,-92.374535,256.778412,151.156647,,,,,,
1465827693.07,2.993960,-0.043790,1.217282,0.008852,0.427301,-0.008438,0.146955,0.043776,0.988174,0.006044,-0.000807,0.003388,-95.244110,256.783417,149.356522,,,,,,
1465827693.08,2.997918,-0.043924,1.217343,0.009908,0.419867,-0.008390,0.143042,0.043910,0.988742,0.011056,0.000539,-0.002002,-95.244110,256.783417,149.356522,,,,,,
1465827693.09,3.001530,-0.044037,1.217399,0.008816,0.398629,-0.008258,0.139470,0.044023,0.989247,0.016261,0.000213,-0.002385,-95.244110,256.783417,149.356522,,,,,,
1465827693.10,3.004870,-0.044071,1.217447,0.008782,0.371019,-0.008085,0.136164,0.044057,0.989706,0.017309,-0.002492,-0.002508,-96.494202,256.794800,148.532288,,,,,,
1465827693.11,3.007727,-0.044137,1.217488,0.009797,0.331729,-0.007837,0.133336,0.044122,0.990088,0.021540,-0.001337,-0.006461,-96.494202,256.794800,148.532288,,,,,,
1465827693.12,3.009852,-0.044245,1.217505,0.007601,0.280756,-0.006455,0.131231,0.044230,0.990365,0.030512,0.000417,-0.008812,-96.494202,256.794800,148.532288,,,,,,
1465827693.13,3.011118,-0.044359,1.217504,0.006437,0.201116,-0.005957,0.129977,0.044344,0.990525,0.034482,0.000959,-0.013856,-96.494202,256.794800,148.532288,,,,,,
1465827693.14,3.011530,-0.044351,1.217488,0.005264,0.118284,-0.003309,0.129568,0.044337,0.990579,0.036020,-0.002528,-0.011407,-101.864868,238.158997,-134.352921,,,,,,
1465827693.15,3.011108,-0.044341,1.217460,0.001961,0.033333,-0.001715,0.129987,0.044327,0.990524,0.035632,-0.001648,-0.009781,-101.864868,238.158997,-134.352921,,,,,,
1465827693.16,3.009905,-0.044261,1.217416,0.001847,-0.053745,0.000960,0.131179,0.044246,0.990371,0.032746,-0.004177,-0.007674,-101.864868,238.158997,-134.352921,,,,,,
1465827693.18,3.005517,-0.044236,1.217329,-0.002603,-0.204530,0.002966,0.135523,0.044221,0.989787,0.020498,-0.000169,-0.009516,-101.836555,238.164093,-134.365356,,,,,,
1465827693.17,3.007989,-0.044257,1.217380,-0.001446,-0.134442,0.000398,0.133076,0.044243,0.990118,0.028118,-0.000099,-0.011190,-101.836555,238.164093,-134.365356,,,,,,
1465827693.19,3.002688,-0.044235,1.217278,-0.001609,-0.259749,0.004377,0.138323,0.044220,0.989399,0.012281,0.000747,-0.007786,-101.836555,238.164093,-134.365356,,,,,,
1465827693.20,2.999854,-0.044202,1.217232,-0.002707,-0.286294,0.004543,0.141126,0.044188,0.989005,-0.000974,0.000231,-0.001181,-102.403297,238.174988,-133.914566,,,,,,
1465827693.21,2.997236,-0.044159,1.217198,-0.003771,-0.285230,0.004535,0.143716,0.044145,0.988634,-0.011986,-0.000077,0.003096,-102.403297,238.174988,-133.914566,,,,,,
1465827693.22,2.994953,-0.044081,1.217173,-0.003744,-0.263991,0.004402,0.145973,0.044067,0.988307,-0.019020,-0.001464,0.006521,-103.135551,238.187973,-133.328247,,,,,,
1465827693.24,2.991432,-0.044094,1.217146,0.000589,-0.206647,0.002982,0.149451,0.044080,0.987786,-0.024802,0.002902,0.005851,-103.135551,238.187973,-133.328247,,,,,,
1465827693.23,2.993012,-0.044039,1.217155,-0.001583,-0.238506,0.004244,0.147891,0.044024,0.988023,-0.021854,-0.000613,0.008696,-103.135551,238.187973,-133.328247,,,,,,
1465827693.25,2.990206,-0.044140,1.217143,0.000636,-0.169481,0.002749,0.150662,0.044126,0.987600,-0.024503,0.002352,0.007761,-103.135551,238.187973,-133.328247,,,,,,
1465827693.26,2.989477,-0.044129,1.217147,-0.001434,-0.123815,0.001396,0.151382,0.044115,0.987490,-0.026977,0.000471,0.007947,-104.230034,238.211014,-132.432892,,,,,,
1465827693.27,2.989168,-0.044059,1.217156,0.000752,-0.077097,0.002169,0.151688,0.044045,0.987447,-0.025528,-0.002877,0.008571,-104.230034,238.211014,-132.432892,,,,,,
1465827693.28,2.989297,-0.044068,1.217180,0.000812,-0.032492,-0.000239,0.151560,0.044054,0.987466,-0.024851,-0.000139,0.011237,-104.230034,238.211014,-132.432892,,,,,,
1465827693.29,2.989856,-0.044138,1.217209,0.006187,0.006799,-0.001545,0.151008,0.044124,0.987547,-0.025673,0.001240,0.008302,-104.519928,238.211975,-132.202530,,,,,,
1465827693.30,2.990749,-0.044205,1.217248,0.003044,0.047152,-0.001801,0.150126,0.044191,0.987679,-0.022028,0.001402,0.006508,-104.519928,238.211975,-132.202530,,,,,,
1465827693.31,2.991915,-0.044264,1.217274,0.004157,0.085378,-0.002040,0.148974,0.044250,0.987851,-0.017596,0.000855,0.005771,-104.519928,238.211975,-132.202530,,,,,,
1465827693.32,2.993326,-0.044301,1.217310,0.004196,0.115114,-0.003291,0.147579,0.044287,0.988058,-0.014309,-0.000311,0.004755,-104.349319,238.186172,-132.383652,,,,,,
1465827693.33,2.994881,-0.044334,1.217346,0.005289,0.137412,-0.003430,0.146042,0.044320,0.988285,-0.009277,-0.000909,0.006985,-104.349319,238.186172,-132.383652,,,,,,
1465827693.34,2.996508,-0.044350,1.217386,0.005307,0.150158,-0.004574,0.144434,0.044335,0.988521,-0.005793,-0.001610,0.005635,-104.349319,238.186172,-132.383652,,,,,,
1465827693.35,2.998098,-0.044421,1.217417,0.005307,0.152279,-0.003523,0.142862,0.044407,0.988746,-0.002633,0.000866,0.000024,-103.623314,238.153549,-133.011124,,,,,,
1465827693.36,2.999561,-0.044489,1.217441,0.007430,0.146969,-0.003488,0.141415,0.044475,0.988951,0.002613,0.000112,0.002977,-103.623314,238.153549,-133.011124,,,,,,
1465827693.37,3.000814,-0.044550,1.217469,0.005283,0.131045,-0.004454,0.140175,0.044536,0.989125,0.004722,-0.000026,-0.004139,-103.234871,238.128479,-133.357651,,,,,,
1465827693.38,3.001827,-0.044539,1.217483,0.005255,0.111926,-0.002206,0.139173,0.044524,0.989267,0.009219,-0.002471,0.000434,-103.234871,238.128479,-133.357651,,,,,,
1465827693.39,3.002534,-0.044545,1.217495,0.003095,0.086445,-0.003112,0.138474,0.044531,0.989365,0.010803,-0.001547,-0.005508,-103.234871,238.128479,-133.357651,,,,,,
1465827693.40,3.002873,-0.044498,1.217497,0.001992,0.055652,-0.002920,0.138138,0.044484,0.989413,0.014068,-0.003697,-0.002658,-102.944130,238.117722,-133.601364,,,,,,
1465827693.41,3.002825,-0.044506,1.217502,0.005128,0.011050,-0.001573,0.138186,0.044491,0.989406,0.012968,-0.001629,-0.003902,-102.944130,238.117722,-133.601364,,,,,,
1465827693.42,3.002402,-0.044497,1.217491,0.000827,-0.020806,-0.000313,0.138605,0.044483,0.989348,0.013709,-0.001239,-0.004424,-102.944130,238.117722,-133.601364,,,,,,
1465827693.43,3.001626,-0.044552,1.217482,0.005030,-0.065406,-0.000029,0.139371,0.044537,0.989238,0.011202,0.000903,-0.002971,-102.944130,238.117722,-133.601364,,,,,,
1465827693.44,3.000625,-0.044517,1.217474,-0.000326,-0.090887,0.000125,0.140362,0.044502,0.989100,0.007389,-0.001564,-0.000437,-102.867805,238.123184,-133.650436,,,,,,
1465827693.45,2.999441,-0.044504,1.217457,-0.000356,-0.113189,0.001330,0.141533,0.044489,0.988933,0.004006,-0.000590,-0.004818,-102.867805,238.123184,-133.650436,,,,,,
1465827693.46,2.998278,-0.044442,1.217457,-0.001427,-0.119556,0.000304,0.142683,0.044427,0.988771,-0.001539,-0.002618,0.001464,-102.867805,238.123184,-133.650436,,,,,,
1465827693.47,2.997187,-0.044407,1.217440,0.002829,-0.120622,0.001380,0.143763,0.044393,0.988616,-0.006968,-0.002614,-0.001021,-103.407860,238.134125,-133.213425,,,,,,
1465827693.48,2.996241,-0.044437,1.217438,-0.000354,-0.113184,0.000265,0.144697,0.044422,0.988478,-0.009367,0.000881,0.006196,-103.407860,238.134125,-133.213425,,,,,,
1465827693.49,2.995478,-0.044407,1.217434,0.004916,-0.100020,0.001283,0.145452,0.044393,0.988369,-0.014043,-0.002446,0.005421,-103.407860,238.134125,-133.213425,,,,,,
1465827693.50,2.994825,-0.044460,1.217444,-0.001461,-0.091521,0.001223,0.146097,0.044445,0.988271,-0.013544,0.002689,0.002436,-103.674484,238.136429,-133.001938,,,,,,
1465827693.51,2.994407,-0.044345,1.217445,0.004969,-0.059665,-0.000035,0.146510,0.044331,0.988215,-0.013835,-0.007877,0.004476,-103.674484,238.136429,-133.001938,,,,,,
1465827693.52,2.994247,-0.044365,1.217455,0.003921,-0.047980,-0.001173,0.146668,0.044350,0.988191,-0.016084,-0.000619,0.011687,-103.674484,238.136429,-133.001938,,,,,,
1465827693.53,2.994342,-0.044149,1.217461,0.011407,-0.019316,-0.000281,0.146576,0.044135,0.988214,-0.018112,-0.015647,0.012945,-103.940895,238.145584,-132.777405,,,,,,
1465827693.54,2.994494,-0.043826,1.217477,0.013542,-0.016124,-0.002428,0.146428,0.043812,0.988251,-0.012059,-0.024326,0.032959,-103.940895,238.145584,-132.777405,,,,,,
1465827693.55,2.994722,-0.043718,1.217499,0.018878,-0.007628,-0.003540,0.146203,0.043705,0.988289,-0.016275,-0.015369,0.012352,-103.940895,238.145584,-132.777405,,,,,,
1465827693.56,2.995062,-0.044013,1.217542,0.022103,0.011493,-0.006851,0.145865,0.043999,0.988326,-0.013800,0.003838,0.004945,-103.894638,238.222733,-132.675171,,,,,,
1465827693.57,2.995659,-0.044809,1.217587,0.010445,0.056090,-0.005013,0.145270,0.044794,0.988378,-0.010978,0.032477,-0.020696,-103.894638,238.222733,-132.675171,,,,,,
1465827693.58,2.996512,-0.045921,1.217608,-0.001245,0.077321,-0.000900,0.144420,0.045904,0.988451,-0.012904,0.053156,-0.045977,-103.841484,238.189880,-132.775726,,,,,,
1465827693.59,2.997509,-0.045844,1.217608,-0.008666,0.105988,0.001041,0.143435,0.045828,0.988598,-0.006823,0.032542,-0.015713,-103.841484,238.189880,-132.775726,,,,,,
1465827693.60,2.998523,-0.045816,1.217613,-0.008680,0.094308,0.001114,0.142432,0.045800,0.988744,-0.002189,0.003547,-0.004018,-103.841484,238.189880,-132.775726,,,,,,
1465827693.61,2.999393,-0.045746,1.217622,-0.005493,0.085818,-0.000958,0.141573,0.045730,0.988871,0.001097,-0.020080,0.012853,-103.459579,237.919449,-133.556396,,,,,,
1465827693.63,3.000352,-0.045854,1.217658,0.010396,0.014678,-0.003689,0.140624,0.045838,0.989001,0.004090,-0.030854,0.020657,-103.459579,237.919449,-133.556396,,,,,,
1465827693.62,3.000103,-0.045768,1.217643,0.002994,0.059271,-0.001847,0.140870,0.045752,0.988970,0.004439,-0.037040,0.027204,-103.459579,237.919449,-133.556396,,,,,,
1465827693.64,3.000219,-0.045656,1.217654,0.013543,-0.018246,-0.001351,0.140756,0.045640,0.988992,0.002066,-0.016313,0.006522,-103.459579,237.919449,-133.556396,,,,,,
1465827693.65,2.999782,-0.045803,1.217650,0.013498,-0.054347,-0.001124,0.141188,0.045787,0.988923,0.005144,-0.020655,0.028166,-103.237389,237.939575,-133.692429,,,,,,
1465827693.66,2.999153,-0.045959,1.217644,0.017754,-0.058593,-0.002158,0.141809,0.045943,0.988827,0.001334,-0.007430,-0.008450,-103.237389,237.939575,-133.692429,,,,,,
1465827693.67,2.998881,-0.046104,1.217663,0.010365,-0.010803,-0.004594,0.142076,0.046088,0.988782,0.007673,0.034631,-0.029218,-103.237389,237.939575,-133.692429,,,,,,
1465827693.69,2.998312,-0.046895,1.217648,-0.021689,-0.086204,0.006491,0.142634,0.046878,0.988665,-0.012721,0.057828,-0.045458,-103.387779,237.895782,-133.654144,,,,,,
1465827693.68,2.998952,-0.047064,1.217672,0.004002,0.013610,-0.000496,0.142000,0.047047,0.988748,0.001555,0.042324,-0.024240,-103.387779,237.895782,-133.654144,,,,,,
1465827693.70,2.997294,-0.046740,1.217604,-0.013192,-0.104256,0.005548,0.143642,0.046723,0.988526,-0.007472,-0.017273,0.027953,-103.387779,237.895782,-133.654144,,,,,,
1465827693.71,2.996250,-0.046636,1.217584,-0.006787,-0.094697,0.003366,0.144674,0.046619,0.988381,-0.001303,-0.032184,0.011955,-103.653168,237.784363,-133.646835,,,,,,
1465827693.72,2.996082,-0.045524,1.217604,0.017808,-0.019298,-0.005598,0.144847,0.045509,0.988407,0.001469,-0.061179,0.057675,-103.653168,237.784363,-133.646835,,,,,,
1465827693.73,2.995522,-0.045627,1.217595,0.014547,-0.063906,0.000001,0.145400,0.045611,0.988321,-0.014449,-0.001071,-0.006326,-103.653168,237.784363,-133.646835,,,,,,
1465827693.74,2.994957,-0.045823,1.217593,0.013491,-0.058594,-0.001098,0.145957,0.045806,0.988230,-0.011237,-0.023315,0.034780,-103.773071,237.963058,-133.235153,,,,,,
1465827693.75,2.994382,-0.045906,1.217597,0.014582,-0.041600,-0.003332,0.146525,0.045890,0.988142,-0.014643,0.022866,-0.024443,-103.773071,237.963058,-133.235153,,,,,,
1465827693.76,2.994485,-0.046250,1.217614,0.000748,-0.030982,-0.000219,0.146420,0.046234,0.988141,-0.015256,0.012100,0.003710,-103.773071,237.963058,-133.235153,,,,,,
1465827693.77,2.994245,-0.046334,1.217620,0.010354,-0.016115,-0.002432,0.146658,0.046318,0.988102,-0.014043,0.013405,0.000026,-104.013420,237.855515,-133.239777,,,,,,
1465827693.78,2.994222,-0.046348,1.217622,0.000790,0.001934,-0.000426,0.146680,0.046331,0.988098,-0.015241,0.013071,-0.013062,-104.013420,237.855515,-133.239777,,,,,,
1465827693.79,2.994550,-0.046381,1.217640,-0.000222,0.042286,-0.001744,0.146356,0.046364,0.988145,-0.008432,0.014015,-0.004960,-104.013420,237.855515,-133.239777,,,,,,
1465827693.80,2.995345,-0.046737,1.217653,0.001926,0.059269,0.000280,0.145567,0.046720,0.988245,-0.010039,0.015825,-0.010751,-104.053940,237.840469,-133.234985,,,,,,
1465827693.81,2.995880,-0.046667,1.217666,-0.009791,0.053969,-0.000763,0.145039,0.046650,0.988326,-0.010838,0.012096,-0.012099,-104.053940,237.840469,-133.234985,,,,,,
1465827693.82,2.996437,-0.046618,1.217676,-0.004470,0.052902,0.000314,0.144490,0.046601,0.988408,-0.006108,-0.001740,0.006633,-104.053940,237.840469,-133.234985,,,,,,
1465827693.83,2.996961,-0.046570,1.217690,-0.003401,0.055028,-0.000763,0.143972,0.046553,0.988486,-0.001317,-0.006941,0.000863,-103.780815,237.796265,-133.526581,,,,,,
1465827693.84,2.997474,-0.046308,1.217702,-0.001299,0.033791,-0.000628,0.143467,0.046291,0.988572,-0.001133,-0.010677,0.013274,-103.780815,237.796265,-133.526581,,,,,,
1465827693.85,2.997531,-0.046274,1.217711,-0.003472,-0.001247,-0.000410,0.143410,0.046258,0.988582,-0.003426,-0.006066,0.001271,-103.780815,237.796265,-133.526581,,,,,,
1465827693.86,2.997439,-0.046262,1.217722,-0.002424,-0.013989,-0.000329,0.143501,0.046246,0.988569,0.001457,-0.004345,0.005251,-103.637993,237.839722,-133.560089,,,,,,
1465827693.87,2.997241,-0.046238,1.217728,0.000760,-0.022485,-0.000273,0.143697,0.046222,0.988542,0.001719,-0.004154,-0.003739,-103.637993,237.839722,-133.560089,,,,,,
1465827693.88,2.997077,-0.045862,1.217740,0.006109,-0.007611,-0.004618,0.143862,0.045846,0.988535,-0.000033,-0.018075,-0.001826,-103.637993,237.839722,-133.560089,,,,,,
1465827693.89,2.996560,-0.045859,1.217742,-0.005729,-0.094696,0.004432,0.144373,0.045843,0.988461,-0.012995,0.013178,0.026355,-103.685059,237.901993,-133.412567,,,,,,
1465827693.90,2.995463,-0.045879,1.217720,0.006004,-0.080893,0.002228,0.145457,0.045862,0.988301,-0.006053,-0.008097,-0.015202,-103.685059,237.901993,-133.412567,,,,,,
1465827693.91,2.995776,-0.045968,1.217756,0.008308,0.047602,-0.004962,0.145147,0.045951,0.988343,0.010172,-0.016929,0.028030,-103.685059,237.901993,-133.412567,,,,,,
1465827693.92,2.995640,-0.046421,1.217762,-0.000423,-0.111682,0.003479,0.145278,0.046404,0.988302,-0.022186,0.016081,-0.011495,-103.895844,237.901321,-133.249710,,,,,,
1465827693.93,2.994585,-0.046984,1.217751,-0.009999,-0.109552,0.003455,0.146317,0.046966,0.988122,-0.013031,0.026810,-0.013528,-103.895844,237.901321,-133.249710,,,,,,
1465827693.94,2.994317,-0.046658,1.217765,0.000788,-0.008666,-0.004617,0.146584,0.046641,0.988098,-0.002969,-0.012843,0.000000,-103.895844,237.901321,-133.249710,,,,,,
1465827693.95,2.994607,-0.047163,1.217765,-0.007732,0.000873,0.003829,0.146294,0.047146,0.988117,-0.013603,0.023304,-0.022083,-104.086525,237.782990,-133.312042,,,,,,
1465827693.96,2.994635,-0.047074,1.217781,-0.012042,-0.036293,0.006187,0.146267,0.047056,0.988125,-0.007183,-0.000502,0.026157,-104.086525,237.782990,-133.312042,,,,,,
1465827693.97,2.994505,-0.046645,1.217801,0.001796,-0.051139,-0.002221,0.146398,0.046628,0.988126,-0.016790,-0.016965,0.018969,-104.086525,237.782990,-133.312042,,,,,,
1465827693.98,2.994878,-0.046506,1.217827,-0.008720,0.057165,-0.000782,0.146031,0.046489,0.988187,-0.003773,-0.003002,-0.004575,-104.062561,237.720398,-133.442368,,,,,,
1465827693.99,2.995656,-0.046231,1.217850,0.007223,0.032743,-0.002742,0.145264,0.046215,0.988313,-0.010666,-0.014446,0.010360,-104.062561,237.720398,-133.442368,,,,,,
1465827694.00,2.995764,-0.046029,1.217873,-0.002458,-0.043702,-0.001208,0.145159,0.046012,0.988338,-0.022844,-0.006675,-0.001155,-104.062561,237.720398,-133.442368,,,,,,
1465827694.01,2.995907,-0.045701,1.217874,0.002917,-0.001231,-0.001469,0.145019,0.045685,0.988374,-0.011520,-0.017517,0.017684,-103.897751,237.866562,-133.310257,,,,,,
1465827694.02,2.996594,-0.045643,1.217921,0.010494,0.093274,-0.005247,0.144341,0.045627,0.988476,0.004921,-0.006671,0.006779,-103.897751,237.866562,-133.310257,,,,,,
1465827694.03,2.997201,-0.045530,1.217943,0.008241,-0.001229,-0.002528,0.143741,0.045514,0.988568,-0.012180,-0.009244,0.009662,-103.897751,237.866562,-133.310257,,,,,,
1465827694.04,2.997262,-0.045616,1.217956,0.008259,0.014695,-0.001563,0.143681,0.045600,0.988573,-0.004490,0.000100,-0.002214,-103.785431,237.919205,-133.303802,,,,,,
1465827694.05,2.997836,-0.045474,1.217986,0.018987,0.072042,-0.007234,0.143114,0.045458,0.988662,0.006147,-0.015566,0.009874,-103.785431,237.919205,-133.303802,,,,,,
1465827694.06,2.998092,-0.045402,1.218022,0.013558,-0.006537,-0.003553,0.142861,0.045387,0.988702,-0.002922,-0.010276,0.007606,-103.785431,237.919205,-133.303802,,,,,,
1465827694.07,2.997660,-0.045383,1.218033,0.010250,-0.091487,0.000169,0.143289,0.045367,0.988641,-0.012201,-0.006442,0.017326,-103.601875,237.946106,-133.398529,,,,,,
1465827694.08,2.997036,-0.045842,1.218037,0.004994,-0.040515,-0.001220,0.143902,0.045826,0.988530,-0.004452,0.018459,-0.013982,-103.601875,237.946106,-133.398529,,,,,,
1465827694.09,2.997100,-0.046512,1.218039,0.000803,0.010454,-0.001544,0.143835,0.046495,0.988509,-0.003683,0.029753,-0.023528,-103.601875,237.946106,-133.398529,,,,,,
1465827694.10,2.997093,-0.046496,1.218040,0.005015,-0.024590,-0.000256,0.143842,0.046479,0.988509,-0.005277,-0.003556,0.000490,-103.761360,237.880219,-133.392075,,,,,,
1465827694.11,2.996751,-0.046682,1.218055,-0.007790,-0.047942,-0.000122,0.144179,0.046665,0.988451,-0.010710,0.012493,-0.007646,-103.761360,237.880219,-133.392075,,,,,,
1465827694.12,2.996780,-0.046902,1.218062,-0.008781,0.009396,-0.000483,0.144148,0.046885,0.988445,-0.002791,0.012609,-0.008693,-103.761360,237.880219,-133.392075,,,,,,
1465827694.13,2.996763,-0.047256,1.218056,-0.010950,-0.017159,0.003939,0.144163,0.047239,0.988426,-0.005949,0.023181,-0.016609,-103.837891,237.722290,-133.613876,,,,,,
1465827694.14,2.996568,-0.047011,1.218045,-0.015246,-0.044766,0.005172,0.144358,0.046994,0.988409,-0.010431,-0.005139,0.006433,-103.837891,237.722290,-133.613876,,,,,,
1465827694.15,2.996345,-0.046532,1.218045,-0.000318,-0.034139,-0.000202,0.144580,0.046516,0.988399,-0.006992,-0.021537,0.015629,-103.837891,237.722290,-133.613876,,,,,,
1465827694.16,2.996231,-0.045979,1.218047,-0.000317,-0.029894,0.000836,0.144698,0.045962,0.988408,-0.007582,-0.027118,0.021571,-103.865906,237.707672,-133.618149,,,,,,
1465827694.17,2.996251,-0.045515,1.218068,0.008219,-0.018208,-0.002421,0.144681,0.045500,0.988432,-0.008313,-0.027861,0.020266,-103.865906,237.707672,-133.618149,,,,,,
1465827694.18,2.996248,-0.045538,1.218068,0.007148,-0.019274,-0.000287,0.144683,0.045522,0.988430,-0.012146,-0.001562,-0.001675,-103.865906,237.707672,-133.618149,,,,,,
1465827694.19,2.996435,-0.045552,1.218074,0.007179,0.004089,-0.001498,0.144499,0.045536,0.988457,-0.008329,-0.003239,0.004158,-103.863503,237.922333,-133.237396,,,,,,
1465827694.20,2.996587,-0.045375,1.218087,0.016746,-0.010774,-0.003524,0.144349,0.045359,0.988487,-0.008149,-0.016566,0.013146,-103.863503,237.922333,-133.237396,,,,,,
1465827694.21,2.996573,-0.045331,1.218106,0.009274,-0.023513,-0.002387,0.144363,0.045316,0.988487,-0.011261,-0.007444,0.012170,-103.863503,237.922333,-133.237396,,,,,,
1465827694.22,2.996714,-0.045620,1.218123,0.009311,0.005157,-0.002567,0.144222,0.045604,0.988494,-0.009349,0.008595,-0.007552,-103.817162,237.944748,-133.233490,,,,,,
1465827694.23,2.996923,-0.046022,1.218141,0.002925,0.007282,-0.001522,0.144012,0.046005,0.988506,-0.009827,0.018799,-0.011730,-103.817162,237.944748,-133.233490,,,,,,
1465827694.24,2.997101,-0.046247,1.218145,-0.000286,-0.003340,0.000670,0.143836,0.046231,0.988521,-0.008765,0.010745,-0.001125,-103.817162,237.944748,-133.233490,,,,,,
1465827694.25,2.997336,-0.046462,1.218150,-0.000254,0.021082,0.000516,0.143602,0.046445,0.988545,-0.006395,0.010973,-0.007390,-103.792641,237.811676,-133.489960,,,,,,
1465827694.26,2.997686,-0.046541,1.218157,-0.003442,0.025331,0.000486,0.143255,0.046524,0.988592,-0.002310,0.005813,0.002055,-103.792641,237.811676,-133.489960,,,,,,
1465827694.27,2.997932,-0.046681,1.218161,-0.001312,0.025331,0.000488,0.143011,0.046664,0.988620,-0.002661,0.007780,-0.010990,-103.727470,237.767456,-133.619293,,,,,,
1465827694.28,2.998131,-0.046505,1.218161,-0.002401,0.006219,0.000607,0.142815,0.046488,0.988657,-0.001489,-0.007930,0.010122,-103.727470,237.767456,-133.619293,,,,,,
1465827694.29,2.998170,-0.046310,1.218179,-0.000272,0.003039,-0.001499,0.142778,0.046293,0.988671,-0.002031,-0.010023,0.002845,-103.727470,237.767456,-133.619293,,,,,,
1465827694.31,2.997875,-0.045947,1.218203,0.006080,-0.025630,-0.002377,0.143073,0.045931,0.988646,-0.002539,-0.010912,0.003099,-103.667717,237.772415,-133.656830,,,,,,
1465827694.30,2.998091,-0.046093,1.218190,0.002891,-0.020322,-0.001350,0.142858,0.046077,0.988670,-0.000814,-0.013072,0.016182,-103.667717,237.772415,-133.656830,,,,,,
1465827694.32,2.997664,-0.045944,1.218215,0.005001,-0.035187,-0.001254,0.143281,0.045928,0.988616,-0.006424,-0.002486,0.005281,-103.667717,237.772415,-133.656830,,,,,,
1465827694.33,2.997387,-0.045838,1.218213,0.004997,-0.036252,-0.000183,0.143555,0.045822,0.988581,-0.004014,-0.008346,0.005132,-103.667717,237.772415,-133.656830,,,,,,
1465827694.34,2.997148,-0.045983,1.218221,0.002874,-0.033062,-0.001270,0.143790,0.045967,0.988540,-0.006675,0.005944,-0.005203,-103.723930,237.850403,-133.474365,,,,,,
1465827694.35,2.997060,-0.046069,1.218231,0.002868,-0.036248,-0.000185,0.143877,0.046053,0.988523,-0.006350,0.002959,0.001223,-103.723930,237.850403,-133.474365,,,,,,
1465827694.37,2.996669,-0.045976,1.218225,0.003921,-0.043682,0.000927,0.144264,0.045959,0.988471,-0.008552,-0.004089,0.008034,-103.795593,237.844208,-133.429688,,,,,,
1465827694.36,2.996917,-0.046027,1.218231,0.000738,-0.035187,0.000870,0.144019,0.046011,0.988505,-0.011450,-0.002691,0.000723,-103.795593,237.844208,-133.429688,,,,,,
1465827694.38,2.996531,-0.045987,1.218234,0.000744,-0.029876,0.000837,0.144401,0.045971,0.988451,-0.010765,-0.000302,-0.003450,-103.795593,237.844208,-133.429688,,,,,,
1465827694.39,2.996528,-0.045953,1.218242,0.001764,-0.014582,-0.000290,0.144404,0.045937,0.988452,-0.009806,-0.002861,0.002896,-103.881256,237.842484,-133.366058,,,,,,
1465827694.40,2.996618,-0.045946,1.218261,0.002840,-0.007146,-0.001400,0.144314,0.045930,0.988465,-0.009671,-0.001619,0.004683,-103.881256,237.842484,-133.366058,,,,,,
1465827694.41,2.996737,-0.045949,1.218269,0.002839,-0.008207,-0.001394,0.144197,0.045933,0.988482,-0.010179,-0.001545,-0.000094,-103.881256,237.842484,-133.366058,,,,,,
1465827694.42,2.996846,-0.045955,1.218290,0.003913,-0.000774,-0.001439,0.144090,0.045939,0.988498,-0.007371,-0.001551,0.004697,-103.881256,237.842484,-133.366058,,,,,,
1465827694.43,2.997018,-0.046047,1.218298,0.001790,0.004537,-0.001475,0.143919,0.046031,0.988518,-0.007933,0.004308,-0.001397,-103.851578,237.842575,-133.389008,,,,,,
1465827694.44,2.997210,-0.046089,1.218305,0.001799,0.010909,-0.001515,0.143728,0.046073,0.988544,-0.005911,0.001245,-0.000187,-103.851578,237.842575,-133.389008,,,,,,
1465827694.45,2.997503,-0.046051,1.218322,-0.000333,0.010908,-0.000452,0.143440,0.046035,0.988588,-0.008689,-0.002334,0.000838,-103.851578,237.842575,-133.389008,,,,,,
1465827694.46,2.997637,-0.046026,1.218328,0.000727,0.007722,-0.000431,0.143307,0.046010,0.988608,-0.002865,-0.001592,0.006494,-103.811127,237.821655,-133.457764,,,,,,
1465827694.47,2.997823,-0.045987,1.218341,0.000722,0.005596,0.000646,0.143123,0.045971,0.988637,-0.006404,-0.002880,-0.003804,-103.811127,237.821655,-133.457764,,,,,,
1465827694.48,2.997913,-0.045999,1.218346,-0.000337,0.007724,-0.000432,0.143034,0.045983,0.988649,-0.002272,0.000160,-0.000642,-103.811127,237.821655,-133.457764,,,,,,
1465827694.49,2.998084,-0.046047,1.218346,0.001789,0.006658,0.000641,0.142865,0.046030,0.988671,-0.004773,0.001562,-0.002358,-103.724228,237.831451,-133.507874,,,,,,
1465827694.50,2.998068,-0.046001,1.218342,0.000698,-0.012456,0.001824,0.142882,0.045985,0.988671,-0.003630,-0.002406,0.005683,-103.724228,237.831451,-133.507874,,,,,,
1465827694.51,2.998005,-0.045989,1.218342,0.000697,-0.016697,-0.000278,0.142943,0.045973,0.988663,-0.005217,-0.001417,-0.000305,-103.724228,237.831451,-133.507874,,,,,,
1465827694.52,2.997902,-0.045908,1.218343,-0.001437,-0.017760,0.000791,0.143046,0.045892,0.988652,-0.003885,-0.004342,0.001323,-103.702705,237.831451,-133.524582,,,,,,
1465827694.53,2.997798,-0.045906,1.218347,-0.001438,-0.020942,-0.000254,0.143148,0.045890,0.988637,-0.006063,0.000711,0.000758,-103.702705,237.831451,-133.524582,,,,,,
1465827694.54,2.997605,-0.045968,1.218353,-0.000383,-0.028375,-0.000206,0.143339,0.045952,0.988606,-0.004393,0.003517,-0.004216,-103.702705,237.831451,-133.524582,,,,,,
1465827694.55,2.997445,-0.046011,1.218356,-0.001442,-0.023068,0.000824,0.143497,0.045995,0.988581,-0.005741,0.003261,0.000036,-103.766022,237.835388,-133.468369,,,,,,
1465827694.56,2.997389,-0.046013,1.218359,-0.002506,-0.022004,0.000816,0.143552,0.045997,0.988573,-0.008527,0.001489,-0.001253,-103.766022,237.835388,-133.468369,,,,,,
1465827694.57,2.997250,-0.045927,1.218369,-0.001437,-0.021998,-0.001312,0.143691,0.045911,0.988557,-0.004988,-0.003339,0.004790,-103.766022,237.835388,-133.468369,,,,,,
1465827694.58,2.997167,-0.045830,1.218370,-0.002510,-0.025188,0.000836,0.143773,0.045814,0.988550,-0.007207,-0.004219,0.004126,-103.797707,237.828323,-133.456314,,,,,,
1465827694.59,2.997047,-0.045772,1.218372,-0.000375,-0.022000,-0.000246,0.143892,0.045756,0.988535,-0.005998,-0.003214,0.006094,-103.797707,237.828323,-133.456314,,,,,,
1465827694.60,2.997026,-0.045755,1.218383,-0.000369,-0.015632,0.000778,0.143913,0.045739,0.988533,-0.007454,-0.000146,0.000847,-103.797707,237.828323,-133.456314,,,,,,
1465827694.61,2.996982,-0.045796,1.218390,-0.004624,-0.014564,-0.000297,0.143956,0.045780,0.988525,-0.006794,0.003979,-0.001312,-103.843208,237.864120,-133.357071,,,,,,
1465827694.62,2.996996,-0.045720,1.218401,-0.004624,-0.012443,0.000754,0.143943,0.045704,0.988530,-0.007788,-0.001652,0.001979,-103.843208,237.864120,-133.357071,,,,,,
1465827694.63,2.996998,-0.045566,1.218405,-0.003556,-0.011378,-0.000316,0.143941,0.045551,0.988537,-0.007665,-0.006595,0.004901,-103.843208,237.864120,-133.357071,,,,,,
1465827694.64,2.997145,-0.045400,1.218425,-0.002479,-0.002880,-0.001433,0.143798,0.045384,0.988566,-0.008925,-0.008290,0.009176,-103.850281,237.867828,-133.344955,,,,,,
1465827694.65,2.997186,-0.045326,1.218434,0.001768,-0.010317,-0.000317,0.143757,0.045310,0.988575,-0.007954,-0.004218,0.005794,-103.850281,237.867828,-133.344955,,,,,,
1465827694.66,2.997296,-0.045207,1.218441,0.002844,-0.000760,-0.000376,0.143650,0.045191,0.988596,-0.007221,-0.008128,0.003820,-103.825195,237.912933,-133.284012,,,,,,
1465827694.67,2.997320,-0.045171,1.218446,0.003897,-0.009254,-0.000322,0.143626,0.045155,0.988601,-0.005305,-0.005040,-0.000091,-103.825195,237.912933,-133.284012,,,,,,
1465827694.68,2.997465,-0.045101,1.218463,0.003910,0.001365,-0.000388,0.143483,0.045086,0.988625,-0.007573,-0.005459,0.009452,-103.825195,237.912933,-133.284012,,,,,,
1465827694.70,2.997716,-0.045315,1.218489,0.001791,0.008800,-0.000437,0.143234,0.045299,0.988652,-0.006347,0.004872,0.007015,-103.781685,237.953461,-133.245544,,,,,,
1465827694.69,2.997534,-0.045206,1.218478,0.002841,-0.002882,-0.000363,0.143415,0.045191,0.988630,-0.006192,0.004080,-0.003584,-103.781685,237.953461,-133.245544,,,,,,
1465827694.71,2.997733,-0.045373,1.218488,0.001762,-0.012439,0.000760,0.143217,0.045357,0.988651,-0.006147,0.001991,-0.006764,-103.781685,237.953461,-133.245544,,,,,,
1465827694.72,2.997742,-0.045381,1.218492,0.002829,-0.012436,-0.000303,0.143207,0.045366,0.988652,-0.006763,-0.001161,0.008296,-103.761612,237.920044,-133.320877,,,,,,
1465827694.73,2.997718,-0.045340,1.218497,0.002832,-0.011370,-0.001374,0.143232,0.045324,0.988651,-0.005994,-0.003744,0.001553,-103.761612,237.920044,-133.320877,,,,,,
1465827694.74,2.997681,-0.045429,1.218510,0.000705,-0.010307,-0.001383,0.143267,0.045414,0.988642,-0.004641,0.003597,-0.002832,-103.761612,237.920044,-133.320877,,,,,,
1465827694.75,2.997740,-0.045444,1.218515,0.003899,-0.008187,-0.000329,0.143210,0.045428,0.988649,-0.006460,-0.000613,0.006285,-103.775429,237.901382,-133.343384,,,,,,
1465827694.76,2.997646,-0.045472,1.218517,0.000690,-0.021985,-0.001310,0.143301,0.045456,0.988635,-0.007422,0.001236,-0.005847,-103.775429,237.901382,-133.343384,,,,,,
1465827694.77,2.997634,-0.045447,1.218524,0.000699,-0.013493,-0.000299,0.143314,0.045432,0.988634,-0.006778,-0.002066,0.003340,-103.775429,237.901382,-133.343384,,,,,,
1465827694.78,2.997566,-0.045413,1.218539,0.001765,-0.013490,-0.001362,0.143381,0.045398,0.988626,-0.004404,-0.002765,0.001517,-103.783211,237.894592,-133.349457,,,,,,
1465827694.79,2.997484,-0.045459,1.218551,-0.001439,-0.019862,-0.000261,0.143462,0.045444,0.988612,-0.005721,0.002469,-0.000193,-103.783211,237.894592,-133.349457,,,,,,
1465827694.80,2.997390,-0.045465,1.218552,0.001756,-0.017742,0.000793,0.143555,0.045450,0.988598,-0.005081,0.000006,0.001606,-103.783211,237.894592,-133.349457,,,,,,
1465827694.81,2.997348,-0.045518,1.218560,-0.003568,-0.019859,-0.000263,0.143596,0.045503,0.988590,-0.008784,0.004561,-0.005268,-103.825447,237.892654,-133.320023,,,,,,
1465827694.82,2.997345,-0.045498,1.218569,-0.000366,-0.013489,-0.000300,0.143599,0.045482,0.988590,-0.007307,-0.000881,0.003750,-103.825447,237.892654,-133.320023,,,,,,
1465827694.83,2.997329,-0.045436,1.218576,-0.002491,-0.010302,-0.000322,0.143616,0.045420,0.988591,-0.006088,-0.001887,-0.000157,-103.825447,237.892654,-133.320023,,,,,,
1465827694.84,2.997344,-0.045384,1.218586,-0.002494,-0.012425,-0.000309,0.143601,0.045369,0.988595,-0.006622,-0.002446,0.002906,-103.836754,237.886383,-133.322418,,,,,,
1465827694.85,2.997364,-0.045333,1.218600,0.000709,-0.007114,-0.001403,0.143581,0.045317,0.988600,-0.005962,-0.002700,0.004777,-103.836754,237.886383,-133.322418,,,,,,
1465827694.86,2.997404,-0.045328,1.218616,-0.001422,-0.006053,-0.000348,0.143542,0.045313,0.988606,-0.005969,0.000540,0.001933,-103.836754,237.886383,-133.322418,,,,,,
1465827694.88,2.997621,-0.045324,1.218627,-0.001419,-0.002869,0.000697,0.143327,0.045308,0.988638,-0.007631,-0.002370,0.000269,-103.834297,237.907425,-133.286774,,,,,,
1465827694.87,2.997478,-0.045379,1.218631,-0.002475,0.002442,-0.000402,0.143468,0.045364,0.988615,-0.004705,0.003907,-0.001951,-103.834297,237.907425,-133.286774,,,,,,
1465827694.89,2.997558,-0.045169,1.218618,0.000683,-0.021985,0.001883,0.143390,0.045154,0.988636,-0.004947,-0.008914,0.011868,-103.834297,237.907425,-133.286774,,,,,,
1465827694.90,2.997362,-0.044918,1.218614,0.001731,-0.035785,0.000906,0.143586,0.044903,0.988619,-0.007737,-0.015072,0.010206,-103.807938,237.907196,-133.307709,,,,,,
1465827694.91,2.997202,-0.044794,1.218625,0.006007,-0.025163,-0.001285,0.143745,0.044779,0.988601,-0.006996,-0.010050,0.007477,-103.807938,237.907196,-133.307709,,,,,,
1465827694.92,2.997215,-0.044866,1.218627,0.006018,-0.014546,-0.000287,0.143732,0.044851,0.988600,-0.010065,0.000590,0.000002,-103.807938,237.907196,-133.307709,,,,,,
1465827694.93,2.997289,-0.045047,1.218639,0.001775,-0.003922,-0.001422,0.143658,0.045032,0.988602,-0.009045,0.008832,-0.005753,-103.846420,237.974396,-133.157730,,,,,,
1465827694.94,2.997374,-0.045224,1.218649,0.001774,-0.003925,-0.000358,0.143572,0.045208,0.988607,-0.007708,0.008320,-0.004751,-103.846420,237.974396,-133.157730,,,,,,
1465827694.95,2.997435,-0.045225,1.218650,0.001769,-0.008171,-0.000332,0.143512,0.045210,0.988615,-0.007358,-0.000929,0.001268,-103.846420,237.974396,-133.157730,,,,,,
1465827694.96,2.997540,-0.045126,1.218650,0.004966,-0.004986,-0.000348,0.143409,0.045111,0.988635,-0.008857,-0.007788,0.009427,-103.842720,237.920029,-133.257706,,,,,,
1465827694.98,2.997723,-0.045006,1.218672,0.002847,0.002452,-0.001461,0.143228,0.044991,0.988667,-0.007059,-0.002648,0.000561,-103.842720,237.920029,-133.257706,,,,,,
1465827694.97,2.997604,-0.045010,1.218663,0.003901,-0.006044,-0.001407,0.143346,0.044995,0.988649,-0.006459,-0.009366,0.004545,-103.842720,237.920029,-133.257706,,,,,,
1465827694.99,2.997847,-0.045238,1.218677,0.001783,0.003512,-0.000405,0.143104,0.045222,0.988674,-0.006477,0.011800,-0.006710,-103.794388,237.950027,-133.241791,,,,,,
1465827695.00,2.997927,-0.045373,1.218675,-0.002489,-0.006044,0.000715,0.143025,0.045357,0.988679,-0.007771,0.007576,-0.004808,-103.794388,237.950027,-133.241791,,,,,,
1465827695.01,2.997982,-0.045376,1.218683,0.000715,0.000329,-0.000386,0.142970,0.045361,0.988687,-0.005549,-0.000012,-0.001367,-103.794388,237.950027,-133.241791,,,,,,
1465827695.02,2.998046,-0.045266,1.218704,0.000713,-0.003912,-0.002488,0.142908,0.045250,0.988701,-0.003626,-0.007286,0.006477,-103.780464,237.895950,-133.349152,,,,,,
1465827695.03,2.998088,-0.045197,1.218723,0.003899,-0.010284,-0.002445,0.142867,0.045182,0.988710,-0.006102,-0.006333,0.007338,-103.780464,237.895950,-133.349152,,,,,,
1465827695.04,2.998047,-0.045353,1.218744,-0.002499,-0.016654,-0.001347,0.142906,0.045337,0.988697,-0.008415,0.009854,-0.007710,-103.780464,237.895950,-133.349152,,,,,,
1465827695.05,2.997986,-0.045435,1.218752,-0.005698,-0.017719,0.000785,0.142966,0.045419,0.988685,-0.006965,0.006979,-0.006019,-103.780441,237.893051,-133.354324,,,,,,
1465827695.06,2.997928,-0.045266,1.218750,0.000698,-0.011351,0.000752,0.143025,0.045250,0.988684,-0.003681,-0.008873,0.007730,-103.780441,237.893051,-133.354324,,,,,,
1465827695.07,2.997855,-0.044958,1.218751,0.001751,-0.018783,0.000799,0.143098,0.044942,0.988688,-0.005876,-0.018865,0.006536,-103.780441,237.893051,-133.354324,,,,,,
1465827695.08,2.997712,-0.044899,1.218763,0.001748,-0.024086,-0.001296,0.143240,0.044884,0.988670,-0.005942,-0.005715,0.005654,-103.794830,237.905380,-133.321167,,,,,,
1465827695.10,2.997423,-0.045211,1.218775,0.001753,-0.021960,-0.001310,0.143524,0.045196,0.988614,-0.007111,0.007722,-0.002637,-103.794830,237.905380,-133.321167,,,,,,
1465827695.09,2.997603,-0.045059,1.218765,0.004927,-0.035769,-0.000155,0.143347,0.045044,0.988647,-0.008749,0.006928,0.002823,-103.794830,237.905380,-133.321167,,,,,,
1465827695.11,2.997391,-0.045161,1.218776,-0.001518,-0.027924,0.001949,0.143556,0.045145,0.988612,-0.011323,-0.002543,0.004247,-103.866272,237.911362,-133.254837,,,,,,
1465827695.13,2.997393,-0.045021,1.218807,-0.000434,-0.015176,-0.000258,0.143555,0.045005,0.988619,-0.009872,-0.001716,-0.003389,-103.866272,237.911362,-133.254837,,,,,,
1465827695.12,2.997347,-0.045044,1.218792,0.002773,-0.006681,-0.001373,0.143600,0.045028,0.988611,-0.005524,-0.007507,0.007468,-103.866272,237.911362,-133.254837,,,,,,
1465827695.14,2.997443,-0.045001,1.218818,0.001708,-0.006679,-0.001374,0.143506,0.044986,0.988626,-0.008099,-0.002673,0.006262,-103.874809,237.934448,-133.206924,,,,,,
1465827695.15,2.997519,-0.044920,1.218819,0.004891,-0.013053,-0.000266,0.143431,0.044904,0.988641,-0.010756,-0.006712,0.003562,-103.874809,237.934448,-133.206924,,,,,,
1465827695.16,2.997538,-0.044905,1.218818,0.003841,-0.001372,-0.000340,0.143412,0.044890,0.988644,-0.003718,-0.003982,0.003772,-103.874809,237.934448,-133.206924,,,,,,
1465827695.17,2.997677,-0.045011,1.218822,0.003835,-0.006680,-0.000307,0.143274,0.044996,0.988660,-0.010157,0.003557,-0.000348,-103.850716,237.952621,-133.193253,,,,,,
1465827695.18,2.997727,-0.045108,1.218835,-0.000414,0.000755,-0.000358,0.143224,0.045092,0.988662,-0.006322,0.005323,-0.004226,-103.850716,237.952621,-133.193253,,,,,,
1465827695.19,2.997870,-0.045172,1.218832,0.000647,-0.000309,0.000714,0.143082,0.045157,0.988680,-0.006699,0.003503,0.000990,-103.850716,237.952621,-133.193253,,,,,,
1465827695.20,2.997945,-0.045157,1.218849,0.002781,-0.000304,-0.001413,0.143008,0.045142,0.988692,-0.005648,-0.001670,0.002138,-103.836624,237.921509,-133.259827,,,,,,
1465827695.21,2.998036,-0.045064,1.218859,0.001716,-0.000303,-0.001414,0.142919,0.045049,0.988709,-0.005163,-0.006551,0.003097,-103.836624,237.921509,-133.259827,,,,,,
1465827695.22,2.998122,-0.045103,1.218858,0.002778,-0.000305,-0.000349,0.142833,0.045088,0.988719,-0.006237,0.000673,0.000737,-103.812584,237.913086,-133.293579,,,,,,
1465827695.23,2.998161,-0.045059,1.218857,0.003821,-0.017294,-0.000241,0.142795,0.045044,0.988727,-0.007572,-0.004272,0.008115,-103.812584,237.913086,-133.293579,,,,,,
1465827695.25,2.998201,-0.045045,1.218867,0.001699,-0.009862,0.000775,0.142756,0.045030,0.988733,-0.006266,-0.001130,0.001532,-103.789383,237.920258,-133.298859,,,,,,
1465827695.24,2.998161,-0.045037,1.218869,0.005971,-0.004547,-0.002448,0.142796,0.045022,0.988728,-0.005466,-0.004021,0.001125,-103.789383,237.920258,-133.298859,,,,,,
1465827695.26,2.998150,-0.045108,1.218877,0.001662,-0.011734,-0.000260,0.142806,0.045093,0.988723,-0.004516,0.002820,-0.002761,-103.789383,237.920258,-133.298859,,,,,,
1465827695.27,2.998083,-0.045217,1.218874,-0.001544,-0.020230,0.000855,0.142871,0.045202,0.988709,-0.006336,0.006693,-0.001816,-103.790390,237.917953,-133.302170,,,,,,
1465827695.28,2.997993,-0.045184,1.218892,-0.000470,-0.015977,-0.001300,0.142961,0.045168,0.988697,-0.005006,-0.001452,0.001736,-103.790390,237.917953,-133.302170,,,,,,
1465827695.29,2.998002,-0.045172,1.218896,-0.000465,-0.010670,-0.000269,0.142952,0.045156,0.988699,-0.008385,-0.000479,-0.000525,-103.790390,237.917953,-133.302170,,,,,,
1465827695.30,2.997940,-0.045089,1.218901,-0.003673,-0.019165,0.000846,0.143013,0.045073,0.988694,-0.006584,-0.003585,0.003097,-103.817459,237.905594,-133.303146,,,,,,
1465827695.31,2.997874,-0.045102,1.218909,0.001658,-0.017037,-0.001291,0.143078,0.045086,0.988684,-0.006268,0.001026,0.000925,-103.817459,237.905594,-133.303146,,,,,,
1465827695.32,2.997840,-0.045016,1.218920,0.002720,-0.017040,-0.000226,0.143112,0.045000,0.988683,-0.006836,-0.005862,0.008494,-103.817459,237.905594,-133.303146,,,,,,
1465827695.34,2.997727,-0.044934,1.218919,0.002714,-0.020227,0.000859,0.143226,0.044919,0.988670,-0.006873,-0.006024,0.006218,-103.817459,237.905594,-133.303146,,,,,,
1465827695.33,2.997782,-0.045012,1.218920,0.000591,-0.014918,0.000823,0.143171,0.044997,0.988675,-0.006009,-0.000502,0.001468,-103.817459,237.905594,-133.303146,,,,,,
1465827695.35,2.997702,-0.044889,1.218925,0.002727,-0.012788,-0.001317,0.143250,0.044874,0.988669,-0.007752,-0.003782,-0.001166,-103.851059,237.939941,-133.215652,,,,,,
1465827695.36,2.997748,-0.044853,1.218940,0.000600,-0.008541,-0.000281,0.143205,0.044838,0.988677,-0.006929,-0.003624,0.007127,-103.851059,237.939941,-133.215652,,,,,,
1465827695.37,2.997764,-0.044845,1.218949,0.003792,-0.010666,-0.000264,0.143190,0.044830,0.988679,-0.007768,-0.002471,0.002104,-103.850487,237.950089,-133.197983,,,,,,
1465827695.38,2.997817,-0.044824,1.218958,0.003795,-0.009600,-0.001336,0.143137,0.044809,0.988688,-0.008173,-0.003366,0.006124,-103.850487,237.950089,-133.197983,,,,,,
1465827695.39,2.997892,-0.044873,1.218968,0.003801,-0.003231,-0.000311,0.143062,0.044858,0.988697,-0.007625,0.000873,0.000958,-103.850487,237.950089,-133.197983,,,,,,
1465827695.40,2.997987,-0.044913,1.218980,0.003801,-0.004289,-0.001369,0.142969,0.044898,0.988708,-0.007699,-0.000540,0.003800,-103.844727,237.952835,-133.197556,,,,,,
1465827695.41,2.998018,-0.044982,1.218987,0.004862,-0.007475,-0.001348,0.142937,0.044967,0.988710,-0.006050,0.001420,0.000289,-103.844727,237.952835,-133.197556,,,,,,
1465827695.42,2.998103,-0.045012,1.219001,0.002706,-0.000849,-0.001374,0.142853,0.044997,0.988721,-0.006668,-0.000029,-0.000302,-103.844727,237.952835,-133.197556,,,,,,
1465827695.43,2.998225,-0.045016,1.219012,0.002700,-0.004036,-0.000289,0.142732,0.045001,0.988738,-0.008058,-0.001269,0.005052,-103.823364,237.921661,-133.269882,,,,,,
1465827695.44,2.998258,-0.045070,1.219003,0.003761,-0.005101,0.000783,0.142699,0.045055,0.988740,-0.005279,0.001057,0.001052,-103.823364,237.921661,-133.269882,,,,,,
1465827695.45,2.998329,-0.045066,1.219012,0.002698,-0.005097,-0.000282,0.142629,0.045050,0.988750,-0.006094,-0.002143,0.004261,-103.823364,237.921661,-133.269882,,,,,,
1465827695.46,2.998377,-0.045069,1.219022,0.002696,-0.008279,-0.001327,0.142582,0.045054,0.988757,-0.007740,-0.001460,0.000913,-103.805183,237.912903,-133.299652,,,,,,
1465827695.47,2.998340,-0.045101,1.219015,0.003753,-0.011470,0.000823,0.142618,0.045086,0.988750,-0.003733,-0.000851,0.002918,-103.805183,237.912903,-133.299652,,,,,,
1465827695.48,2.998309,-0.045163,1.219020,0.000561,-0.011465,-0.000245,0.142648,0.045148,0.988743,-0.006067,0.002963,0.000331,-103.805183,237.912903,-133.299652,,,,,,
1465827695.49,2.998316,-0.045168,1.219017,0.000559,-0.011467,0.000820,0.142642,0.045152,0.988744,-0.006762,0.000273,-0.000219,-103.805183,237.912903,-133.299652,,,,,,
1465827695.50,2.998286,-0.045193,1.219027,0.002690,-0.013585,-0.001294,0.142670,0.045178,0.988739,-0.006684,0.000476,0.000885,-103.805618,237.897858,-133.326157,,,,,,
1465827695.51,2.998217,-0.045114,1.219043,0.002690,-0.013585,-0.001294,0.142739,0.045099,0.988732,-0.003106,-0.007089,0.009269,-103.805618,237.897858,-133.326157,,,,,,
1465827695.52,2.998146,-0.045119,1.219044,0.004816,-0.015709,-0.001278,0.142809,0.045104,0.988722,-0.005724,-0.001678,-0.000532,-103.811424,237.892853,-133.330627,,,,,,
1465827695.53,2.998094,-0.045114,1.219060,0.000552,-0.017833,-0.000205,0.142861,0.045099,0.988715,-0.005990,-0.000894,0.005151,-103.811424,237.892853,-133.330627,,,,,,
1465827695.54,2.998055,-0.045145,1.219060,0.005875,-0.016776,0.000858,0.142899,0.045130,0.988708,-0.007889,-0.001413,0.000092,-103.811424,237.892853,-133.330627,,,,,,
1465827695.55,2.997982,-0.045105,1.219059,0.005884,-0.011463,-0.000239,0.142972,0.045090,0.988699,-0.004071,-0.005142,0.003183,-103.848526,237.897171,-133.293976,,,,,,
1465827695.57,2.997954,-0.045096,1.219081,0.008007,-0.017831,-0.001262,0.142999,0.045081,0.988696,-0.008264,-0.002905,0.002409,-103.848526,237.897171,-133.293976,,,,,,
1465827695.56,2.997975,-0.045074,1.219072,0.002689,-0.013582,-0.001294,0.142979,0.045059,0.988700,-0.005894,-0.003952,0.007089,-103.848526,237.897171,-133.293976,,,,,,
1465827695.58,2.997895,-0.045148,1.219094,0.006943,-0.018888,-0.002321,0.143058,0.045132,0.988685,-0.006705,-0.001095,0.004083,-103.859497,237.906647,-133.268509,,,,,,
1465827695.59,2.997865,-0.045167,1.219095,0.009033,-0.018638,-0.000174,0.143088,0.045152,0.988680,-0.007986,-0.003846,0.004134,-103.859497,237.906647,-133.268509,,,,,,
1465827695.60,2.997881,-0.045178,1.219109,0.007978,-0.014383,-0.002330,0.143072,0.045163,0.988681,-0.009664,-0.004132,0.004895,-103.859497,237.906647,-133.268509,,,,,,
1465827695.61,2.997901,-0.045170,1.219109,0.006908,-0.014388,-0.000202,0.143052,0.045154,0.988685,-0.008820,-0.004230,0.003549,-103.884689,237.888229,-133.281754,,,,,,
1465827695.63,2.998024,-0.045221,1.219138,0.009046,-0.009075,-0.001298,0.142930,0.045205,0.988700,-0.010087,-0.002130,0.002267,-103.884689,237.888229,-133.281754,,,,,,
1465827695.62,2.997942,-0.045174,1.219123,0.006916,-0.011196,-0.002351,0.143011,0.045159,0.988690,-0.009436,-0.004479,0.005557,-103.884689,237.888229,-133.281754,,,,,,
1465827695.64,2.998022,-0.045341,1.219136,0.011170,-0.013322,-0.001269,0.142931,0.045326,0.988694,-0.007387,0.001107,0.002074,-103.879814,237.887650,-133.286606,,,,,,
1465827695.65,2.998063,-0.045420,1.219141,0.006921,-0.005887,-0.001320,0.142890,0.045405,0.988697,-0.005973,-0.000666,0.005017,-103.879814,237.887650,-133.286606,,,,,,
1465827695.66,2.998104,-0.045512,1.219154,0.006920,-0.006948,-0.001314,0.142849,0.045496,0.988698,-0.007259,0.000479,0.000392,-103.879814,237.887650,-133.286606,,,,,,
1465827695.67,2.998200,-0.045560,1.219163,0.005861,-0.001638,-0.001348,0.142753,0.045544,0.988710,-0.006843,-0.001065,0.001555,-103.879814,237.887650,-133.286606,,,,,,
1465827695.68,2.998348,-0.045681,1.219179,0.006931,0.001548,-0.001367,0.142607,0.045665,0.988725,-0.006269,0.000478,-0.000780,-103.876968,237.835526,-133.381790,,,,,,
1465827695.69,2.998438,-0.045764,1.219187,0.006929,0.000486,-0.001360,0.142517,0.045748,0.988735,-0.004684,0.000959,-0.001125,-103.876968,237.835526,-133.381790,,,,,,
1465827695.70,2.998533,-0.045865,1.219195,0.006930,0.000487,-0.001360,0.142422,0.045848,0.988744,-0.005124,0.002018,-0.000233,-103.876968,237.835526,-133.381790,,,,,,
1465827695.71,2.998527,-0.045976,1.219200,0.006925,-0.003760,-0.001334,0.142427,0.045960,0.988738,-0.001619,0.002396,0.000078,-103.841782,237.780228,-133.507736,,,,,,
1465827695.72,2.998527,-0.046059,1.219195,0.006920,-0.005886,-0.000256,0.142427,0.046043,0.988734,-0.004091,0.000741,-0.001490,-103.841782,237.780228,-133.507736,,,,,,
1465827695.73,2.998496,-0.046098,1.219187,0.004784,-0.009073,0.000826,0.142457,0.046081,0.988728,-0.003968,-0.001160,0.000408,-103.849236,237.751617,-133.552887,,,,,,
1465827695.74,2.998427,-0.046137,1.219192,0.002656,-0.011189,-0.001291,0.142525,0.046121,0.988716,-0.002404,0.000342,-0.000572,-103.849236,237.751617,-133.552887,,,,,,
1465827695.75,2.998363,-0.046169,1.219202,0.004750,-0.012003,-0.000203,0.142588,0.046153,0.988705,-0.003230,-0.000468,-0.000531,-103.849236,237.751617,-133.552887,,,,,,
1465827695.76,2.998259,-0.046222,1.219201,0.001550,-0.016249,-0.000180,0.142691,0.046205,0.988688,-0.003287,0.001250,0.000066,-103.864319,237.740448,-133.561020,,,,,,
1465827695.78,2.998087,-0.046333,1.219211,0.003677,-0.018372,-0.000164,0.142860,0.046316,0.988659,-0.005058,0.001612,0.001408,-103.864319,237.740448,-133.561020,,,,,,
1465827695.77,2.998180,-0.046269,1.219206,0.003682,-0.016246,-0.001242,0.142769,0.046252,0.988675,-0.005867,-0.000155,-0.000943,-103.864319,237.740448,-133.561020,,,,,,
1465827695.79,2.998016,-0.046369,1.219232,0.001549,-0.019429,-0.001224,0.142930,0.046352,0.988647,-0.007248,0.000874,-0.002700,-103.921165,237.710022,-133.570984,,,,,,
1465827695.80,2.997935,-0.046392,1.219247,0.001549,-0.019429,-0.001224,0.143010,0.046376,0.988634,-0.007512,0.000026,0.000059,-103.921165,237.710022,-133.570984,,,,,,
1465827695.81,2.997892,-0.046415,1.219260,0.000484,-0.018368,-0.000168,0.143052,0.046398,0.988627,-0.008103,0.001316,0.000829,-103.921165,237.710022,-133.570984,,,,,,
1465827695.82,2.997840,-0.046393,1.219271,0.000490,-0.015179,-0.001252,0.143104,0.046376,0.988621,-0.006553,-0.001882,0.003506,-103.951950,237.698334,-133.567810,,,,,,
1465827695.83,2.997793,-0.046398,1.219280,0.002619,-0.015180,-0.001250,0.143151,0.046381,0.988613,-0.005852,-0.000910,0.003437,-103.951950,237.698334,-133.567810,,,,,,
1465827695.84,2.997808,-0.046380,1.219285,0.002621,-0.011996,-0.000205,0.143136,0.046363,0.988617,-0.008217,-0.002266,0.002213,-103.951950,237.698334,-133.567810,,,,,,
1465827695.85,2.997796,-0.046334,1.219294,0.002624,-0.010931,-0.001277,0.143148,0.046318,0.988617,-0.005697,-0.004234,0.003601,-103.977875,237.696884,-133.550232,,,,,,
1465827695.86,2.997865,-0.046316,1.219310,0.003688,-0.010931,-0.001276,0.143080,0.046299,0.988628,-0.009611,-0.003010,0.003835,-103.977875,237.696884,-133.550232,,,,,,
1465827695.87,2.997878,-0.046327,1.219311,0.004753,-0.008810,-0.000223,0.143067,0.046311,0.988629,-0.005967,-0.001633,0.005802,-103.977875,237.696884,-133.550232,,,,,,
1465827695.88,2.997902,-0.046327,1.219317,0.005821,-0.007745,-0.001293,0.143043,0.046311,0.988632,-0.006004,-0.002564,0.000961,-103.973900,237.704330,-133.540054,,,,,,
1465827695.89,2.997969,-0.046326,1.219339,0.003697,-0.003496,-0.001322,0.142977,0.046310,0.988642,-0.006212,-0.003097,0.001333,-103.973900,237.704330,-133.540054,,,,,,
1465827695.90,2.998033,-0.046400,1.219355,0.005821,-0.007744,-0.001293,0.142913,0.046383,0.988648,-0.007415,0.001087,0.001083,-103.973900,237.704330,-133.540054,,,,,,
1465827695.91,2.998064,-0.046438,1.219371,0.004728,-0.008569,-0.002339,0.142882,0.046421,0.988651,-0.007170,-0.001011,0.001309,-103.965317,237.688141,-133.575562,,,,,,
1465827695.92,2.998103,-0.046466,1.219374,0.003663,-0.005388,-0.000231,0.142843,0.046449,0.988655,-0.005728,-0.000184,0.001412,-103.965317,237.688141,-133.575562,,,,,,
1465827695.93,2.998144,-0.046453,1.219389,0.001531,-0.008569,-0.001278,0.142803,0.046436,0.988661,-0.006374,-0.002064,0.001970,-103.965317,237.688141,-133.575562,,,,,,
1465827695.94,2.998204,-0.046377,1.219395,0.005793,-0.004326,-0.000236,0.142744,0.046360,0.988673,-0.005736,-0.006978,0.003377,-103.962616,237.676895,-133.597656,,,,,,
1465827695.96,2.998267,-0.046372,1.219407,0.006846,-0.012820,-0.000181,0.142682,0.046355,0.988683,-0.006772,-0.002089,0.003047,-103.962616,237.676895,-133.597656,,,,,,
1465827695.95,2.998255,-0.046344,1.219403,0.006859,-0.004323,-0.001299,0.142694,0.046327,0.988682,-0.004907,-0.005739,0.003429,-103.962616,237.676895,-133.597656,,,,,,
1465827695.97,2.998199,-0.046428,1.219406,0.003648,-0.016003,-0.000165,0.142749,0.046411,0.988670,-0.005862,0.000525,0.000557,-103.945473,237.687988,-133.591232,,,,,,
1465827695.98,2.998149,-0.046435,1.219405,0.004717,-0.012818,-0.000183,0.142798,0.046418,0.988663,-0.005087,-0.002549,0.004623,-103.945473,237.687988,-133.591232,,,,,,
1465827695.99,2.998109,-0.046472,1.219406,0.007905,-0.017066,-0.000154,0.142838,0.046455,0.988655,-0.006089,-0.002113,0.003792,-103.945473,237.687988,-133.591232,,,,,,
1465827696.00,2.998087,-0.046538,1.219415,0.005787,-0.011749,-0.002318,0.142859,0.046521,0.988649,-0.007056,0.000125,0.002257,-103.962868,237.678864,-133.593918,,,,,,
1465827696.02,2.998087,-0.046703,1.219430,0.004723,-0.009627,-0.001268,0.142858,0.046686,0.988642,-0.006352,0.002264,0.001181,-103.962868,237.678864,-133.593918,,,,,,
1465827696.01,2.998091,-0.046617,1.219424,0.005785,-0.011751,-0.001254,0.142854,0.046600,0.988646,-0.007646,0.000839,0.000429,-103.962868,237.678864,-133.593918,,,,,,
1465827696.03,2.998076,-0.046759,1.219448,0.006851,-0.012810,-0.002310,0.142869,0.046742,0.988637,-0.006272,-0.000844,0.003047,-103.986343,237.637283,-133.649628,,,,,,
1465827696.04,2.998108,-0.046778,1.219460,0.004722,-0.010687,-0.001261,0.142837,0.046761,0.988641,-0.008300,-0.002052,0.002768,-103.986343,237.637283,-133.649628,,,,,,
1465827696.05,2.998124,-0.046807,1.219464,0.005785,-0.009628,-0.000203,0.142820,0.046790,0.988642,-0.006331,-0.001441,0.001119,-103.986343,237.637283,-133.649628,,,,,,
1465827696.06,2.998103,-0.046841,1.219476,0.006851,-0.010687,-0.001259,0.142840,0.046824,0.988638,-0.004962,-0.002345,0.004023,-103.993378,237.623825,-133.668121,,,,,,
1465827696.08,2.998094,-0.046919,1.219496,0.004696,-0.006202,-0.001275,0.142850,0.046902,0.988632,-0.004788,-0.001050,0.001205,-103.993378,237.623825,-133.668121,,,,,,
1465827696.07,2.998083,-0.046883,1.219482,0.005758,-0.008326,-0.001261,0.142860,0.046866,0.988633,-0.004142,-0.001608,0.002273,-103.993378,237.623825,-133.668121,,,,,,
1465827696.09,2.998126,-0.046975,1.219504,0.007885,-0.010450,-0.001245,0.142817,0.046958,0.988634,-0.007274,-0.001105,0.002409,-104.008888,237.599884,-133.698563,,,,,,
1465827696.11,2.998175,-0.047125,1.219535,0.005755,-0.011509,-0.001241,0.142768,0.047108,0.988635,-0.007239,0.000042,0.001081,-104.008888,237.599884,-133.698563,,,,,,
1465827696.10,2.998152,-0.047071,1.219525,0.005758,-0.010445,-0.002312,0.142791,0.047053,0.988634,-0.007736,0.002049,0.000624,-104.008888,237.599884,-133.698563,,,,,,
1465827696.12,2.998167,-0.047273,1.219545,0.004698,-0.005137,-0.001282,0.142775,0.047256,0.988626,-0.004530,0.005723,-0.002542,-104.013107,237.575226,-133.739136,,,,,,
1465827696.13,2.998228,-0.047347,1.219551,0.001501,-0.006200,-0.000214,0.142714,0.047329,0.988632,-0.006697,0.001682,-0.001983,-104.013107,237.575226,-133.739136,,,,,,
1465827696.15,2.998254,-0.047464,1.219565,0.001503,-0.005137,-0.000221,0.142687,0.047446,0.988630,-0.005099,0.000970,0.001131,-104.022751,237.543747,-133.787552,,,,,,
1465827696.14,2.998228,-0.047432,1.219556,0.000433,-0.009384,-0.000195,0.142713,0.047414,0.988628,-0.006208,0.004039,-0.001338,-104.022751,237.543747,-133.787552,,,,,,
1465827696.16,2.998281,-0.047539,1.219563,0.001505,-0.004075,-0.000228,0.142660,0.047521,0.988630,-0.004919,0.003397,-0.003523,-104.022751,237.543747,-133.787552,,,,,,
1465827696.17,2.998373,-0.047581,1.219557,0.001509,0.001232,0.000803,0.142569,0.047563,0.988641,-0.004493,0.001693,0.001837,-104.022751,237.543747,-133.787552,,,,,,
1465827696.18,2.998443,-0.047635,1.219562,0.000440,-0.004073,-0.000229,0.142499,0.047617,0.988649,-0.006131,0.002477,-0.002901,-104.020981,237.503021,-133.861191,,,,,,
1465827696.19,2.998454,-0.047639,1.219576,0.002567,-0.008318,-0.001265,0.142488,0.047621,0.988650,-0.004564,-0.001067,0.000959,-104.020981,237.503021,-133.861191,,,,,,
1465827696.20,2.998434,-0.047649,1.219577,0.000430,-0.010446,0.000875,0.142508,0.047631,0.988647,-0.004416,0.000953,0.000504,-104.002357,237.488861,-133.900711,,,,,,
1465827696.21,2.998412,-0.047621,1.219583,0.000431,-0.011505,-0.000182,0.142530,0.047603,0.988645,-0.004163,-0.001277,0.001162,-104.002357,237.488861,-133.900711,,,,,,
1465827696.22,2.998396,-0.047586,1.219591,-0.001723,-0.007031,-0.000200,0.142546,0.047568,0.988644,-0.004149,-0.001151,-0.001187,-104.002357,237.488861,-133.900711,,,,,,
1465827696.23,2.998395,-0.047541,1.219609,-0.002791,-0.011275,-0.001238,0.142547,0.047523,0.988647,-0.006561,-0.002693,0.001130,-104.013824,237.493774,-133.883163,,,,,,
1465827696.24,2.998349,-0.047558,1.219615,0.000396,-0.015526,-0.000144,0.142592,0.047540,0.988639,-0.005767,0.001120,0.001519,-104.013824,237.493774,-133.883163,,,,,,
1465827696.25,2.998269,-0.047497,1.219627,-0.001733,-0.014462,-0.000153,0.142672,0.047479,0.988631,-0.003832,-0.002649,0.000551,-104.013824,237.493774,-133.883163,,,,,,
1465827696.26,2.998196,-0.047504,1.219634,-0.000673,-0.018710,-0.000125,0.142745,0.047486,0.988620,-0.006224,0.000442,0.000226,-104.013824,237.493774,-133.883163,,,,,,
1465827696.27,2.998171,-0.047475,1.219637,-0.000668,-0.014462,-0.000152,0.142769,0.047457,0.988618,-0.006371,-0.000933,0.001708,-104.048172,237.502289,-133.841370,,,,,,
1465827696.28,2.998138,-0.047479,1.219646,-0.000670,-0.016585,-0.000139,0.142802,0.047461,0.988613,-0.007457,0.000848,-0.000591,-104.048172,237.502289,-133.841370,,,,,,
1465827696.30,2.998136,-0.047334,1.219645,-0.002800,-0.014461,0.000910,0.142805,0.047317,0.988619,-0.009336,-0.004516,0.003416,-104.058014,237.504944,-133.828995,,,,,,
1465827696.29,2.998113,-0.047441,1.219642,0.001458,-0.015526,0.000921,0.142827,0.047423,0.988611,-0.007130,-0.002318,0.003317,-104.058014,237.504944,-133.828995,,,,,,
1465827696.31,2.998089,-0.047258,1.219641,0.000393,-0.015524,0.000920,0.142852,0.047240,0.988616,-0.006225,-0.004409,0.007111,-104.058014,237.504944,-133.828995,,,,,,
1465827696.32,2.998141,-0.047142,1.219652,-0.001729,-0.010210,-0.000180,0.142801,0.047125,0.988629,-0.010096,-0.006216,0.007785,-104.058014,237.504944,-133.828995,,,,,,
1465827696.33,2.998129,-0.047091,1.219652,0.003583,-0.017647,0.000937,0.142814,0.047073,0.988630,-0.008979,-0.004394,0.004809,-104.047699,237.554016,-133.749893,,,,,,
1465827696.34,2.998155,-0.047012,1.219662,0.001464,-0.012331,-0.001228,0.142788,0.046995,0.988637,-0.008450,-0.006040,0.007686,-104.047699,237.554016,-133.749893,,,,,,
1465827696.35,2.998176,-0.046950,1.219672,0.003590,-0.013396,-0.000154,0.142768,0.046933,0.988643,-0.008171,-0.005460,0.004765,-104.043884,237.572327,-133.720337,,,,,,
1465827696.36,2.998141,-0.047007,1.219678,0.008911,-0.016580,-0.001193,0.142802,0.046990,0.988635,-0.006495,-0.001275,0.004605,-104.043884,237.572327,-133.720337,,,,,,
1465827696.37,2.998155,-0.047027,1.219679,0.004657,-0.011271,-0.000167,0.142788,0.047009,0.988636,-0.007687,-0.001462,0.005398,-104.043884,237.572327,-133.720337,,,,,,
1465827696.38,2.998193,-0.047031,1.219695,0.005692,-0.011038,-0.002283,0.142750,0.047014,0.988642,-0.008061,-0.003160,0.005606,-104.043884,237.572327,-133.720337,,,,,,
1465827696.39,2.998226,-0.047036,1.219699,0.007819,-0.009982,-0.000158,0.142718,0.047019,0.988646,-0.007739,-0.003638,0.005128,-104.047310,237.566818,-133.727448,,,,,,
1465827696.40,2.998283,-0.047029,1.219717,0.007825,-0.007852,-0.002301,0.142662,0.047012,0.988654,-0.007515,-0.005187,0.005059,-104.047310,237.566818,-133.727448,,,,,,
,,,,,,,,,,,,,,,,29.719984,-95.399048,10.351268,-1.000000,-1.000000,1465828766.76
1465827696.42,2.998411,-0.047037,1.219725,0.011019,-0.005731,-0.001246,0.142535,0.047020,0.988672,-0.006426,-0.006859,0.003424,-104.040504,237.565262,-133.735504,,,,,,
1465827696.41,2.998371,-0.047035,1.219719,0.009952,-0.007855,-0.001234,0.142574,0.047017,0.988667,-0.008358,-0.004552,0.006176,-104.040504,237.565262,-133.735504,,,,,,
1465827696.43,2.998490,-0.047010,1.219726,0.013150,-0.003608,-0.001257,0.142457,0.046992,0.988685,-0.006441,-0.008845,0.006188,-104.040504,237.565262,-133.735504,,,,,,
1465827696.44,2.998540,-0.046987,1.219725,0.016342,-0.004671,-0.001247,0.142408,0.046970,0.988693,-0.004545,-0.011020,0.009659,-104.040504,237.565262,-133.735504,,,,,,
1465827696.45,2.998633,-0.046951,1.219721,0.020599,-0.006793,-0.002294,0.142316,0.046934,0.988708,-0.008680,-0.014311,0.013337,-104.006729,237.570755,-133.752014,,,,,,
1465827696.46,2.998642,-0.046992,1.219725,0.021651,-0.016349,-0.002233,0.142307,0.046975,0.988707,-0.007023,-0.010354,0.014146,-104.006729,237.570755,-133.752014,,,,,,
1465827696.47,2.998549,-0.047069,1.219729,0.024835,-0.025903,-0.003234,0.142399,0.047052,0.988690,-0.007526,-0.009957,0.010760,-103.993149,237.570053,-133.763824,,,,,,
1465827696.48,2.998428,-0.047255,1.219736,0.025899,-0.025903,-0.003233,0.142517,0.047237,0.988665,-0.007706,-0.004589,0.006178,-103.993149,237.570053,-133.763824,,,,,,
1465827696.49,2.998303,-0.047524,1.219736,0.025903,-0.022717,-0.003253,0.142639,0.047506,0.988634,-0.006851,-0.000052,0.001478,-103.993149,237.570053,-133.763824,,,,,,
1465827696.50,2.998292,-0.047837,1.219730,0.021658,-0.008916,-0.001215,0.142647,0.047818,0.988618,-0.007409,0.004107,0.000228,-103.993149,237.570053,-133.763824,,,,,,
1465827696.51,2.998376,-0.048219,1.219738,0.021677,0.000649,-0.004469,0.142562,0.048200,0.988612,-0.006819,0.009432,-0.006220,-104.069771,237.445221,-133.925766,,,,,,
1465827696.52,2.998527,-0.048675,1.219750,0.017427,0.008082,-0.003455,0.142410,0.048655,0.988611,-0.007278,0.014836,-0.009027,-104.069771,237.445221,-133.925766,,,,,,
1465827696.54,2.999002,-0.049587,1.219755,0.011054,0.020821,-0.001413,0.141934,0.049566,0.988634,-0.004635,0.018244,-0.015398,-104.071533,237.319931,-134.146317,,,,,,
1465827696.53,2.998744,-0.049143,1.219750,0.013180,0.019758,-0.001404,0.142192,0.049124,0.988619,-0.005000,0.018061,-0.012454,-104.071533,237.319931,-134.146317,,,,,,
1465827696.55,2.999246,-0.049986,1.219753,0.005736,0.026130,-0.000388,0.141690,0.049966,0.988649,-0.002392,0.018058,-0.014543,-104.071533,237.319931,-134.146317,,,,,,
1465827696.56,2.999504,-0.050242,1.219755,0.002550,0.031440,-0.000424,0.141433,0.050221,0.988673,0.001329,0.012264,-0.011897,-104.071533,237.319931,-134.146317,,,,,,
1465827696.57,2.999702,-0.050331,1.219757,-0.001719,0.022948,-0.000375,0.141236,0.050309,0.988697,0.002501,0.004988,-0.006504,-103.994415,237.087814,-134.615753,,,,,,
1465827696.58,2.999775,-0.050412,1.219760,-0.001740,0.005959,-0.000269,0.141163,0.050391,0.988703,0.001797,0.005426,-0.002360,-103.994415,237.087814,-134.615753,,,,,,
1465827696.60,2.999439,-0.050334,1.219749,-0.005016,-0.021358,0.000981,0.141496,0.050312,0.988660,0.001815,-0.001957,-0.001248,-103.964584,237.062286,-134.683731,,,,,,
1465827696.59,2.999674,-0.050413,1.219759,-0.002874,-0.012861,-0.000135,0.141263,0.050392,0.988689,0.000796,0.001717,-0.001857,-103.964584,237.062286,-134.683731,,,,,,
1465827696.61,2.999132,-0.050304,1.219744,-0.002903,-0.034100,0.001063,0.141800,0.050283,0.988617,-0.000824,0.000361,-0.000565,-103.964584,237.062286,-134.683731,,,,,,
