timestamp,attitude_roll,attitude_pitch,attitude_yaw,rotation_rate_x,rotation_rate_y,rotation_rate_z,gravity_x,gravity_y,gravity_z,user_acc_x,user_acc_y,user_acc_z,magnetic_field_x,magnetic_field_y,magnetic_field_z,latitude(degree),longitude(degree),altitude(meter),speed(m/s),course(degree),timestamp
1465827837.15,-1.548870,0.111623,1.095537,-0.002343,0.004059,0.000350,-0.993538,-0.111391,-0.021788,0.706413,0.088167,-0.937730,128.594711,229.443573,-104.635674,,,,,,
1465827837.16,-1.531185,0.111486,1.093548,-0.001305,-0.006441,0.000418,-0.993012,-0.111256,-0.039355,0.699830,0.085392,-0.915677,128.594711,229.443573,-104.635674,,,,,,
1465827837.17,-1.513549,0.111306,1.091569,-0.002361,0.009607,-0.000746,-0.992184,-0.111076,-0.056862,0.700390,0.085975,-0.893776,128.594711,229.443573,-104.635674,,,,,,
1465827837.18,-1.496042,0.111063,1.089622,-0.001321,0.003347,0.001425,-0.991063,-0.110835,-0.074224,0.700917,0.086360,-0.880991,135.682495,230.201111,-93.419937,,,,,,
1465827837.19,-1.478826,0.110780,1.087695,-0.001348,-0.009276,0.000442,-0.989670,-0.110553,-0.091278,0.704224,0.086841,-0.862595,135.682495,230.201111,-93.419937,,,,,,
,,,,,,,,,,,,,,,,29.719964,-95.399056,10.269065,-1.000000,-1.000000,1465828806.53
1465827837.20,-1.461922,0.110574,1.085795,-0.001388,-0.029338,0.001633,-0.988008,-0.110349,-0.107996,0.704744,0.083356,-0.848807,135.682495,230.201111,-93.419937,,,,,,
,,,,,,,,,,,,,,,,29.719979,-95.399056,10.717276,-1.000000,-1.000000,1465828913.99
,,,,,,,,,,,,,,,,29.719964,-95.399056,10.269065,-1.000000,-1.000000,1465828806.53
1465827837.21,-1.445440,0.110276,1.083902,-0.001432,-0.054707,0.001794,-0.986127,-0.110052,-0.124268,0.702084,0.084799,-0.831908,138.845245,230.520050,-87.818451,,,,,,
1465827837.22,-1.429336,0.109885,1.082049,-0.001464,-0.069460,0.001888,-0.984040,-0.109664,-0.140139,0.696214,0.085860,-0.813429,138.845245,230.520050,-87.818451,,,,,,
1465827837.23,-1.413518,0.109454,1.080218,-0.001486,-0.076781,0.001936,-0.981747,-0.109235,-0.155693,0.690136,0.085508,-0.799263,138.845245,230.520050,-87.818451,,,,,,
1465827837.24,-1.397906,0.109032,1.078418,-0.001503,-0.080918,0.001963,-0.979242,-0.108816,-0.171009,0.686502,0.084265,-0.783245,144.250137,231.085922,-76.946556,,,,,,
1465827837.25,-1.382554,0.108628,1.076628,-0.003662,-0.092490,0.003100,-0.976544,-0.108414,-0.186030,0.687162,0.082276,-0.767934,144.250137,231.085922,-76.946556,,,,,,
1465827837.26,-1.367523,0.108189,1.074861,-0.003686,-0.104058,0.002109,-0.973685,-0.107978,-0.200696,0.680655,0.081962,-0.752230,144.250137,231.085922,-76.946556,,,,,,
1465827837.27,-1.352776,0.107673,1.073129,-0.002639,-0.108199,0.002138,-0.970674,-0.107465,-0.215045,0.671922,0.082883,-0.736310,146.568161,231.328659,-71.654778,,,,,,
1465827837.28,-1.338188,0.107207,1.071426,-0.003716,-0.109155,0.002144,-0.967482,-0.107002,-0.229193,0.671202,0.080604,-0.720865,146.568161,231.328659,-71.654778,,,,,,
1465827837.29,-1.323854,0.106677,1.069749,-0.002677,-0.121789,0.001162,-0.964152,-0.106475,-0.243051,0.666942,0.081481,-0.709739,148.652908,231.542862,-66.481537,,,,,,
1465827837.30,-1.309854,0.106204,1.068109,-0.000581,-0.137616,0.002329,-0.960704,-0.106004,-0.256537,0.663478,0.078401,-0.694772,148.652908,231.542862,-66.481537,,,,,,
1465827837.31,-1.296154,0.105625,1.066500,-0.002737,-0.148134,0.003459,-0.957158,-0.105429,-0.269691,0.658696,0.080481,-0.680062,148.652908,231.542862,-66.481537,,,,,,
1465827837.32,-1.282738,0.105026,1.064896,-0.003814,-0.150153,0.002407,-0.953514,-0.104833,-0.282526,0.647850,0.079336,-0.667273,148.652908,231.542862,-66.481537,,,,,,
1465827837.33,-1.269426,0.104429,1.063332,-0.002760,-0.147932,0.003460,-0.949728,-0.104239,-0.295212,0.648184,0.078620,-0.654098,152.179077,231.909744,-56.470985,,,,,,
1465827837.34,-1.256440,0.103840,1.061780,-0.003864,-0.172251,0.002549,-0.945873,-0.103654,-0.307539,0.644634,0.077347,-0.644106,152.179077,231.909744,-56.470985,,,,,,
1465827837.35,-1.243868,0.103175,1.060260,-0.002833,-0.190204,0.002664,-0.941997,-0.102992,-0.319428,0.636959,0.078593,-0.630356,152.179077,231.909744,-56.470985,,,,,,
1465827837.36,-1.231567,0.102488,1.058773,-0.004973,-0.187986,0.003714,-0.938063,-0.102309,-0.331015,0.626829,0.077300,-0.615107,154.967545,232.176895,-46.995014,,,,,,
,,,,,,,,,,,,,,,,29.719981,-95.399082,10.269065,-1.000000,-1.000000,1465828914.14
1465827837.37,-1.219472,0.101793,1.057326,-0.002857,-0.192136,0.002679,-0.934057,-0.101618,-0.342361,0.619757,0.076486,-0.603120,154.967545,232.176895,-46.995014,,,,,,
1465827837.38,-1.207571,0.101037,1.055906,-0.003919,-0.179303,0.003663,-0.929989,-0.100865,-0.353479,0.605907,0.076695,-0.588950,154.967545,232.176895,-46.995014,,,,,,
1465827837.39,-1.195632,0.100276,1.054509,-0.006033,-0.160094,0.002478,-0.925773,-0.100109,-0.364585,0.601295,0.076259,-0.579797,156.122864,232.269073,-42.500736,,,,,,
1465827837.40,-1.183683,0.099490,1.053141,-0.004966,-0.148326,0.003471,-0.921423,-0.099326,-0.375650,0.600592,0.076118,-0.565619,156.122864,232.269073,-42.500736,,,,,,
1465827837.41,-1.171921,0.098712,1.051800,-0.003914,-0.148239,0.004537,-0.917013,-0.098552,-0.386491,0.591497,0.074412,-0.556944,156.122864,232.269073,-42.500736,,,,,,
1465827837.42,-1.160163,0.097976,1.050479,-0.003906,-0.137526,0.002342,-0.912471,-0.097819,-0.397276,0.590572,0.072932,-0.545870,158.111115,232.372940,-33.664017,,,,,,
1465827837.43,-1.148675,0.097212,1.049184,-0.005943,-0.146965,0.002389,-0.907915,-0.097059,-0.407763,0.583238,0.072568,-0.536314,158.111115,232.372940,-33.664017,,,,,,
,,,,,,,,,,,,,,,,29.719998,-95.399108,10.269065,-1.000000,-1.000000,1465828914.16
1465827837.44,-1.137334,0.096477,1.047907,-0.007015,-0.143701,0.003433,-0.903297,-0.096328,-0.418062,0.580680,0.070403,-0.523070,158.913544,232.413559,-29.325745,,,,,,
1465827837.45,-1.126154,0.095717,1.046646,-0.005978,-0.158486,0.003528,-0.898632,-0.095571,-0.428166,0.580807,0.070654,-0.514735,158.913544,232.413559,-29.325745,,,,,,
1465827837.46,-1.115378,0.094953,1.045418,-0.004957,-0.188134,0.002652,-0.894032,-0.094810,-0.437856,0.577870,0.070671,-0.506144,158.913544,232.413559,-29.325745,,,,,,
1465827837.47,-1.105059,0.094180,1.044210,-0.006066,-0.214602,0.003882,-0.889531,-0.094041,-0.447092,0.569386,0.069398,-0.499396,158.913544,232.413559,-29.325745,,,,,,
1465827837.48,-1.095122,0.093393,1.043029,-0.007153,-0.225142,0.003948,-0.885110,-0.093257,-0.455943,0.560052,0.068645,-0.486059,160.143478,232.461670,-21.100212,,,,,,
1465827837.49,-1.085475,0.092615,1.041872,-0.007197,-0.248434,0.007289,-0.880734,-0.092483,-0.464493,0.556592,0.066421,-0.479309,160.143478,232.461670,-21.100212,,,,,,
1465827837.50,-1.076372,0.091836,1.040733,-0.008326,-0.295073,0.006517,-0.876532,-0.091707,-0.472526,0.556952,0.066500,-0.472817,160.591431,232.463028,-17.346848,,,,,,
,,,,,,,,,,,,,,,,29.719983,-95.399120,10.104038,-1.000000,-1.000000,1465828914.33
1465827837.51,-1.067858,0.091062,1.039622,-0.006272,-0.347030,0.007910,-0.872540,-0.090936,-0.480005,0.556820,0.065592,-0.462652,160.591431,232.463028,-17.346848,,,,,,
1465827837.52,-1.060140,0.090238,1.038532,-0.009570,-0.420223,0.010496,-0.868874,-0.090115,-0.486761,0.557687,0.066021,-0.458292,160.591431,232.463028,-17.346848,,,,,,
1465827837.53,-1.053564,0.089467,1.037476,-0.008632,-0.514651,0.011090,-0.865715,-0.089347,-0.492499,0.555382,0.064002,-0.452997,160.934540,232.456314,-13.918022,,,,,,
1465827837.54,-1.048717,0.088660,1.036493,-0.011934,-0.595278,0.011593,-0.863380,-0.088544,-0.496725,0.547950,0.065488,-0.446268,160.934540,232.456314,-13.918022,,,,,,
1465827837.55,-1.045616,0.087920,1.035586,-0.014180,-0.681224,0.013195,-0.861892,-0.087807,-0.499432,0.538222,0.062050,-0.442264,160.934540,232.456314,-13.918022,,,,,,
1465827837.56,-1.046667,0.087325,1.034967,-0.016429,-0.769317,0.015875,-0.862461,-0.087214,-0.498552,0.541416,0.063029,-0.441908,161.364151,232.392334,-9.218948,,,,,,
1465827837.57,-1.052123,0.086917,1.034633,-0.016579,-0.886099,0.017672,-0.865199,-0.086807,-0.493857,0.547053,0.062714,-0.445657,161.364151,232.392334,-9.218948,,,,,,
1465827837.58,-1.060564,0.086567,1.034438,-0.017838,-1.036870,0.020745,-0.869363,-0.086459,-0.486551,0.551538,0.061801,-0.453848,161.364151,232.392334,-9.218948,,,,,,
1465827837.59,-1.071162,0.086222,1.034283,-0.022274,-1.175962,0.022677,-0.874497,-0.086115,-0.477325,0.536668,0.061656,-0.454057,161.392944,232.341125,-9.974876,,,,,,
1465827837.60,-1.082940,0.085854,1.034147,-0.023416,-1.233302,0.025165,-0.880086,-0.085749,-0.467007,0.511022,0.063517,-0.445896,161.392944,232.341125,-9.974876,,,,,,
1465827837.61,-1.094973,0.085478,1.034004,-0.026651,-1.266212,0.025368,-0.885670,-0.085374,-0.456398,0.488270,0.063950,-0.448036,161.392944,232.341125,-9.974876,,,,,,
1465827837.62,-1.108011,0.085124,1.033907,-0.021419,-1.337359,0.026884,-0.891573,-0.085021,-0.444825,0.530687,0.058944,-0.457229,161.047104,232.201797,-16.605530,,,,,,
1465827837.63,-1.123210,0.084732,1.033792,-0.029180,-1.579452,0.030523,-0.898260,-0.084630,-0.431238,0.538244,0.064428,-0.494345,161.047104,232.201797,-16.605530,,,,,,
1465827837.64,-1.140058,0.084306,1.033656,-0.031482,-1.712185,0.034547,-0.905431,-0.084206,-0.416059,0.514302,0.060524,-0.476565,161.047104,232.201797,-16.605530,,,,,,
1465827837.65,-1.157782,0.083877,1.033514,-0.029447,-1.790754,0.032913,-0.912695,-0.083778,-0.399961,0.495611,0.063347,-0.480975,160.648605,232.119263,-21.029724,,,,,,
1465827837.66,-1.176581,0.083414,1.033337,-0.033872,-1.918177,0.036901,-0.920088,-0.083318,-0.382748,0.498289,0.062764,-0.492649,160.648605,232.119263,-21.029724,,,,,,
1465827837.67,-1.196776,0.082930,1.033154,-0.036168,-2.050901,0.037731,-0.927667,-0.082835,-0.364105,0.492700,0.059626,-0.499497,160.648605,232.119263,-21.029724,,,,,,
1465827837.68,-1.218043,0.082408,1.032947,-0.037361,-2.148595,0.041536,-0.935240,-0.082315,-0.344311,0.464186,0.064172,-0.503147,159.001953,231.930542,-32.498924,,,,,,
1465827837.69,-1.240285,0.081875,1.032732,-0.040689,-2.253715,0.043256,-0.942708,-0.081783,-0.323439,0.468373,0.062786,-0.510926,159.001953,231.930542,-32.498924,,,,,,
1465827837.70,-1.263778,0.081307,1.032478,-0.041924,-2.385384,0.046210,-0.950090,-0.081217,-0.301219,0.462694,0.060816,-0.520710,159.001953,231.930542,-32.498924,,,,,,
1465827837.71,-1.288491,0.080722,1.032215,-0.042061,-2.491570,0.049004,-0.957289,-0.080634,-0.277663,0.435911,0.062980,-0.528703,157.636307,231.823944,-39.217812,,,,,,
1465827837.72,-1.314077,0.080144,1.031898,-0.048570,-2.591370,0.047495,-0.964124,-0.080058,-0.253094,0.434140,0.061686,-0.535923,157.636307,231.823944,-39.217812,,,,,,
1465827837.73,-1.340941,0.079548,1.031559,-0.046602,-2.716670,0.050412,-0.970620,-0.079464,-0.227117,0.420175,0.060879,-0.543361,157.636307,231.823944,-39.217812,,,,,,
1465827837.74,-1.369221,0.078913,1.031202,-0.047879,-2.879137,0.055687,-0.976703,-0.078832,-0.199590,0.423832,0.062047,-0.555934,153.355774,231.608978,-54.487320,,,,,,
1465827837.75,-1.399006,0.078244,1.030806,-0.052302,-3.003377,0.060720,-0.982266,-0.078164,-0.170423,0.390850,0.063088,-0.560397,153.355774,231.608978,-54.487320,,,,,,
1465827837.76,-1.429793,0.077577,1.030369,-0.054566,-3.113798,0.059281,-0.987098,-0.077499,-0.140114,0.377570,0.062866,-0.560661,153.355774,231.608978,-54.487320,,,,,,
1465827837.77,-1.461390,0.076914,1.029911,-0.052511,-3.173260,0.059656,-0.991082,-0.076838,-0.108865,0.338189,0.065165,-0.560874,150.199188,231.496307,-63.081200,,,,,,
1465827837.78,-1.493459,0.076235,1.029414,-0.055792,-3.239095,0.062194,-0.994115,-0.076161,-0.077036,0.323598,0.066533,-0.566519,150.199188,231.496307,-63.081200,,,,,,
1465827837.79,-1.526748,0.075578,1.028905,-0.054905,-3.379256,0.064139,-0.996178,-0.075506,-0.043908,0.320260,0.060537,-0.585685,150.199188,231.496307,-63.081200,,,,,,
1465827837.80,-1.560897,0.074893,1.028342,-0.057105,-3.433409,0.065541,-0.997148,-0.074823,-0.009871,0.279008,0.066049,-0.576433,141.524246,231.295807,-81.257072,,,,,,
1465827837.81,-1.595423,0.074224,1.027740,-0.058235,-3.482256,0.067975,-0.996944,-0.074156,0.024557,0.263332,0.067686,-0.591955,141.524246,231.295807,-81.257072,,,,,,
1465827837.82,-1.631284,0.073596,1.027100,-0.064808,-3.629844,0.068894,-0.995469,-0.073530,0.060287,0.270585,0.052564,-0.603271,141.524246,231.295807,-81.257072,,,,,,
1465827837.83,-1.668756,0.072945,1.026427,-0.060752,-3.793360,0.068859,-0.992559,-0.072881,0.097543,0.261831,0.063283,-0.603708,135.926407,231.210434,-90.528099,,,,,,
1465827837.84,-1.708008,0.072270,1.025608,-0.071631,-3.966449,0.077385,-0.988015,-0.072207,0.136424,0.225885,0.068758,-0.626277,135.926407,231.210434,-90.528099,,,,,,
1465827837.85,-1.748449,0.071623,1.024847,-0.066463,-4.090683,0.078169,-0.981738,-0.071562,0.176266,0.226931,0.060164,-0.592709,135.926407,231.210434,-90.528099,,,,,,
1465827837.86,-1.791555,0.070959,1.023927,-0.081751,-4.387992,0.084276,-0.973276,-0.070899,0.218419,0.220575,0.065574,-0.636464,121.225426,231.100922,-109.664658,,,,,,
1465827837.87,-1.837574,0.070281,1.022965,-0.074693,-4.692750,0.092581,-0.962244,-0.070224,0.262974,0.248850,0.062228,-0.639424,121.225426,231.100922,-109.664658,,,,,,
1465827837.88,-1.888282,0.069596,1.021832,-0.092415,-5.238512,0.097051,-0.947724,-0.069540,0.311423,0.290360,0.060614,-0.627341,121.225426,231.100922,-109.664658,,,,,,
1465827837.89,-1.945463,0.068856,1.020539,-0.099634,-5.875634,0.117006,-0.928424,-0.068801,0.365095,0.289188,0.068099,-0.671904,111.380737,231.076706,-119.697403,,,,,,
1465827837.90,-2.008354,0.068191,1.019026,-0.116334,-6.446893,0.126959,-0.903684,-0.068138,0.422744,0.271222,0.059258,-0.596297,111.380737,231.076706,-119.697403,,,,,,
1465827837.91,-2.077561,0.067511,1.017367,-0.118233,-7.099921,0.138504,-0.872328,-0.067460,0.484246,0.258299,0.068985,-0.594216,98.333344,231.086029,-130.611572,,,,,,
1465827837.92,-2.154144,0.066852,1.015441,-0.129891,-7.882505,0.158303,-0.832759,-0.066802,0.549590,0.278545,0.070540,-0.550948,98.333344,231.086029,-130.611572,,,,,,
1465827837.93,-2.240226,0.066337,1.013271,-0.153525,-8.878500,0.177299,-0.782451,-0.066288,0.619174,0.313151,0.060841,-0.538013,98.333344,231.086029,-130.611572,,,,,,
1465827837.94,-2.335953,0.065954,1.010770,-0.164314,-9.818228,0.197020,-0.719706,-0.065906,0.691144,0.286768,0.073306,-0.440595,57.569935,231.349060,-152.620117,,,,,,
1465827837.95,-2.442089,0.065947,1.007967,-0.199756,-10.912927,0.202785,-0.642438,-0.065899,0.763499,0.291364,0.056317,-0.367091,57.569935,231.349060,-152.620117,,,,,,
1465827837.96,-2.557020,0.066226,1.004938,-0.197513,-11.627598,0.234945,-0.550633,-0.066178,0.832120,0.091344,0.073227,-0.211011,57.569935,231.349060,-152.620117,,,,,,
1465827837.97,-2.675549,0.066890,1.001889,-0.229862,-11.955672,0.234842,-0.448351,-0.066840,0.891355,-0.060682,0.071357,0.045718,57.569935,231.349060,-152.620117,,,,,,
1465827837.98,-2.795959,0.067757,0.998832,-0.184218,-12.053404,0.244016,-0.338015,-0.067705,0.938702,-0.272809,0.124468,0.057956,-9.987625,232.365555,-161.356964,,,,,,
1465827837.99,-2.916146,0.069274,0.995897,-0.237474,-12.061884,0.248274,-0.223005,-0.069219,0.972357,-0.289858,0.066472,0.248530,-9.987625,232.365555,-161.356964,,,,,,
1465827838.00,-3.038094,0.070869,0.993139,-0.207872,-12.240264,0.243035,-0.103055,-0.070809,0.992152,-0.389972,0.108499,0.252172,-9.987625,232.365555,-161.356964,,,,,,
1465827838.01,3.124284,0.073041,0.990621,-0.206536,-12.026836,0.239569,0.017261,-0.072976,0.997184,-0.479847,0.104256,0.416131,-46.979172,233.180603,-153.457962,,,,,,
1465827838.02,3.005702,0.075242,0.988395,-0.229686,-11.810215,0.237123,0.135090,-0.075171,0.987978,-0.577106,0.087958,0.468931,-46.979172,233.180603,-153.457962,,,,,,
1465827838.03,2.891331,0.077685,0.986511,-0.176885,-11.315430,0.229815,0.246911,-0.077607,0.965926,-0.677834,0.130127,0.583788,-46.979172,233.180603,-153.457962,,,,,,
1465827838.04,2.782196,0.080279,0.985022,-0.212424,-10.804654,0.215931,0.350577,-0.080193,0.933094,-0.718558,0.093254,0.606014,-109.509438,235.081711,-113.462990,,,,,,
1465827838.05,2.678328,0.082708,0.983777,-0.166980,-10.233416,0.208136,0.445343,-0.082613,0.891540,-0.788392,0.132326,0.661118,-109.509438,235.081711,-113.462990,,,,,,
1465827838.06,2.580874,0.085238,0.982904,-0.172583,-9.620729,0.195773,0.529864,-0.085135,0.843798,-0.762500,0.099356,0.672803,-109.509438,235.081711,-113.462990,,,,,,
1465827838.07,2.486814,0.087608,0.982222,-0.159459,-9.357385,0.185618,0.606648,-0.087496,0.790141,-0.681477,0.117143,0.674230,-129.936478,235.978775,-86.948868,,,,,,
1465827838.08,2.395295,0.090108,0.981889,-0.163375,-9.085558,0.182845,0.676170,-0.089986,0.731229,-0.643471,0.096563,0.681201,-129.936478,235.978775,-86.948868,,,,,,
1465827838.09,2.306751,0.092464,0.981738,-0.161883,-8.755321,0.174389,0.738024,-0.092332,0.668427,-0.631503,0.113282,0.723907,-129.936478,235.978775,-86.948868,,,,,,
1465827838.10,2.223236,0.094732,0.981866,-0.143085,-8.215905,0.160380,0.791042,-0.094590,0.604404,-0.685299,0.104707,0.778668,-150.610291,237.449585,-32.616104,,,,,,
1465827838.11,2.146296,0.096799,0.982140,-0.144282,-7.479002,0.151500,0.834993,-0.096648,0.541706,-0.742967,0.120146,0.793865,-150.610291,237.449585,-32.616104,,,,,,
1465827838.12,2.078358,0.098625,0.982517,-0.116496,-6.573254,0.129880,0.869685,-0.098466,0.483685,-0.794780,0.109223,0.821551,-150.610291,237.449585,-32.616104,,,,,,
1465827838.13,2.019402,0.100191,0.982963,-0.112125,-5.648402,0.115568,0.896534,-0.100024,0.431535,-0.798908,0.117297,0.790221,-153.073578,237.995392,-7.499725,,,,,,
1465827838.14,1.969569,0.101457,0.983410,-0.081137,-4.738406,0.092861,0.916800,-0.101283,0.386290,-0.783392,0.113902,0.759645,-153.073578,237.995392,-7.499725,,,,,,
1465827838.15,1.931877,0.102471,0.983828,-0.074159,-3.434489,0.075110,0.930608,-0.102292,0.351432,-0.888692,0.104047,0.777123,-153.073578,237.995392,-7.499725,,,,,,
1465827838.16,1.904537,0.103128,0.984065,-0.037838,-2.519183,0.051310,0.939804,-0.102945,0.325839,-0.788086,0.127634,0.729154,-150.045197,238.613449,26.069794,,,,,,
1465827838.17,1.886528,0.103604,0.984346,-0.032321,-1.539101,0.030267,0.945473,-0.103418,0.308847,-0.774620,0.093210,0.657981,-150.045197,238.613449,26.069794,,,,,,
1465827838.18,1.879193,0.103776,0.984407,-0.014971,-0.458162,0.011796,0.947695,-0.103590,0.301899,-0.802645,0.124815,0.701611,-150.045197,238.613449,26.069794,,,,,,
1465827838.19,1.882954,0.103692,0.984401,0.017321,0.644017,-0.011051,0.946562,-0.103507,0.305463,-0.797102,0.101248,0.654406,-148.492142,238.721909,33.038048,,,,,,
1465827838.20,1.895411,0.103393,0.984252,0.018336,1.438272,-0.025611,0.942712,-0.103209,0.317241,-0.739480,0.116880,0.634297,-148.492142,238.721909,33.038048,,,,,,
1465827838.21,1.916096,0.102882,0.984040,0.046029,2.272873,-0.044656,0.935999,-0.102701,0.336688,-0.709161,0.103342,0.607754,-148.492142,238.721909,33.038048,,,,,,
1465827838.22,1.943517,0.102200,0.983786,0.045741,2.877065,-0.058025,0.926480,-0.102022,0.362251,-0.637570,0.105806,0.594887,-149.540466,238.651031,28.511650,,,,,,
1465827838.23,1.977259,0.101330,0.983472,0.066834,3.550264,-0.071807,0.913814,-0.101157,0.393334,-0.645778,0.105536,0.571250,-149.540466,238.651031,28.511650,,,,,,
1465827838.24,2.018515,0.100286,0.983151,0.074213,4.326462,-0.085183,0.896908,-0.100118,0.430735,-0.679821,0.104498,0.596685,-149.540466,238.651031,28.511650,,,,,,
1465827838.25,2.066636,0.099043,0.982782,0.092004,4.916836,-0.096319,0.875259,-0.098881,0.473438,-0.635528,0.106328,0.603756,-151.289307,238.491058,19.056290,,,,,,
1465827838.26,2.117772,0.097722,0.982524,0.088101,5.193980,-0.102319,0.850026,-0.097567,0.517625,-0.538839,0.102068,0.517851,-151.289307,238.491058,19.056290,,,,,,
1465827838.27,2.173172,0.096223,0.982268,0.107842,5.638889,-0.113605,0.820180,-0.096074,0.563981,-0.563542,0.105306,0.545806,-151.289307,238.491058,19.056290,,,,,,
1465827838.28,2.232058,0.094662,0.982155,0.099750,5.970191,-0.121013,0.785685,-0.094520,0.611364,-0.547709,0.100105,0.512462,-152.946716,237.909241,-11.665169,,,,,,
1465827838.29,2.294043,0.092993,0.982052,0.118211,6.257930,-0.122799,0.746422,-0.092859,0.658963,-0.538612,0.107278,0.501422,-152.946716,237.909241,-11.665169,,,,,,
1465827838.30,2.356951,0.091340,0.982145,0.104421,6.291926,-0.127284,0.703626,-0.091213,0.704692,-0.460325,0.097728,0.448446,-152.946716,237.909241,-11.665169,,,,,,
1465827838.31,2.419783,0.089653,0.982308,0.111848,6.272808,-0.126092,0.658091,-0.089533,0.747597,-0.438913,0.102656,0.407692,-150.966751,237.496063,-30.565239,,,,,,
1465827838.32,2.481645,0.088031,0.982577,0.110615,6.142200,-0.123145,0.610702,-0.087917,0.786965,-0.401855,0.093151,0.364189,-150.966751,237.496063,-30.565239,,,,,,
1465827838.33,2.540681,0.086477,0.982917,0.100607,5.813028,-0.114704,0.563282,-0.086369,0.821738,-0.346317,0.098377,0.299584,-150.966751,237.496063,-30.565239,,,,,,
1465827838.34,2.596207,0.085064,0.983335,0.099226,5.471186,-0.111509,0.516872,-0.084962,0.851836,-0.335323,0.088578,0.233308,-139.972336,236.555374,-67.667389,,,,,,
1465827838.35,2.647051,0.083756,0.983795,0.083639,4.940271,-0.100744,0.472964,-0.083658,0.877101,-0.276171,0.096048,0.188084,-139.972336,236.555374,-67.667389,,,,,,
1465827838.36,2.692328,0.082629,0.984235,0.081870,4.392358,-0.088793,0.432822,-0.082535,0.897693,-0.291006,0.088669,0.110501,-139.972336,236.555374,-67.667389,,,,,,
1465827838.37,2.731888,0.081702,0.984717,0.058779,3.815799,-0.080943,0.397010,-0.081611,0.914179,-0.265342,0.086189,0.065741,-132.478027,236.119705,-82.623466,,,,,,
1465827838.38,2.765776,0.080871,0.985078,0.062293,3.245568,-0.062461,0.365833,-0.080783,0.927168,-0.304508,0.093524,0.029100,-132.478027,236.119705,-82.623466,,,,,,
1465827838.39,2.793311,0.080256,0.985458,0.041238,2.592561,-0.055193,0.340184,-0.080169,0.936935,-0.272756,0.080398,-0.021499,-132.478027,236.119705,-82.623466,,,,,,
1465827838.40,2.814220,0.079752,0.985699,0.033980,1.922526,-0.036096,0.320534,-0.079668,0.943881,-0.290291,0.096804,-0.040469,-119.657516,235.514969,-101.707207,,,,,,
1465827838.41,2.828389,0.079452,0.985902,0.023532,1.242959,-0.025457,0.307136,-0.079368,0.948350,-0.283348,0.074409,-0.095842,-119.657516,235.514969,-101.707207,,,,,,
1465827838.42,2.834756,0.079311,0.985979,0.001188,0.427468,-0.006527,0.301095,-0.079228,0.950297,-0.280679,0.077046,-0.138026,-119.657516,235.514969,-101.707207,,,,,,
1465827838.43,2.833494,0.079334,0.985962,0.000260,-0.298828,0.006542,0.302294,-0.079251,0.949915,-0.279146,0.091198,-0.099771,-116.170647,235.370789,-105.993134,,,,,,
1465827838.44,2.825134,0.079589,0.985862,-0.030484,-1.022995,0.022762,0.310218,-0.079505,0.947335,-0.300285,0.082755,-0.118630,-116.170647,235.370789,-105.993134,,,,,,
1465827838.45,2.809497,0.079936,0.985657,-0.027128,-1.732299,0.033601,0.324984,-0.079851,0.942342,-0.330218,0.087938,-0.066457,-116.170647,235.370789,-105.993134,,,,,,
1465827838.46,2.788017,0.080478,0.985403,-0.044869,-2.280206,0.046599,0.345134,-0.080392,0.935104,-0.388164,0.087319,-0.041122,-118.062660,235.455978,-103.688339,,,,,,
1465827838.47,2.761869,0.081058,0.985052,-0.047589,-2.742103,0.054816,0.369446,-0.080970,0.925718,-0.380631,0.088416,0.004870,-118.062660,235.455978,-103.688339,,,,,,
1465827838.48,2.730912,0.081834,0.984716,-0.058853,-3.225233,0.063157,0.397897,-0.081743,0.913781,-0.413446,0.093278,0.025275,-118.062660,235.455978,-103.688339,,,,,,
1465827838.49,2.695612,0.082715,0.984314,-0.066806,-3.608566,0.075133,0.429868,-0.082621,0.899104,-0.430387,0.091441,0.086858,-122.640160,235.655899,-97.751030,,,,,,
1465827838.50,2.657199,0.083676,0.983919,-0.069348,-3.934544,0.079304,0.464042,-0.083578,0.881861,-0.422447,0.093740,0.111547,-122.640160,235.655899,-97.751030,,,,,,
1465827838.51,2.614888,0.084769,0.983547,-0.079429,-4.322115,0.088111,0.500882,-0.084668,0.861364,-0.461744,0.094830,0.160181,-122.640160,235.655899,-97.751030,,,,,,
1465827838.52,2.570096,0.085947,0.983177,-0.080763,-4.531298,0.092615,0.538895,-0.085841,0.837988,-0.452423,0.094584,0.209543,-134.897308,236.276123,-78.140068,,,,,,
1465827838.53,2.523069,0.087194,0.982883,-0.090622,-4.750028,0.095042,0.577630,-0.087084,0.811640,-0.512979,0.101244,0.262365,-134.897308,236.276123,-78.140068,,,,,,
1465827838.54,2.475242,0.088489,0.982621,-0.086411,-4.785075,0.097394,0.615703,-0.088373,0.783007,-0.526378,0.093409,0.306669,-134.897308,236.276123,-78.140068,,,,,,
1465827838.55,2.427475,0.089810,0.982469,-0.090651,-4.773387,0.095188,0.652311,-0.089689,0.752626,-0.549666,0.105757,0.349822,-141.037567,236.654755,-65.057663,,,,,,
1465827838.56,2.380224,0.091085,0.982302,-0.083113,-4.702256,0.096878,0.687053,-0.090959,0.720892,-0.610286,0.100404,0.387461,-141.037567,236.654755,-65.057663,,,,,,
1465827838.57,2.335353,0.092309,0.982247,-0.079523,-4.400682,0.086475,0.718616,-0.092178,0.689270,-0.623325,0.101409,0.430465,-141.037567,236.654755,-65.057663,,,,,,
1465827838.58,2.293485,0.093446,0.982226,-0.075981,-4.126733,0.082631,0.746758,-0.093311,0.658518,-0.627831,0.106204,0.432546,-149.724075,237.389832,-36.855728,,,,,,
1465827838.59,2.254409,0.094523,0.982272,-0.070255,-3.812431,0.076408,0.771835,-0.094382,0.628778,-0.652924,0.100440,0.456945,-149.724075,237.389832,-36.855728,,,,,,
1465827838.60,2.219715,0.095489,0.982360,-0.062199,-3.342039,0.067079,0.793108,-0.095344,0.601572,-0.724795,0.110267,0.490896,-149.724075,237.389832,-36.855728,,,,,,
1465827838.61,2.191028,0.096270,0.982438,-0.051809,-2.710251,0.055676,0.809976,-0.096121,0.578532,-0.709207,0.101889,0.495122,-151.809845,237.683014,-24.292534,,,,,,
1465827838.62,2.167887,0.096903,0.982538,-0.040472,-2.174022,0.043809,0.823095,-0.096752,0.559602,-0.721883,0.106868,0.493057,-151.809845,237.683014,-24.292534,,,,,,
1465827838.63,2.150631,0.097395,0.982633,-0.033322,-1.578334,0.032629,0.832588,-0.097241,0.545290,-0.719399,0.106457,0.494948,-151.809845,237.683014,-24.292534,,,,,,
1465827838.64,2.139337,0.097700,0.982693,-0.019769,-0.975210,0.019280,0.838669,-0.097544,0.535835,-0.701126,0.100428,0.487419,-152.984604,238.036499,-7.995209,,,,,,
1465827838.65,2.133642,0.097861,0.982724,-0.005251,-0.444301,0.010642,0.841694,-0.097705,0.531042,-0.687671,0.109988,0.478052,-152.984604,238.036499,-7.995209,,,,,,
1465827838.66,2.133232,0.097891,0.982749,-0.003483,0.101491,-0.002359,0.841909,-0.097734,0.530695,-0.681585,0.099489,0.475683,-152.984604,238.036499,-7.995209,,,,,,
1465827838.67,2.138322,0.097759,0.982722,0.012112,0.638776,-0.013164,0.839207,-0.097604,0.534981,-0.670811,0.108834,0.475380,-153.015900,238.091202,-5.318947,,,,,,
1465827838.68,2.148407,0.097506,0.982723,0.013811,1.132534,-0.023710,0.833790,-0.097351,0.543430,-0.654057,0.103379,0.462734,-153.015900,238.091202,-5.318947,,,,,,
1465827838.69,2.163181,0.097113,0.982665,0.030358,1.583806,-0.031846,0.825702,-0.096960,0.555710,-0.644459,0.106466,0.455230,-153.015900,238.091202,-5.318947,,,,,,
1465827838.70,2.182175,0.096623,0.982634,0.031960,2.000053,-0.041906,0.815038,-0.096473,0.571319,-0.624105,0.103446,0.444687,-152.932098,237.996704,-9.946075,,,,,,
1465827838.71,2.205090,0.096017,0.982566,0.039904,2.389734,-0.045407,0.801780,-0.095869,0.589879,-0.622688,0.101134,0.437236,-152.932098,237.996704,-9.946075,,,,,,
1465827838.72,2.231587,0.095319,0.982529,0.047800,2.729530,-0.056046,0.785923,-0.095175,0.610956,-0.613239,0.105169,0.422415,-152.932098,237.996704,-9.946075,,,,,,
1465827838.73,2.261726,0.094530,0.982503,0.050423,3.119216,-0.060616,0.767213,-0.094389,0.634409,-0.619279,0.101531,0.426855,-152.577454,237.858994,-16.516548,,,,,,
1465827838.74,2.294792,0.093630,0.982467,0.063487,3.337959,-0.068361,0.745884,-0.093493,0.659482,-0.549289,0.103777,0.375369,-152.577454,237.858994,-16.516548,,,,,,
1465827838.75,2.329098,0.092735,0.982510,0.057252,3.462190,-0.068082,0.722885,-0.092602,0.684735,-0.534363,0.098019,0.362583,-152.577454,237.858994,-16.516548,,,,,,
1465827838.76,2.364032,0.091771,0.982541,0.064765,3.501487,-0.073644,0.698591,-0.091642,0.709628,-0.516157,0.098188,0.330212,-149.920181,237.426514,-35.807373,,,,,,
1465827838.77,2.399774,0.090852,0.982676,0.060614,3.588554,-0.073129,0.672843,-0.090727,0.734201,-0.516532,0.100569,0.319815,-149.920181,237.426514,-35.807373,,,,,,
1465827838.78,2.435477,0.089897,0.982785,0.060584,3.565195,-0.072983,0.646263,-0.089776,0.757815,-0.486839,0.095849,0.284970,-147.347382,237.162018,-46.610146,,,,,,
1465827838.79,2.470463,0.088974,0.982947,0.064700,3.455818,-0.069099,0.619411,-0.088857,0.780022,-0.450344,0.101140,0.246452,-147.347382,237.162018,-46.610146,,,,,,
1465827838.80,2.503111,0.088133,0.983124,0.050534,3.200986,-0.065386,0.593664,-0.088019,0.799885,-0.421697,0.093604,0.204219,-147.347382,237.162018,-46.610146,,,,,,
1465827838.81,2.533380,0.087343,0.983316,0.053430,2.969500,-0.059674,0.569224,-0.087232,0.817542,-0.433863,0.096693,0.184991,-144.012680,236.889420,-57.213093,,,,,,
1465827838.82,2.561088,0.086646,0.983512,0.044569,2.702980,-0.053753,0.546389,-0.086538,0.833049,-0.428835,0.092778,0.155034,-144.012680,236.889420,-57.213093,,,,,,
1465827838.83,2.585861,0.086026,0.983701,0.040973,2.390797,-0.046477,0.525614,-0.085920,0.846373,-0.397685,0.094206,0.122957,-144.012680,236.889420,-57.213093,,,,,,
1465827838.84,2.606418,0.085518,0.983881,0.031884,1.940589,-0.040469,0.508128,-0.085413,0.857036,-0.372675,0.093531,0.089421,-144.012680,236.889420,-57.213093,,,,,,
1465827838.85,2.622432,0.085102,0.984034,0.024920,1.491432,-0.031272,0.494356,-0.084999,0.865094,-0.380815,0.089607,0.072315,-136.981506,236.434189,-73.922394,,,,,,
1465827838.86,2.634085,0.084832,0.984144,0.016913,1.063506,-0.020081,0.484253,-0.084730,0.870816,-0.401856,0.092573,0.063175,-136.981506,236.434189,-73.922394,,,,,,
1465827838.87,2.641927,0.084641,0.984225,0.008984,0.690805,-0.013494,0.477416,-0.084540,0.874601,-0.414672,0.087988,0.058612,-134.361359,236.283524,-79.036026,,,,,,
1465827838.88,2.645843,0.084556,0.984269,0.005276,0.289431,-0.005658,0.473991,-0.084455,0.876470,-0.410011,0.093671,0.056956,-134.361359,236.283524,-79.036026,,,,,,
1465827838.89,2.645731,0.084597,0.984291,-0.008018,-0.113004,0.003239,0.474088,-0.084496,0.876414,-0.413313,0.087700,0.050405,-134.361359,236.283524,-79.036026,,,,,,
1465827838.90,2.641545,0.084713,0.984253,-0.009602,-0.518626,0.011104,0.477748,-0.084612,0.874413,-0.421901,0.095323,0.058113,-132.591888,236.195312,-82.223701,,,,,,
1465827838.91,2.633704,0.084910,0.984179,-0.015372,-0.865848,0.018598,0.484582,-0.084808,0.870625,-0.440301,0.089737,0.069270,-132.591888,236.195312,-82.223701,,,,,,
1465827838.92,2.622716,0.085202,0.984077,-0.021094,-1.176965,0.024801,0.494106,-0.085099,0.865227,-0.450314,0.094804,0.083397,-132.591888,236.195312,-82.223701,,,,,,
1465827838.93,2.608727,0.085594,0.983976,-0.032121,-1.473214,0.030906,0.506144,-0.085490,0.858202,-0.452769,0.092493,0.098265,-133.512939,236.246368,-80.570023,,,,,,
1465827838.94,2.591573,0.086061,0.983829,-0.033601,-1.796016,0.038251,0.520770,-0.085955,0.849359,-0.455767,0.094134,0.110800,-133.512939,236.246368,-80.570023,,,,,,
1465827838.95,2.571556,0.086612,0.983688,-0.040334,-2.066778,0.042072,0.537640,-0.086504,0.838725,-0.468732,0.093172,0.131810,-133.512939,236.246368,-80.570023,,,,,,
1465827838.96,2.549324,0.087202,0.983547,-0.042721,-2.270646,0.044412,0.556124,-0.087091,0.826524,-0.499864,0.096765,0.164519,-133.512939,236.246368,-80.570023,,,,,,
1465827838.97,2.525791,0.087827,0.983412,-0.043919,-2.373646,0.047186,0.575387,-0.087715,0.813164,-0.524606,0.095023,0.187293,-137.947662,236.514252,-71.840240,,,,,,
1465827838.98,2.501484,0.088471,0.983265,-0.044023,-2.453288,0.049814,0.594947,-0.088356,0.798894,-0.533393,0.098289,0.217707,-137.947662,236.514252,-71.840240,,,,,,
1465827838.99,2.476372,0.089167,0.983151,-0.048380,-2.529738,0.051354,0.614781,-0.089048,0.783655,-0.531727,0.096327,0.225607,-137.947662,236.514252,-71.840240,,,,,,
1465827839.01,2.425062,0.090585,0.982964,-0.049459,-2.539297,0.052477,0.654080,-0.090461,0.750997,-0.568173,0.097266,0.279276,-143.680908,236.899506,-58.000031,,,,,,
1465827839.00,2.450601,0.089867,0.983045,-0.048454,-2.587078,0.052778,0.634730,-0.089746,0.767505,-0.548258,0.101129,0.250928,-143.680908,236.899506,-58.000031,,,,,,
1465827839.02,2.400307,0.091254,0.982899,-0.045075,-2.444790,0.048696,0.672427,-0.091128,0.734532,-0.595218,0.102404,0.302074,-146.213287,237.104156,-50.327744,,,,,,
1465827839.03,2.377431,0.091889,0.982839,-0.041610,-2.229246,0.047347,0.689013,-0.091760,0.718917,-0.628908,0.098229,0.327332,-146.213287,237.104156,-50.327744,,,,,,
1465827839.04,2.356729,0.092453,0.982824,-0.037073,-2.018991,0.038582,0.703710,-0.092321,0.704463,-0.616598,0.102209,0.334660,-146.213287,237.104156,-50.327744,,,,,,
1465827839.05,2.338204,0.092972,0.982809,-0.034662,-1.794951,0.037179,0.716605,-0.092838,0.691273,-0.633124,0.099521,0.344020,-148.208862,237.288269,-43.104454,,,,,,
1465827839.06,2.321929,0.093415,0.982805,-0.030107,-1.567713,0.030436,0.727729,-0.093279,0.679492,-0.615715,0.104372,0.345762,-148.208862,237.288269,-43.104454,,,,,,
1465827839.07,2.308022,0.093814,0.982814,-0.026619,-1.333056,0.028968,0.737081,-0.093677,0.669280,-0.625356,0.101886,0.354096,-148.208862,237.288269,-43.104454,,,,,,
1465827839.08,2.296636,0.094129,0.982829,-0.023070,-1.062278,0.019822,0.744631,-0.093990,0.660825,-0.633700,0.102901,0.360339,-150.499054,237.547165,-32.418518,,,,,,
1465827839.09,2.288557,0.094384,0.982858,-0.015197,-0.728873,0.016675,0.749928,-0.094244,0.654772,-0.646580,0.103017,0.373121,-150.499054,237.547165,-32.418518,,,,,,
1465827839.10,2.283613,0.094528,0.982874,-0.011592,-0.411378,0.008300,0.753146,-0.094387,0.651047,-0.644656,0.101559,0.365661,-150.499054,237.547165,-32.418518,,,,,,
1465827839.11,2.281998,0.094594,0.982888,-0.001590,-0.084336,0.002001,0.754191,-0.094453,0.649826,-0.637187,0.105104,0.372955,-151.006424,237.619537,-29.386963,,,,,,
1465827839.12,2.283262,0.094574,0.982895,-0.001227,0.200236,-0.002976,0.753371,-0.094433,0.650780,-0.629836,0.100537,0.361488,-151.006424,237.619537,-29.386963,,,,,,
1465827839.13,2.287612,0.094474,0.982896,0.010880,0.508164,-0.009153,0.750540,-0.094333,0.654057,-0.626425,0.104724,0.364940,-151.006424,237.619537,-29.386963,,,,,,
1465827839.14,2.294775,0.094297,0.982910,0.010173,0.785310,-0.016214,0.745848,-0.094157,0.659428,-0.619582,0.100337,0.353832,-151.006424,237.619537,-29.386963,,,,,,
1465827839.15,2.304557,0.094043,0.982903,0.020072,1.033773,-0.019892,0.739379,-0.093905,0.666708,-0.598709,0.103381,0.348581,-151.023773,237.628616,-29.223976,,,,,,
1465827839.16,2.316149,0.093749,0.982920,0.019220,1.198361,-0.024118,0.731622,-0.093612,0.675253,-0.571664,0.100189,0.326136,-151.023773,237.628616,-29.223976,,,,,,
1465827839.17,2.329106,0.093418,0.982928,0.022570,1.322591,-0.024894,0.722834,-0.093283,0.684697,-0.552424,0.102911,0.317531,-150.583954,237.570786,-31.846077,,,,,,
1465827839.18,2.343000,0.093067,0.982966,0.022690,1.411794,-0.029711,0.713275,-0.092933,0.694696,-0.541583,0.099265,0.305563,-150.583954,237.570786,-31.846077,,,,,,
1465827839.19,2.357808,0.092681,0.982997,0.025998,1.502045,-0.030274,0.702935,-0.092549,0.705207,-0.544244,0.101094,0.299706,-150.583954,237.570786,-31.846077,,,,,,
1465827839.20,2.373613,0.092272,0.983049,0.027201,1.609293,-0.033074,0.691728,-0.092141,0.716255,-0.552919,0.098428,0.295570,-148.919220,237.381973,-40.030640,,,,,,
1465827839.21,2.390221,0.091825,0.983086,0.028343,1.670877,-0.033459,0.679766,-0.091696,0.727674,-0.534914,0.099615,0.281496,-148.919220,237.381973,-40.030640,,,,,,
1465827839.22,2.407186,0.091401,0.983160,0.026265,1.711226,-0.033714,0.667350,-0.091273,0.739130,-0.540793,0.098201,0.266836,-148.919220,237.381973,-40.030640,,,,,,
1465827839.23,2.424773,0.090962,0.983233,0.027406,1.770689,-0.035151,0.654274,-0.090837,0.750782,-0.541023,0.098741,0.262981,-147.697342,237.260788,-44.971039,,,,,,
1465827839.24,2.442237,0.090523,0.983318,0.028418,1.728217,-0.034883,0.641089,-0.090399,0.762124,-0.501517,0.097723,0.241416,-147.697342,237.260788,-44.971039,,,,,,
1465827839.25,2.464131,0.089199,0.982898,0.025053,1.594460,-0.031918,0.624326,-0.089080,0.776068,-0.478177,0.096710,0.210122,-147.697342,237.260788,-44.971039,,,,,,
1465827839.26,2.486318,0.087607,0.982359,0.024903,1.474518,-0.030101,0.607040,-0.087495,0.789840,-0.466171,0.095994,0.197999,-144.330032,236.923294,-56.265175,,,,,,
1465827839.27,2.502419,0.086837,0.982217,0.021510,1.320565,-0.025946,0.594285,-0.086728,0.799565,-0.458070,0.092679,0.184063,-144.330032,236.923294,-56.265175,,,,,,
1465827839.28,2.514991,0.086351,0.982204,0.018033,1.096530,-0.023480,0.584210,-0.086244,0.807007,-0.435834,0.092774,0.165176,-144.330032,236.923294,-56.265175,,,,,,
1465827839.29,2.525158,0.085971,0.982185,0.014565,0.888405,-0.015791,0.575995,-0.085865,0.812931,-0.446204,0.094623,0.155758,-144.330032,236.923294,-56.265175,,,,,,
1465827839.30,2.534048,0.085540,0.982120,0.010068,0.698354,-0.014604,0.568766,-0.085435,0.818050,-0.449549,0.092241,0.155384,-140.938461,236.543289,-65.674973,,,,,,
1465827839.31,2.544416,0.084547,0.981748,0.007681,0.496634,-0.010147,0.560302,-0.084446,0.823973,-0.450347,0.092731,0.145739,-140.938461,236.543289,-65.674973,,,,,,
1465827839.32,2.547877,0.084459,0.981781,0.004234,0.298072,-0.006777,0.557450,-0.084359,0.825913,-0.454865,0.090951,0.143020,-139.754486,236.384201,-68.707901,,,,,,
1465827839.33,2.549439,0.084431,0.981808,0.000792,0.105879,-0.002381,0.556161,-0.084331,0.826785,-0.459436,0.091335,0.142530,-139.754486,236.384201,-68.707901,,,,,,
1465827839.34,2.549041,0.084458,0.981824,-0.004776,-0.085249,0.000941,0.556489,-0.084358,0.826562,-0.461960,0.092704,0.141608,-139.754486,236.384201,-68.707901,,,,,,
1465827839.35,2.546852,0.084543,0.981822,-0.008098,-0.264567,0.007374,0.558293,-0.084443,0.825335,-0.465046,0.092042,0.143628,-139.754486,236.384201,-68.707901,,,,,,
1465827839.37,2.537326,0.084823,0.981776,-0.012769,-0.588424,0.012594,0.566116,-0.084721,0.819960,-0.480941,0.092915,0.154969,-139.601074,236.378113,-69.039902,,,,,,
1465827839.36,2.542859,0.084662,0.981804,-0.008318,-0.441885,0.007421,0.561579,-0.084561,0.823091,-0.469461,0.092511,0.147398,-139.601074,236.378113,-69.039902,,,,,,
1465827839.39,2.522604,0.085251,0.981700,-0.018382,-0.815653,0.016142,0.578105,-0.085147,0.811508,-0.498820,0.094303,0.171387,-140.206253,236.419434,-67.658264,,,,,,
1465827839.38,2.530504,0.085022,0.981734,-0.013990,-0.711595,0.014429,0.571687,-0.084919,0.816066,-0.491929,0.091069,0.162664,-140.206253,236.419434,-67.658264,,,,,,
1465827839.40,2.513723,0.085500,0.981642,-0.016380,-0.912286,0.019943,0.585276,-0.085396,0.806325,-0.503062,0.093178,0.177288,-140.206253,236.419434,-67.658264,,,,,,
1465827839.41,2.503901,0.085781,0.981602,-0.020757,-1.006785,0.020532,0.593153,-0.085675,0.800518,-0.500822,0.093991,0.186146,-141.114258,236.483154,-65.513870,,,,,,
1465827839.42,2.493336,0.086072,0.981559,-0.020833,-1.067308,0.020911,0.601563,-0.085966,0.794186,-0.515763,0.094267,0.196216,-141.114258,236.483154,-65.513870,,,,,,
1465827839.43,2.482695,0.086384,0.981521,-0.020833,-1.065187,0.021962,0.609962,-0.086276,0.787720,-0.532188,0.094669,0.214691,-141.114258,236.483154,-65.513870,,,,,,
1465827839.44,2.471997,0.086688,0.981480,-0.021907,-1.071560,0.023066,0.618338,-0.086579,0.781129,-0.534308,0.093629,0.217681,-143.419159,236.649948,-59.643257,,,,,,
1465827839.45,2.461327,0.086979,0.981424,-0.018700,-1.063064,0.021951,0.626622,-0.086869,0.774467,-0.537923,0.096558,0.227700,-143.419159,236.649948,-59.643257,,,,,,
1465827839.46,2.455678,0.086598,0.980983,-0.019706,-1.018438,0.020606,0.631008,-0.086490,0.770940,-0.544521,0.095447,0.230097,-143.419159,236.649948,-59.643257,,,,,,
1465827839.47,2.448138,0.086580,0.980790,-0.017453,-0.926042,0.016836,0.636803,-0.086471,0.766162,-0.558892,0.096268,0.244229,-144.554901,236.737656,-56.468956,,,,,,
1465827839.48,2.442133,0.086508,0.980587,-0.016204,-0.781622,0.014867,0.641397,-0.086400,0.762329,-0.576196,0.097508,0.251282,-144.554901,236.737656,-56.468956,,,,,,
1465827839.49,2.439893,0.086153,0.980203,-0.009577,-0.595779,0.011579,0.643122,-0.086046,0.760914,-0.583277,0.092409,0.256573,-144.554901,236.737656,-56.468956,,,,,,
1465827839.50,2.450153,0.084340,0.978911,-0.010427,-0.427927,0.010527,0.635380,-0.084240,0.767591,-0.573872,0.095608,0.256655,-145.643799,236.719589,-53.677765,,,,,,
1465827839.51,2.481527,0.080378,0.976084,-0.008044,-0.238719,0.006152,0.611189,-0.080292,0.787402,-0.545103,0.084701,0.221921,-145.643799,236.719589,-53.677765,,,,,,
1465827839.52,2.512938,0.075973,0.973534,-0.003573,-0.083499,0.001991,0.586361,-0.075899,0.806486,-0.512188,0.087252,0.217592,-145.643799,236.719589,-53.677765,,,,,,
1465827839.53,2.543130,0.072183,0.971337,-0.000168,0.075946,-0.000067,0.561906,-0.072120,0.824051,-0.485795,0.076851,0.180450,-143.374802,236.248459,-61.318035,,,,,,
1465827839.55,2.599688,0.064880,0.967878,0.004492,0.375683,-0.006197,0.514683,-0.064834,0.854926,-0.438725,0.070739,0.150873,-143.374802,236.248459,-61.318035,,,,,,
1465827839.54,2.571942,0.068219,0.969465,0.001099,0.226884,-0.003140,0.538083,-0.068166,0.840131,-0.459134,0.080312,0.181369,-143.374802,236.248459,-61.318035,,,,,,
1465827839.56,2.625850,0.061493,0.966579,0.005741,0.511727,-0.010241,0.492249,-0.061454,0.868282,-0.410981,0.073356,0.147160,-135.425171,234.719009,-81.832703,,,,,,
1465827839.57,2.650170,0.058631,0.965520,0.010143,0.621198,-0.010922,0.471070,-0.058597,0.880147,-0.386933,0.065922,0.125132,-135.425171,234.719009,-81.832703,,,,,,
1465827839.58,2.668032,0.056670,0.964953,0.009189,0.703027,-0.013565,0.455325,-0.056639,0.888522,-0.362460,0.067107,0.125211,-135.425171,234.719009,-81.832703,,,,,,
1465827839.59,2.686003,0.054755,0.964441,0.010298,0.734943,-0.013763,0.439332,-0.054728,0.896656,-0.337327,0.062464,0.103115,-135.425171,234.719009,-81.832703,,,,,,
1465827839.60,2.703124,0.052823,0.964000,0.010297,0.729694,-0.014794,0.423962,-0.052799,0.904140,-0.308407,0.061176,0.091923,-128.207397,233.541992,-95.658615,,,,,,
1465827839.61,2.719623,0.050896,0.963585,0.011295,0.675595,-0.013389,0.409028,-0.050874,0.911103,-0.281815,0.056733,0.078796,-128.207397,233.541992,-95.658615,,,,,,
1465827839.62,2.732469,0.049429,0.963344,0.008021,0.610862,-0.011922,0.397320,-0.049409,0.916349,-0.261532,0.057069,0.067385,-128.207397,233.541992,-95.658615,,,,,,
1465827839.63,2.737912,0.049317,0.963415,0.006842,0.521668,-0.010299,0.392329,-0.049297,0.918503,-0.255778,0.055309,0.065155,-125.111000,233.053360,-100.811470,,,,,,
1465827839.64,2.742505,0.049221,0.963471,0.006735,0.437783,-0.008709,0.388107,-0.049201,0.920300,-0.255615,0.057059,0.061786,-125.111000,233.053360,-100.811470,,,,,,
1465827839.65,2.746133,0.049148,0.963512,0.004476,0.337969,-0.005956,0.384767,-0.049129,0.921705,-0.251207,0.056712,0.060564,-125.111000,233.053360,-100.811470,,,,,,
1465827839.66,2.748779,0.049104,0.963548,0.002223,0.241343,-0.004288,0.382328,-0.049084,0.922722,-0.254169,0.056393,0.058418,-122.536362,232.808060,-104.474075,,,,,,
1465827839.67,2.750459,0.049073,0.963565,0.002097,0.142592,-0.002604,0.380777,-0.049054,0.923365,-0.254618,0.054928,0.058462,-122.536362,232.808060,-104.474075,,,,,,
1465827839.68,2.751157,0.049061,0.963583,-0.001218,0.045970,-0.002001,0.380133,-0.049042,0.923631,-0.254874,0.056702,0.057815,-122.536362,232.808060,-104.474075,,,,,,
1465827839.69,2.750911,0.049071,0.963581,-0.000277,-0.049599,0.000728,0.380361,-0.049051,0.923537,-0.257665,0.056818,0.057909,-122.100945,232.793457,-105.014999,,,,,,
1465827839.70,2.749741,0.049126,0.963568,-0.005717,-0.138793,0.003411,0.381440,-0.049106,0.923088,-0.258927,0.055286,0.059028,-122.100945,232.793457,-105.014999,,,,,,
1465827839.71,2.747764,0.049206,0.963555,-0.007945,-0.215245,0.004952,0.383262,-0.049186,0.922329,-0.264244,0.057075,0.062077,-122.057114,232.791931,-105.069344,,,,,,
1465827839.72,2.745107,0.049288,0.963538,-0.006960,-0.278954,0.005353,0.385710,-0.049268,0.921304,-0.268721,0.057111,0.062705,-122.057114,232.791931,-105.069344,,,,,,
1465827839.73,2.754181,0.047018,0.962919,-0.009143,-0.324541,0.006701,0.377376,-0.047001,0.924867,-0.269099,0.054325,0.061965,-122.057114,232.791931,-105.069344,,,,,,
1465827839.74,2.762342,0.044950,0.962354,-0.009171,-0.351018,0.006868,0.369850,-0.044935,0.928004,-0.267174,0.052000,0.060353,-121.754196,232.544769,-105.964294,,,,,,
1465827839.75,2.769897,0.042969,0.961831,-0.010241,-0.359447,0.006920,0.362860,-0.042956,0.930853,-0.264197,0.051730,0.062418,-121.754196,232.544769,-105.964294,,,,,,
1465827839.76,2.777055,0.041158,0.961333,-0.007037,-0.353017,0.007948,0.356216,-0.041147,0.933497,-0.262847,0.048898,0.063054,-121.754196,232.544769,-105.964294,,,,,,
1465827839.77,2.783888,0.039378,0.960886,-0.008068,-0.331718,0.006749,0.349854,-0.039367,0.935977,-0.258835,0.049728,0.060651,-120.185455,232.038239,-108.826881,,,,,,
1465827839.78,2.799655,0.036218,0.960131,-0.005894,-0.302939,0.006571,0.335093,-0.036210,0.941489,-0.247553,0.044572,0.059472,-120.185455,232.038239,-108.826881,,,,,,
1465827839.80,2.812283,0.033485,0.959451,-0.005740,-0.188160,0.004787,0.323209,-0.033479,0.945735,-0.241620,0.043550,0.058171,-120.185455,232.038239,-108.826881,,,,,,
1465827839.79,2.805843,0.034877,0.959769,-0.003698,-0.252984,0.006260,0.329277,-0.034870,0.943589,-0.245140,0.040928,0.056792,-120.185455,232.038239,-108.826881,,,,,,
1465827839.81,2.819097,0.032165,0.959166,-0.003512,-0.115904,0.002208,0.316770,-0.032160,0.947957,-0.237776,0.041529,0.057246,-116.372910,231.005783,-114.992416,,,,,,
1465827839.82,2.826283,0.030934,0.958924,-0.003405,-0.037279,-0.000414,0.309962,-0.030929,0.950246,-0.231318,0.039688,0.055553,-116.372910,231.005783,-114.992416,,,,,,
1465827839.83,2.833866,0.029814,0.958709,-0.002236,0.043461,-0.000919,0.302758,-0.029809,0.952601,-0.223443,0.036599,0.052373,-114.907364,230.649826,-117.160278,,,,,,
1465827839.84,2.841618,0.028693,0.958534,0.001051,0.111461,-0.003471,0.295374,-0.028689,0.954951,-0.211680,0.036013,0.046560,-114.907364,230.649826,-117.160278,,,,,,
1465827839.85,2.849475,0.027550,0.958379,0.003261,0.173081,-0.003855,0.287872,-0.027546,0.957273,-0.199295,0.036427,0.042849,-114.907364,230.649826,-117.160278,,,,,,
1465827839.86,2.857286,0.026497,0.958248,0.002254,0.218770,-0.003078,0.280394,-0.026494,0.959519,-0.184950,0.034398,0.040877,-111.431450,230.022797,-121.663940,,,,,,
1465827839.87,2.864828,0.025423,0.958145,0.003355,0.242165,-0.005352,0.273156,-0.025420,0.961634,-0.170801,0.034896,0.035482,-111.431450,230.022797,-121.663940,,,,,,
1465827839.88,2.871857,0.024452,0.958062,0.002287,0.241125,-0.003218,0.266397,-0.024450,0.963553,-0.154931,0.032445,0.028192,-111.431450,230.022797,-121.663940,,,,,,
1465827839.89,2.878293,0.023526,0.958002,0.001201,0.218859,-0.005208,0.260195,-0.023524,0.965269,-0.144213,0.031275,0.024172,-109.632950,229.723083,-123.844673,,,,,,
1465827839.90,2.884079,0.022669,0.957951,0.001161,0.187024,-0.003944,0.254612,-0.022668,0.966778,-0.134129,0.029748,0.020756,-109.632950,229.723083,-123.844673,,,,,,
1465827839.91,2.889229,0.021854,0.957892,0.001108,0.144571,-0.002613,0.249634,-0.021852,0.968094,-0.128281,0.029085,0.019852,-109.632950,229.723083,-123.844673,,,,,,
1465827839.92,2.893697,0.021058,0.957834,0.001047,0.095745,-0.001243,0.245310,-0.021057,0.969216,-0.123422,0.028472,0.018791,-106.727768,229.207611,-127.289536,,,,,,
1465827839.93,2.897461,0.020287,0.957782,0.000982,0.040553,-0.001961,0.241664,-0.020285,0.970148,-0.119182,0.028189,0.015249,-106.727768,229.207611,-127.289536,,,,,,
1465827839.94,2.900644,0.019610,0.957727,-0.002273,-0.006152,0.000458,0.238578,-0.019609,0.970925,-0.117911,0.026323,0.015479,-106.727768,229.207611,-127.289536,,,,,,
1465827839.95,2.903214,0.018944,0.957667,-0.003397,-0.054977,0.000763,0.236085,-0.018942,0.971548,-0.115526,0.026419,0.016612,-105.738945,228.980255,-128.518082,,,,,,
1465827839.96,2.905393,0.018322,0.957600,-0.003449,-0.094251,0.003138,0.233970,-0.018321,0.972071,-0.118110,0.025706,0.017080,-105.738945,228.980255,-128.518082,,,,,,
1465827839.97,2.907284,0.017718,0.957537,-0.005614,-0.126083,0.002271,0.232134,-0.017718,0.972522,-0.121737,0.026446,0.017727,-105.738945,228.980255,-128.518082,,,,,,
1465827839.98,2.908978,0.017167,0.957473,-0.005633,-0.140933,0.003428,0.230489,-0.017166,0.972924,-0.123464,0.024704,0.019203,-104.553925,228.611099,-130.134613,,,,,,
1465827839.99,2.910685,0.016624,0.957399,-0.004569,-0.143038,0.003443,0.228829,-0.016624,0.973325,-0.127160,0.024665,0.021487,-104.553925,228.611099,-130.134613,,,,,,
1465827840.00,2.912494,0.016085,0.957328,-0.003484,-0.130276,0.002299,0.227071,-0.016085,0.973745,-0.129002,0.024187,0.023325,-104.553925,228.611099,-130.134613,,,,,,
1465827840.01,2.914552,0.015559,0.957273,-0.003447,-0.103709,0.001068,0.225068,-0.015558,0.974219,-0.131669,0.023646,0.022775,-104.137482,228.455780,-130.739883,,,,,,
1465827840.02,2.916917,0.015047,0.957216,-0.002338,-0.069713,0.000856,0.222765,-0.015046,0.974756,-0.131960,0.023164,0.024527,-104.137482,228.455780,-130.739883,,,,,,
1465827840.03,2.919690,0.014585,0.957188,-0.003339,-0.024031,-0.001560,0.220063,-0.014584,0.975377,-0.132355,0.021802,0.023769,-104.137482,228.455780,-130.739883,,,,,,
1465827840.04,2.922770,0.014122,0.957151,-0.002223,0.017394,-0.000755,0.217059,-0.014121,0.976056,-0.128634,0.021400,0.021899,-103.011948,228.162201,-132.136765,,,,,,
1465827840.05,2.926177,0.013624,0.957124,-0.002164,0.063069,-0.001041,0.213733,-0.013624,0.976797,-0.124652,0.022657,0.023890,-103.011948,228.162201,-132.136765,,,,,,
1465827840.06,2.929757,0.013142,0.957096,0.000012,0.098123,-0.001259,0.210236,-0.013142,0.977562,-0.116807,0.021657,0.022178,-103.011948,228.162201,-132.136765,,,,,,
1465827840.07,2.933421,0.012685,0.957082,0.001111,0.122562,-0.002476,0.206655,-0.012685,0.978332,-0.108998,0.020360,0.019135,-102.185318,228.021042,-133.019318,,,,,,
1465827840.08,2.937067,0.012236,0.957085,0.000070,0.138506,-0.003641,0.203088,-0.012235,0.979084,-0.101403,0.020185,0.017086,-102.185318,228.021042,-133.019318,,,,,,
1465827840.09,2.940541,0.011764,0.957082,0.001132,0.135333,-0.003620,0.199687,-0.011764,0.979789,-0.094294,0.020553,0.012230,-102.185318,228.021042,-133.019318,,,,,,
1465827840.10,2.943721,0.011339,0.957089,0.000055,0.124727,-0.003555,0.196570,-0.011338,0.980424,-0.086112,0.018800,0.009749,-100.339737,227.741241,-134.890472,,,,,,
1465827840.11,2.946540,0.010956,0.957094,-0.001038,0.102437,-0.002352,0.193806,-0.010956,0.980979,-0.079198,0.017563,0.010126,-100.339737,227.741241,-134.890472,,,,,,
1465827840.12,2.948954,0.010538,0.957085,-0.000013,0.071651,-0.001093,0.191439,-0.010538,0.981448,-0.074556,0.019525,0.007535,-100.339737,227.741241,-134.890472,,,,,,
1465827840.14,2.952672,0.009794,0.957057,-0.002225,0.006894,0.001440,0.187790,-0.009794,0.982160,-0.072297,0.016721,0.006060,-99.566895,227.617371,-135.670013,,,,,,
1465827840.13,2.950992,0.010133,0.957078,-0.001117,0.038745,-0.000888,0.189439,-0.010133,0.981840,-0.073518,0.018617,0.006060,-99.566895,227.617371,-135.670013,,,,,,
1465827840.15,2.953986,0.009445,0.957031,-0.002268,-0.028136,0.001659,0.186500,-0.009445,0.982410,-0.071952,0.017593,0.004758,-99.566895,227.617371,-135.670013,,,,,,
1465827840.16,2.955009,0.009103,0.957015,-0.001229,-0.051485,0.000742,0.185495,-0.009103,0.982603,-0.069925,0.017328,0.012545,-98.604172,227.391266,-136.747971,,,,,,
1465827840.17,2.955830,0.008801,0.956992,-0.004452,-0.073775,0.001943,0.184689,-0.008801,0.982758,-0.073925,0.015759,0.002930,-98.604172,227.391266,-136.747971,,,,,,
1465827840.18,2.956685,0.008496,0.956967,-0.004452,-0.074827,0.001950,0.183849,-0.008495,0.982918,-0.077419,0.016888,0.014290,-98.604172,227.391266,-136.747971,,,,,,
1465827840.19,2.957567,0.008187,0.956942,-0.003390,-0.080123,0.000920,0.182982,-0.008187,0.983082,-0.082122,0.016121,0.007183,-98.370132,227.295700,-137.075058,,,,,,
1465827840.21,2.959771,0.007612,0.956889,-0.003347,-0.046128,0.001771,0.180816,-0.007612,0.983487,-0.083663,0.016065,0.013064,-98.370132,227.295700,-137.075058,,,,,,
1465827840.20,2.958566,0.007914,0.956911,-0.003372,-0.063130,0.002942,0.182001,-0.007914,0.983266,-0.082605,0.015681,0.014017,-98.370132,227.295700,-137.075058,,,,,,
1465827840.22,2.961186,0.007365,0.956869,-0.001184,-0.021695,0.000555,0.179425,-0.007365,0.983744,-0.084378,0.013728,0.012945,-97.854973,227.121109,-137.731598,,,,,,
1465827840.23,2.962924,0.007068,0.956856,-0.001146,0.009105,0.001426,0.177715,-0.007068,0.984057,-0.084332,0.015933,0.017088,-97.854973,227.121109,-137.731598,,,,,,
1465827840.24,2.964846,0.006780,0.956852,-0.002172,0.035666,-0.000870,0.175824,-0.006780,0.984398,-0.082104,0.015890,0.011924,-97.854973,227.121109,-137.731598,,,,,,
1465827840.25,2.966991,0.006531,0.956852,-0.000006,0.063281,-0.001041,0.173712,-0.006531,0.984775,-0.078405,0.013046,0.013745,-97.434868,227.040161,-138.162216,,,,,,
1465827840.26,2.969151,0.006233,0.956853,0.001079,0.077096,-0.002191,0.171585,-0.006233,0.985150,-0.072128,0.014778,0.008381,-97.434868,227.040161,-138.162216,,,,,,
1465827840.27,2.971397,0.005950,0.956861,0.001095,0.090905,-0.001214,0.169372,-0.005950,0.985534,-0.067886,0.014083,0.013382,-97.434868,227.040161,-138.162216,,,,,,
1465827840.28,2.973513,0.005647,0.956861,-0.001036,0.089848,-0.000145,0.167286,-0.005647,0.985892,-0.061421,0.015336,0.006433,-96.304886,226.868271,-139.232651,,,,,,
1465827840.29,2.975517,0.005358,0.956864,0.001088,0.083486,-0.001167,0.165311,-0.005358,0.986227,-0.058057,0.014177,0.008921,-96.304886,226.868271,-139.232651,,,,,,
1465827840.30,2.977301,0.005115,0.956876,-0.001057,0.069690,-0.001083,0.163552,-0.005115,0.986521,-0.053917,0.012637,0.005666,-96.304886,226.868271,-139.232651,,,,,,
1465827840.31,2.978862,0.004865,0.956878,-0.001078,0.053766,0.000081,0.162012,-0.004865,0.986777,-0.050150,0.013623,0.005029,-95.753380,226.777054,-139.760620,,,,,,
1465827840.33,2.981155,0.004422,0.956860,-0.002203,0.005994,0.001444,0.159749,-0.004422,0.987148,-0.047002,0.012631,0.002659,-95.753380,226.777054,-139.760620,,,,,,
1465827840.32,2.980149,0.004648,0.956870,-0.002174,0.028289,0.000240,0.160742,-0.004648,0.986986,-0.048865,0.012384,0.002852,-95.753380,226.777054,-139.760620,,,,,,
1465827840.34,2.981985,0.004243,0.956851,-0.003289,-0.013110,0.000498,0.158930,-0.004243,0.987281,-0.047831,0.010896,0.004342,-94.996826,226.633499,-140.507767,,,,,,
1465827840.35,2.982675,0.004038,0.956840,-0.002248,-0.031158,0.001677,0.158248,-0.004038,0.987391,-0.050307,0.012338,0.004415,-94.996826,226.633499,-140.507767,,,,,,
1465827840.36,2.983223,0.003818,0.956833,-0.001193,-0.041768,0.000680,0.157707,-0.003818,0.987479,-0.050560,0.012531,0.004556,-94.996826,226.633499,-140.507767,,,,,,
1465827840.37,2.983701,0.003610,0.956821,-0.002171,-0.047091,0.000701,0.157236,-0.003610,0.987554,-0.049463,0.012491,0.005549,-94.792450,226.575745,-140.738770,,,,,,
1465827840.38,2.984277,0.003404,0.956820,-0.002166,-0.043900,0.000681,0.156667,-0.003404,0.987646,-0.055242,0.012132,0.002604,-94.792450,226.575745,-140.738770,,,,,,
1465827840.39,2.984966,0.003198,0.956807,-0.002152,-0.032217,0.001672,0.155986,-0.003198,0.987754,-0.055660,0.012093,0.011605,-94.792450,226.575745,-140.738770,,,,,,
1465827840.40,2.985819,0.003033,0.956808,-0.003199,-0.020527,0.000533,0.155144,-0.003033,0.987887,-0.058693,0.010373,0.007749,-94.492111,226.448669,-141.144684,,,,,,
1465827840.41,2.986801,0.002837,0.956808,-0.001044,-0.000348,0.000409,0.154173,-0.002837,0.988040,-0.055586,0.011504,0.008970,-94.492111,226.448669,-141.144684,,,,,,
1465827840.42,2.988009,0.002661,0.956815,-0.002083,0.017712,-0.000770,0.152980,-0.002661,0.988226,-0.058146,0.010672,0.008692,-94.492111,226.448669,-141.144684,,,,,,
1465827840.43,2.989291,0.002459,0.956827,-0.000994,0.034709,-0.001940,0.151713,-0.002459,0.988422,-0.052332,0.011111,0.009320,-94.245674,226.392929,-141.398621,,,,,,
1465827840.44,2.990743,0.002285,0.956840,0.000090,0.050638,-0.000974,0.150277,-0.002285,0.988641,-0.052713,0.009700,0.006201,-94.245674,226.392929,-141.398621,,,,,,
1465827840.45,2.992220,0.002098,0.956835,-0.000963,0.061259,0.000022,0.148818,-0.002098,0.988862,-0.047377,0.011009,0.006896,-94.245674,226.392929,-141.398621,,,,,,
1465827840.46,2.993700,0.001901,0.956838,0.000109,0.064451,-0.001061,0.147354,-0.001901,0.989082,-0.045334,0.010400,0.006676,-93.509087,226.277084,-142.071533,,,,,,
1465827840.47,2.995107,0.001723,0.956854,0.000111,0.063397,-0.002119,0.145962,-0.001723,0.989289,-0.041500,0.010237,0.005142,-93.509087,226.277084,-142.071533,,,,,,
1465827840.48,2.996343,0.001562,0.956868,0.000099,0.054903,-0.001001,0.144739,-0.001562,0.989469,-0.036462,0.008704,0.002856,-93.509087,226.277084,-142.071533,,,,,,
1465827840.49,2.997417,0.001367,0.956875,0.000083,0.042165,-0.000922,0.143677,-0.001367,0.989624,-0.034119,0.010369,0.002381,-93.114975,226.217789,-142.424316,,,,,,
1465827840.50,2.998331,0.001202,0.956885,-0.002061,0.029428,-0.000844,0.142772,-0.001202,0.989755,-0.032299,0.009869,0.001792,-93.114975,226.217789,-142.424316,,,,,,
1465827840.51,2.999075,0.001081,0.956890,-0.003147,0.013502,0.000319,0.142035,-0.001081,0.989861,-0.032004,0.008131,0.001121,-93.114975,226.217789,-142.424316,,,,,,
1465827840.52,2.999674,0.000939,0.956900,-0.002097,-0.000296,-0.000658,0.141442,-0.000939,0.989946,-0.031671,0.009026,0.001952,-92.577972,226.115982,-142.935165,,,,,,
1465827840.53,3.000189,0.000777,0.956892,-0.002114,-0.010916,0.001538,0.140933,-0.000777,0.990019,-0.033999,0.010253,0.002108,-92.577972,226.115982,-142.935165,,,,,,
1465827840.54,3.000564,0.000652,0.956884,-0.001060,-0.021528,0.000541,0.140561,-0.000652,0.990072,-0.032026,0.008236,0.001170,-92.577972,226.115982,-142.935165,,,,,,
1465827840.55,3.000946,0.000522,0.956882,-0.004256,-0.023647,0.000551,0.140183,-0.000522,0.990125,-0.035172,0.008823,0.001909,-92.428795,226.068771,-143.106277,,,,,,
1465827840.56,3.001314,0.000422,0.956880,-0.002130,-0.025771,0.001631,0.139819,-0.000422,0.990177,-0.035601,0.007228,0.004772,-92.428795,226.068771,-143.106277,,,,,,
1465827840.57,3.001755,0.000289,0.956871,-0.002118,-0.018331,0.000520,0.139382,-0.000289,0.990239,-0.037057,0.008513,0.005031,-92.428795,226.068771,-143.106277,,,,,,
1465827840.58,3.002297,0.000142,0.956869,-0.001046,-0.013019,0.000487,0.138845,-0.000142,0.990314,-0.038412,0.009252,0.006588,-92.215317,225.994736,-143.360687,,,,,,
1465827840.59,3.003005,-0.000006,0.956867,-0.003156,0.001852,0.000392,0.138145,0.000006,0.990412,-0.039985,0.009592,0.005346,-92.215317,225.994736,-143.360687,,,,,,
1465827840.60,3.003805,-0.000139,0.956878,-0.003138,0.013538,-0.000746,0.137352,0.000139,0.990522,-0.038993,0.008971,0.004366,-92.215317,225.994736,-143.360687,,,,,,
1465827840.61,3.004712,-0.000264,0.956884,-0.002059,0.026280,0.000240,0.136453,0.000264,0.990646,-0.038309,0.008311,0.004242,-92.044403,225.949417,-143.541870,,,,,,
1465827840.62,3.005689,-0.000364,0.956891,-0.003108,0.036906,-0.000892,0.135485,0.000364,0.990779,-0.034793,0.007174,0.005849,-92.044403,225.949417,-143.541870,,,,,,
1465827840.63,3.006679,-0.000487,0.956895,-0.000970,0.043279,-0.000930,0.134505,0.000487,0.990913,-0.032714,0.006914,0.003335,-92.044403,225.949417,-143.541870,,,,,,
1465827840.64,3.007682,-0.000629,0.956899,0.000101,0.047529,-0.000956,0.133511,0.000629,0.991047,-0.030041,0.008007,0.003887,-91.537170,225.872910,-143.985962,,,,,,
1465827840.66,3.009545,-0.000825,0.956902,-0.000971,0.042223,0.000141,0.131664,0.000825,0.991294,-0.024913,0.006178,0.002480,-91.537170,225.872910,-143.985962,,,,,,
1465827840.65,3.008668,-0.000732,0.956901,-0.002030,0.047530,0.000106,0.132534,0.000732,0.991178,-0.027904,0.007034,0.000674,-91.537170,225.872910,-143.985962,,,,,,
1465827840.67,3.010325,-0.000927,0.956908,-0.002044,0.033734,-0.000872,0.130891,0.000927,0.991396,-0.023866,0.006611,0.000349,-91.259415,225.834366,-144.222534,,,,,,
1465827840.68,3.011005,-0.001036,0.956912,0.000077,0.026303,-0.000823,0.130217,0.001036,0.991485,-0.022047,0.006456,0.004883,-91.259415,225.834366,-144.222534,,,,,,
1465827840.69,3.011552,-0.001152,0.956915,-0.001007,0.012499,0.000327,0.129674,0.001152,0.991556,-0.022573,0.006874,0.001455,-91.259415,225.834366,-144.222534,,,,,,
1465827840.70,3.012005,-0.001240,0.956914,0.000053,0.008254,0.000354,0.129225,0.001240,0.991615,-0.022017,0.005626,-0.003333,-90.858467,225.768295,-144.578690,,,,,,
1465827840.71,3.012410,-0.001378,0.956911,-0.001029,-0.006608,0.000447,0.128823,0.001378,0.991667,-0.022882,0.008235,0.006792,-90.858467,225.768295,-144.578690,,,,,,
1465827840.72,3.012711,-0.001435,0.956915,-0.001028,-0.007665,-0.000611,0.128525,0.001435,0.991705,-0.023819,0.004454,-0.005698,-90.858467,225.768295,-144.578690,,,,,,
1465827840.73,3.013059,-0.001575,0.956923,-0.001027,-0.007663,-0.000611,0.128180,0.001575,0.991750,-0.022635,0.008572,0.007655,-90.739929,225.733475,-144.707428,,,,,,
1465827840.74,3.013325,-0.001620,0.956927,-0.002098,-0.012969,-0.000579,0.127916,0.001620,0.991784,-0.024202,0.003827,-0.004357,-90.739929,225.733475,-144.707428,,,,,,
1465827840.75,3.013672,-0.001767,0.956921,0.001104,-0.005538,0.000442,0.127571,0.001767,0.991828,-0.023156,0.007831,0.005716,-90.739929,225.733475,-144.707428,,,,,,
1465827840.76,3.014085,-0.001853,0.956909,-0.002092,-0.005537,0.001503,0.127163,0.001853,0.991880,-0.027462,0.005960,0.000689,-90.570778,225.672394,-144.908508,,,,,,
1465827840.77,3.014589,-0.001936,0.956911,-0.002069,0.010396,0.000339,0.126662,0.001936,0.991944,-0.024718,0.006640,0.003539,-90.570778,225.672394,-144.908508,,,,,,
1465827840.78,3.015180,-0.001997,0.956921,-0.000998,0.013587,-0.000745,0.126076,0.001997,0.992019,-0.026741,0.004427,0.001924,-90.570778,225.672394,-144.908508,,,,,,
1465827840.79,3.015849,-0.002072,0.956934,-0.002047,0.025269,-0.000819,0.125412,0.002072,0.992103,-0.024521,0.006397,0.004266,-90.440277,225.646973,-145.029572,,,,,,
1465827840.81,3.017242,-0.002256,0.956953,0.001157,0.032705,-0.000863,0.124030,0.002256,0.992276,-0.022102,0.005725,0.002246,-90.440277,225.646973,-145.029572,,,,,,
1465827840.80,3.016542,-0.002149,0.956945,-0.000979,0.027395,-0.000832,0.124724,0.002149,0.992189,-0.023986,0.004992,0.001570,-90.440277,225.646973,-145.029572,,,,,,
1465827840.82,3.017937,-0.002362,0.956956,0.000092,0.033767,0.000194,0.123341,0.002362,0.992362,-0.020207,0.005481,0.002893,-90.073753,225.594223,-145.339401,,,,,,
1465827840.83,3.018621,-0.002430,0.956961,-0.000968,0.036955,0.000173,0.122661,0.002430,0.992446,-0.018993,0.004437,-0.000365,-90.073753,225.594223,-145.339401,,,,,,
1465827840.84,3.019251,-0.002530,0.956961,-0.000973,0.032709,0.000199,0.122036,0.002530,0.992522,-0.016582,0.006366,0.001694,-89.879868,225.566574,-145.502258,,,,,,
1465827840.85,3.019807,-0.002590,0.956972,-0.000977,0.027405,-0.000832,0.121484,0.002590,0.992590,-0.015573,0.004246,-0.003012,-89.879868,225.566574,-145.502258,,,,,,
1465827840.86,3.020331,-0.002673,0.956983,-0.002050,0.019974,-0.000786,0.120964,0.002673,0.992653,-0.016960,0.005628,-0.000908,-89.879868,225.566574,-145.502258,,,,,,
1465827840.87,3.020745,-0.002757,0.956986,-0.002056,0.014667,-0.000753,0.120553,0.002757,0.992703,-0.015282,0.005071,-0.000516,-89.714058,225.540939,-145.644257,,,,,,
1465827840.88,3.021101,-0.002854,0.956984,-0.000999,0.008297,-0.000712,0.120200,0.002854,0.992746,-0.015082,0.005935,-0.001214,-89.714058,225.540939,-145.644257,,,,,,
1465827840.89,3.021363,-0.002915,0.956989,-0.002075,0.000864,0.000398,0.119940,0.002915,0.992777,-0.013403,0.004684,-0.001307,-89.714058,225.540939,-145.644257,,,,,,
1465827840.90,3.021614,-0.002970,0.956982,-0.001010,0.000865,0.000399,0.119691,0.002970,0.992807,-0.014146,0.003866,0.000388,-89.714058,225.540939,-145.644257,,,,,,
1465827840.92,3.022062,-0.003143,0.956959,0.000051,-0.001259,0.001477,0.119245,0.003143,0.992860,-0.014677,0.004945,0.000777,-111.751060,218.040634,-138.020218,,,,,,
1465827840.91,3.021829,-0.003064,0.956972,0.001112,-0.004447,0.001499,0.119477,0.003064,0.992832,-0.014466,0.005176,0.001903,-111.751060,218.040634,-138.020218,,,,,,
1465827840.93,3.022336,-0.003223,0.956966,-0.001006,0.000872,-0.000666,0.118974,0.003223,0.992892,-0.016633,0.004620,0.001554,-111.751060,218.040634,-138.020218,,,,,,
1465827840.94,3.022655,-0.003272,0.956959,0.000064,0.006179,0.000366,0.118656,0.003272,0.992930,-0.016346,0.003488,0.000036,-111.619827,217.996384,-138.196213,,,,,,
1465827840.95,3.023041,-0.003312,0.956968,-0.000996,0.008308,-0.000713,0.118273,0.003312,0.992976,-0.017550,0.002868,0.001363,-111.619827,217.996384,-138.196213,,,,,,
1465827840.96,3.023486,-0.003398,0.956983,0.000079,0.015742,-0.000758,0.117831,0.003398,0.993028,-0.017184,0.005513,0.001983,-111.619827,217.996384,-138.196213,,,,,,
1465827840.97,3.023957,-0.003484,0.956985,-0.003108,0.023175,0.000256,0.117364,0.003484,0.993083,-0.015099,0.006541,-0.000193,-111.525070,217.982895,-138.293976,,,,,,
1465827840.98,3.024463,-0.003560,0.956989,-0.000975,0.025299,0.000245,0.116861,0.003560,0.993142,-0.014993,0.004955,0.002830,-111.525070,217.982895,-138.293976,,,,,,
1465827840.99,3.025024,-0.003594,0.956989,-0.000968,0.028489,-0.000839,0.116304,0.003594,0.993207,-0.016161,0.002311,0.000735,-111.525070,217.982895,-138.293976,,,,,,
1465827841.00,3.025502,-0.003661,0.957003,-0.000969,0.027429,-0.000833,0.115829,0.003661,0.993262,-0.011169,0.004075,0.002282,-111.262238,217.938461,-138.575424,,,,,,
1465827841.01,3.025987,-0.003743,0.957013,0.000095,0.026368,-0.000825,0.115348,0.003743,0.993318,-0.012488,0.004940,-0.000490,-111.262238,217.938461,-138.575424,,,,,,
1465827841.02,3.026441,-0.003811,0.957014,-0.003101,0.026368,0.000236,0.114896,0.003811,0.993370,-0.010694,0.005177,-0.000374,-111.262238,217.938461,-138.575424,,,,,,
1465827841.03,3.026872,-0.003866,0.957024,-0.002041,0.021062,-0.000794,0.114469,0.003866,0.993419,-0.011640,0.004068,0.001332,-111.137772,217.913788,-138.714035,,,,,,
1465827841.04,3.027222,-0.003918,0.957018,-0.000983,0.016813,0.000298,0.114121,0.003918,0.993459,-0.009568,0.003650,0.000315,-111.137772,217.913788,-138.714035,,,,,,
1465827841.05,3.027491,-0.003992,0.957016,-0.000988,0.012566,0.000325,0.113854,0.003992,0.993490,-0.007576,0.004614,0.001261,-111.137772,217.913788,-138.714035,,,,,,
1465827841.06,3.027743,-0.004060,0.957020,-0.002052,0.010447,-0.000728,0.113603,0.004060,0.993518,-0.008729,0.004806,-0.001041,-110.935776,217.875977,-138.934937,,,,,,
1465827841.07,3.027930,-0.004121,0.957023,-0.000995,0.006197,0.000365,0.113417,0.004121,0.993539,-0.007399,0.003844,-0.000604,-110.935776,217.875977,-138.934937,,,,,,
1465827841.08,3.028118,-0.004170,0.957021,-0.002060,0.005137,0.000370,0.113231,0.004170,0.993560,-0.008098,0.003750,-0.001189,-110.935776,217.875977,-138.934937,,,,,,
1465827841.09,3.028313,-0.004255,0.957025,-0.000992,0.006202,-0.000700,0.113036,0.004255,0.993582,-0.008437,0.005571,0.000193,-110.879417,217.855881,-139.011475,,,,,,
1465827841.10,3.028544,-0.004297,0.957035,-0.002056,0.006203,-0.000701,0.112807,0.004297,0.993608,-0.010558,0.003577,-0.000352,-110.879417,217.855881,-139.011475,,,,,,
1465827841.11,3.028751,-0.004365,0.957039,-0.002058,0.006201,0.000363,0.112602,0.004365,0.993631,-0.008781,0.004912,0.000434,-110.879417,217.855881,-139.011475,,,,,,
1465827841.12,3.029009,-0.004421,0.957048,-0.000985,0.010452,-0.000727,0.112345,0.004421,0.993659,-0.009897,0.003773,0.000344,-110.774796,217.817535,-139.154877,,,,,,
1465827841.13,3.029299,-0.004464,0.957042,-0.002051,0.012571,0.001388,0.112057,0.004464,0.993692,-0.009136,0.003791,0.001059,-110.774796,217.817535,-139.154877,,,,,,
1465827841.14,3.029791,-0.004569,0.957031,-0.000982,0.016817,0.002427,0.111568,0.004569,0.993746,-0.009349,0.003136,0.000745,-110.774796,217.817535,-139.154877,,,,,,
1465827841.15,3.030157,-0.004610,0.957030,-0.000970,0.023195,0.000258,0.111204,0.004610,0.993787,-0.009138,0.003035,0.003116,-110.701668,217.802368,-139.236755,,,,,,
1465827841.16,3.030524,-0.004664,0.957041,-0.002033,0.022137,-0.000801,0.110839,0.004664,0.993827,-0.008391,0.004324,-0.000602,-110.701668,217.802368,-139.236755,,,,,,
1465827841.17,3.030888,-0.004677,0.957032,-0.003098,0.025318,0.001307,0.110477,0.004677,0.993868,-0.006656,0.002724,0.001433,-110.701668,217.802368,-139.236755,,,,,,
1465827841.18,3.031223,-0.004725,0.957031,-0.000968,0.023197,0.000258,0.110145,0.004725,0.993904,-0.006110,0.003408,-0.000786,-110.483154,217.771179,-139.458908,,,,,,
1465827841.19,3.031543,-0.004775,0.957037,-0.002031,0.024260,0.000250,0.109827,0.004775,0.993939,-0.004694,0.004502,0.001041,-110.483154,217.771179,-139.458908,,,,,,
1465827841.20,3.031864,-0.004826,0.957042,-0.000969,0.020016,-0.000787,0.109507,0.004826,0.993974,-0.006663,0.003856,-0.001192,-110.483154,217.771179,-139.458908,,,,,,
1465827841.21,3.032141,-0.004894,0.957035,0.000091,0.017889,0.000292,0.109232,0.004894,0.994004,-0.005121,0.004338,0.000182,-110.395309,217.755875,-139.552353,,,,,,
1465827841.22,3.032396,-0.004958,0.957037,0.000089,0.015766,0.000305,0.108978,0.004958,0.994032,-0.005280,0.003724,0.001238,-110.395309,217.755875,-139.552353,,,,,,
1465827841.23,3.032610,-0.005003,0.957046,-0.000976,0.013646,-0.000747,0.108765,0.005003,0.994055,-0.003892,0.003221,0.000498,-110.395309,217.755875,-139.552353,,,,,,
1465827841.24,3.032774,-0.005013,0.957050,-0.002043,0.011524,-0.000735,0.108603,0.005013,0.994073,-0.002753,0.001487,0.000465,-110.253609,217.720612,-139.719299,,,,,,
1465827841.25,3.032957,-0.005055,0.957048,-0.000983,0.009397,0.000344,0.108420,0.005055,0.994092,-0.005729,0.003033,-0.000852,-110.253609,217.720612,-139.719299,,,,,,
1465827841.26,3.033105,-0.005116,0.957041,-0.000984,0.009395,0.001408,0.108273,0.005116,0.994108,-0.003537,0.004558,-0.000486,-110.253609,217.720612,-139.719299,,,,,,
1465827841.27,3.033266,-0.005132,0.957042,-0.005240,0.010462,0.000333,0.108114,0.005132,0.994125,-0.003743,0.003153,-0.001129,-110.206757,217.712692,-139.768585,,,,,,
1465827841.28,3.033452,-0.005160,0.957045,0.000084,0.008339,-0.000713,0.107929,0.005160,0.994145,-0.006168,0.001905,-0.001042,-110.206757,217.712692,-139.768585,,,,,,
1465827841.29,3.033656,-0.005233,0.957057,0.000087,0.010463,-0.000726,0.107726,0.005233,0.994167,-0.006010,0.003876,-0.000957,-110.206757,217.712692,-139.768585,,,,,,
1465827841.30,3.033846,-0.005312,0.957061,-0.000973,0.013650,-0.000747,0.107537,0.005312,0.994187,-0.003274,0.005247,0.001434,-110.115280,217.684845,-139.884033,,,,,,
1465827841.31,3.034094,-0.005363,0.957064,-0.000976,0.012586,0.000324,0.107291,0.005363,0.994213,-0.006598,0.003258,-0.000256,-110.115280,217.684845,-139.884033,,,,,,
1465827841.32,3.034332,-0.005404,0.957073,-0.002033,0.016837,-0.000769,0.107054,0.005404,0.994239,-0.004362,0.002958,0.000284,-110.115280,217.684845,-139.884033,,,,,,
1465827841.33,3.034571,-0.005438,0.957083,-0.003095,0.018961,-0.000783,0.106816,0.005438,0.994264,-0.003270,0.003168,-0.000718,-110.058563,217.664612,-139.960114,,,,,,
1465827841.34,3.034812,-0.005476,0.957092,-0.000964,0.020022,-0.000787,0.106576,0.005476,0.994289,-0.002832,0.002764,0.001133,-110.058563,217.664612,-139.960114,,,,,,
1465827841.35,3.035055,-0.005510,0.957101,-0.000962,0.021084,-0.000794,0.106334,0.005510,0.994315,-0.002254,0.002226,-0.000922,-110.058563,217.664612,-139.960114,,,,,,
1465827841.36,3.035275,-0.005530,0.957106,-0.001935,0.017799,0.000278,0.106116,0.005530,0.994338,-0.001654,0.002358,0.000611,-109.935303,217.638931,-140.096863,,,,,,
1465827841.37,3.035466,-0.005557,0.957100,-0.001936,0.017796,0.001343,0.105926,0.005557,0.994358,-0.000381,0.002774,0.000011,-109.935303,217.638931,-140.096863,,,,,,
1465827841.38,3.035666,-0.005603,0.957097,0.000194,0.016736,0.000287,0.105727,0.005603,0.994379,-0.002288,0.002621,-0.001093,-109.878609,217.631958,-140.152161,,,,,,
1465827841.39,3.035867,-0.005661,0.957094,0.001257,0.014612,0.000301,0.105527,0.005661,0.994400,-0.003049,0.003021,-0.001358,-109.878609,217.631958,-140.152161,,,,,,
1465827841.40,3.036050,-0.005708,0.957092,-0.001941,0.013549,0.001369,0.105346,0.005708,0.994419,-0.002913,0.003570,-0.001881,-109.878609,217.631958,-140.152161,,,,,,
1465827841.41,3.036174,-0.005719,0.957101,-0.001938,0.013552,0.000305,0.105221,0.005719,0.994432,-0.000683,0.001117,-0.001207,-109.823380,217.616806,-140.218979,,,,,,
1465827841.42,3.036309,-0.005743,0.957094,-0.001943,0.011426,0.001383,0.105088,0.005743,0.994446,-0.001221,0.002650,0.002426,-109.823380,217.616806,-140.218979,,,,,,
1465827841.43,3.036455,-0.005767,0.957093,-0.001940,0.010370,-0.000740,0.104943,0.005767,0.994462,-0.002877,0.002320,0.002120,-109.823380,217.616806,-140.218979,,,,,,
1465827841.44,3.036579,-0.005791,0.957092,-0.001948,0.007179,0.001409,0.104819,0.005791,0.994474,-0.002997,0.002601,-0.002363,-109.743240,217.600906,-140.306335,,,,,,
1465827841.45,3.036698,-0.005817,0.957079,-0.000877,0.011426,0.001384,0.104701,0.005817,0.994487,-0.000865,0.002103,-0.000117,-109.743240,217.600906,-140.306335,,,,,,
1465827841.46,3.036787,-0.005855,0.957082,-0.001939,0.010370,-0.000740,0.104612,0.005855,0.994496,0.000659,0.002781,-0.001988,-109.743240,217.600906,-140.306335,,,,,,
1465827841.47,3.036932,-0.005903,0.957080,-0.003002,0.014613,0.001361,0.104467,0.005903,0.994511,-0.002310,0.003695,0.000744,-109.707298,217.594711,-140.344055,,,,,,
1465827841.48,3.037105,-0.005958,0.957088,0.000197,0.014617,-0.000764,0.104296,0.005958,0.994528,-0.001253,0.003395,-0.000846,-109.707298,217.594711,-140.344055,,,,,,
1465827841.49,3.037234,-0.005989,0.957086,0.000194,0.013552,0.000307,0.104167,0.005989,0.994542,-0.000331,0.002052,-0.001164,-109.707298,217.594711,-140.344055,,,,,,
1465827841.50,3.037396,-0.006017,0.957088,0.000200,0.016741,-0.000778,0.104007,0.006017,0.994558,0.000272,0.001826,0.001352,-109.637314,217.568008,-140.440109,,,,,,
1465827841.51,3.037586,-0.006029,0.957094,-0.000867,0.016738,0.000286,0.103818,0.006029,0.994578,-0.000729,0.002150,-0.001002,-109.637314,217.568008,-140.440109,,,,,,
1465827841.52,3.037803,-0.006049,0.957097,0.000203,0.018864,-0.000791,0.103602,0.006049,0.994600,-0.001521,0.001687,0.000685,-109.637314,217.568008,-140.440109,,,,,,
1465827841.53,3.037948,-0.006067,0.957094,-0.000872,0.013550,0.001370,0.103457,0.006067,0.994615,-0.000689,0.000952,-0.004396,-109.637314,217.568008,-140.440109,,,,,,
1465827841.54,3.038078,-0.006046,0.957093,-0.001930,0.017800,0.000278,0.103328,0.006046,0.994629,0.002889,-0.000110,-0.000748,-109.540581,217.555420,-140.535080,,,,,,
1465827841.55,3.038170,-0.006062,0.957095,0.000196,0.012493,-0.000751,0.103236,0.006062,0.994638,0.002080,0.001140,-0.002344,-109.540581,217.555420,-140.535080,,,,,,
1465827841.56,3.038306,-0.006094,0.957093,-0.000870,0.013552,0.000306,0.103101,0.006094,0.994652,0.000017,0.002100,-0.000557,-109.540581,217.555420,-140.535080,,,,,,
1465827841.57,3.038403,-0.006122,0.957100,-0.000869,0.010373,-0.001803,0.103004,0.006122,0.994662,0.000359,0.001767,-0.000582,-109.509552,217.556046,-140.558289,,,,,,
1465827841.58,3.038497,-0.006133,0.957105,-0.003000,0.012491,0.000310,0.102911,0.006133,0.994672,0.001734,0.002122,-0.001675,-109.509552,217.556046,-140.558289,,,,,,
1465827841.59,3.038570,-0.006142,0.957103,-0.000870,0.012490,0.000312,0.102839,0.006142,0.994679,0.002584,0.001380,-0.002522,-109.509552,217.556046,-140.558289,,,,,,
1465827841.61,3.038743,-0.006218,0.957112,-0.001936,0.011428,0.000318,0.102666,0.006218,0.994696,-0.000509,0.002678,0.000253,-109.456795,217.543259,-140.619156,,,,,,
1465827841.60,3.038629,-0.006176,0.957110,0.000194,0.010368,-0.000738,0.102779,0.006176,0.994685,0.002460,0.001804,-0.002208,-109.456795,217.543259,-140.619156,,,,,,
1465827841.62,3.038860,-0.006244,0.957105,-0.000871,0.011428,0.000319,0.102550,0.006244,0.994708,-0.000453,0.002148,-0.000079,-109.456795,217.543259,-140.619156,,,,,,
1465827841.63,3.038989,-0.006240,0.957115,-0.001929,0.014616,-0.000767,0.102422,0.006240,0.994722,0.001338,0.001145,-0.000871,-109.436165,217.530975,-140.654205,,,,,,
1465827841.64,3.039105,-0.006264,0.957112,-0.000870,0.011428,0.000319,0.102306,0.006264,0.994733,0.000401,0.001945,-0.001661,-109.436165,217.530975,-140.654205,,,,,,
1465827841.65,3.039212,-0.006308,0.957120,-0.000864,0.014616,-0.000766,0.102200,0.006308,0.994744,0.001911,0.002756,0.001060,-109.436165,217.530975,-140.654205,,,,,,
1465827841.66,3.039340,-0.006324,0.957123,-0.000867,0.013551,0.000305,0.102073,0.006324,0.994757,0.000085,0.001137,-0.001364,-109.373932,217.516602,-140.724838,,,,,,
1465827841.67,3.039477,-0.006342,0.957121,0.000198,0.013550,0.000306,0.101937,0.006342,0.994771,0.000328,0.001852,-0.002766,-109.373932,217.516602,-140.724838,,,,,,
1465827841.68,3.039588,-0.006353,0.957119,-0.000868,0.014609,0.001363,0.101826,0.006353,0.994782,0.001705,0.001185,-0.001236,-109.373932,217.516602,-140.724838,,,,,,
1465827841.69,3.039682,-0.006358,0.957117,-0.001926,0.015677,-0.000774,0.101733,0.006358,0.994791,0.003706,0.001455,-0.001109,-109.337654,217.511414,-140.761047,,,,,,
1465827841.70,3.039811,-0.006368,0.957121,-0.000864,0.015673,0.000292,0.101604,0.006368,0.994805,0.001424,0.001369,-0.002632,-109.337654,217.511414,-140.761047,,,,,,
1465827841.71,3.039940,-0.006368,0.957131,-0.001926,0.015677,-0.000774,0.101476,0.006368,0.994818,0.001186,0.001459,0.000620,-109.337654,217.511414,-140.761047,,,,,,
1465827841.73,3.040145,-0.006396,0.957133,-0.001925,0.017797,0.000277,0.101272,0.006396,0.994838,0.001878,0.001890,-0.001674,-109.275146,217.506439,-140.817261,,,,,,
1465827841.72,3.040016,-0.006378,0.957134,-0.001929,0.014612,0.000297,0.101400,0.006378,0.994825,0.004008,0.001389,0.000567,-109.275146,217.506439,-140.817261,,,,,,
1465827841.74,3.040253,-0.006391,0.957126,-0.000864,0.016731,0.001350,0.101164,0.006391,0.994849,0.003053,0.000552,-0.002418,-109.275146,217.506439,-140.817261,,,,,,
1465827841.75,3.040333,-0.006412,0.957129,-0.000862,0.014613,-0.000766,0.101085,0.006412,0.994857,0.003545,0.002087,-0.001312,-109.247261,217.502151,-140.845520,,,,,,
1465827841.77,3.040506,-0.006432,0.957128,-0.001930,0.014607,0.001362,0.100913,0.006432,0.994874,0.001840,0.001212,-0.001604,-109.247261,217.502151,-140.845520,,,,,,
1465827841.76,3.040403,-0.006437,0.957134,-0.002994,0.012490,-0.000755,0.101015,0.006437,0.994864,0.004179,0.003237,-0.001196,-109.247261,217.502151,-140.845520,,,,,,
1465827841.78,3.040580,-0.006432,0.957126,-0.001932,0.011424,0.000317,0.100839,0.006432,0.994882,0.003150,0.001122,0.000769,-109.196190,217.497055,-140.892975,,,,,,
1465827841.79,3.040681,-0.006425,0.957131,-0.001928,0.014609,0.000297,0.100738,0.006425,0.994892,0.002701,0.001037,-0.000523,-109.196190,217.497055,-140.892975,,,,,,
1465827841.80,3.040767,-0.006453,0.957117,0.000197,0.012481,0.001377,0.100653,0.006453,0.994901,0.002817,0.001955,0.001269,-109.196190,217.497055,-140.892975,,,,,,
1465827841.81,3.040873,-0.006465,0.957110,-0.000864,0.013546,0.000305,0.100547,0.006465,0.994911,0.001672,0.001562,-0.001183,-109.171982,217.497925,-140.910385,,,,,,
1465827841.82,3.040964,-0.006471,0.957109,-0.002994,0.014606,0.001361,0.100456,0.006471,0.994920,0.003349,0.001906,-0.001085,-109.171982,217.497925,-140.910385,,,,,,
1465827841.83,3.041073,-0.006490,0.957120,-0.001924,0.013552,-0.001825,0.100348,0.006490,0.994931,0.002939,0.002894,-0.000974,-109.141235,217.493851,-140.940475,,,,,,
1465827841.84,3.041138,-0.006513,0.957122,0.001265,0.012482,0.000314,0.100284,0.006513,0.994938,0.004086,0.001498,-0.003269,-109.141235,217.493851,-140.940475,,,,,,
1465827841.85,3.041232,-0.006543,0.957109,-0.000864,0.014603,0.001363,0.100190,0.006543,0.994947,0.002746,0.002399,-0.001691,-109.141235,217.493851,-140.940475,,,,,,
1465827841.86,3.041328,-0.006537,0.957102,-0.001927,0.015665,0.001355,0.100094,0.006537,0.994956,0.003208,0.000543,-0.002510,-109.092087,217.482162,-140.996567,,,,,,
1465827841.87,3.041418,-0.006566,0.957099,-0.000864,0.012482,0.000312,0.100005,0.006566,0.994965,0.002702,0.002224,-0.001633,-109.092087,217.482162,-140.996567,,,,,,
1465827841.88,3.041522,-0.006559,0.957107,-0.000857,0.015670,-0.000773,0.099902,0.006559,0.994976,0.002866,0.000078,-0.001705,-109.092087,217.482162,-140.996567,,,,,,
1465827841.89,3.041592,-0.006622,0.957115,-0.000864,0.011420,0.000318,0.099832,0.006622,0.994982,0.003287,0.003906,-0.001330,-109.064224,217.479630,-141.022034,,,,,,
1465827841.90,3.041735,-0.006577,0.957114,-0.004047,0.020977,0.000255,0.099689,0.006577,0.994997,0.003186,-0.001206,-0.003282,-109.064224,217.479630,-141.022034,,,,,,
1465827841.91,3.041811,-0.006666,0.957108,-0.001932,0.010354,0.001388,0.099614,0.006666,0.995004,0.003764,0.006823,0.000220,-109.064224,217.479630,-141.022034,,,,,,
1465827841.92,3.041882,-0.006516,0.957104,-0.006181,0.016730,0.000280,0.099544,0.006516,0.995012,0.004338,-0.005799,-0.002962,-109.064224,217.479630,-141.022034,,,,,,
1465827841.93,3.041932,-0.006684,0.957105,0.001264,0.008234,-0.000724,0.099494,0.006684,0.995016,0.003427,0.009628,0.004069,-109.012962,217.463669,-141.086273,,,,,,
1465827841.94,3.042093,-0.006559,0.957117,-0.002978,0.022040,-0.000815,0.099334,0.006559,0.995033,0.001695,-0.005033,0.001763,-109.012962,217.463669,-141.086273,,,,,,
1465827841.95,3.042060,-0.006758,0.957125,0.000196,0.005048,-0.000705,0.099366,0.006758,0.995028,0.005722,0.009432,0.000486,-108.995720,217.461197,-141.103394,,,,,,
1465827841.97,3.042155,-0.006718,0.957124,-0.003001,0.003984,0.000363,0.099272,0.006718,0.995038,0.005343,0.002041,-0.005994,-108.995720,217.461197,-141.103394,,,,,,
1465827841.96,3.042203,-0.006659,0.957125,0.001276,0.018848,0.000274,0.099223,0.006659,0.995043,0.001622,-0.004065,-0.003206,-108.995720,217.461197,-141.103394,,,,,,
1465827841.98,3.042298,-0.006773,0.957122,0.005533,0.016722,0.000291,0.099129,0.006773,0.995052,0.001854,0.004152,0.002415,-108.995720,217.461197,-141.103394,,,,,,
1465827841.99,3.042323,-0.006703,0.957131,-0.008320,0.008234,0.000331,0.099104,0.006703,0.995054,0.003130,-0.003026,-0.000761,-108.968895,217.454254,-141.134781,,,,,,
1465827842.00,3.042450,-0.006881,0.957120,0.008726,0.016716,0.001359,0.098978,0.006881,0.995066,0.004568,0.009339,0.006460,-108.968895,217.454254,-141.134781,,,,,,
1465827842.01,3.042499,-0.006724,0.957126,-0.008306,0.016730,-0.000787,0.098930,0.006724,0.995072,0.004860,-0.006602,-0.007462,-108.946434,217.455795,-141.149765,,,,,,
1465827842.03,3.042694,-0.006730,0.957134,-0.007240,0.017790,-0.000793,0.098735,0.006730,0.995091,0.004963,-0.006867,-0.006642,-108.946434,217.455795,-141.149765,,,,,,
1465827842.02,3.042629,-0.006918,0.957125,0.005532,0.014596,0.000304,0.098800,0.006918,0.995083,0.003007,0.009485,-0.000088,-108.946434,217.455795,-141.149765,,,,,,
1465827842.04,3.042755,-0.006829,0.957120,-0.000863,0.011410,0.001382,0.098674,0.006829,0.995096,0.005055,0.005851,-0.001475,-108.946434,217.455795,-141.149765,,,,,,
1465827842.05,3.042793,-0.006805,0.957124,0.001270,0.012473,0.000313,0.098637,0.006804,0.995100,0.005581,0.000031,0.002474,-108.895370,217.451508,-141.195770,,,,,,
1465827842.06,3.042824,-0.006830,0.957125,-0.003961,0.009219,0.000317,0.098606,0.006830,0.995103,0.004772,0.001349,-0.000047,-108.895370,217.451508,-141.195770,,,,,,
1465827842.07,3.042879,-0.006881,0.957128,0.003505,0.017712,-0.000793,0.098551,0.006881,0.995108,0.007604,0.003556,0.004434,-108.880722,217.441162,-141.222992,,,,,,
1465827842.08,3.042896,-0.006871,0.957130,-0.003960,0.009218,0.000317,0.098534,0.006871,0.995110,0.004707,-0.000218,-0.005257,-108.880722,217.441162,-141.222992,,,,,,
1465827842.09,3.043006,-0.006887,0.957140,0.000315,0.018777,-0.001868,0.098425,0.006887,0.995121,0.003809,0.002284,-0.003574,-108.880722,217.441162,-141.222992,,,,,,
1465827842.10,3.043051,-0.006830,0.957151,-0.006081,0.012409,-0.001834,0.098380,0.006829,0.995125,0.005013,-0.000772,-0.004983,-108.855881,217.427216,-141.263611,,,,,,
1465827842.11,3.043083,-0.006893,0.957149,0.000302,0.011338,0.000308,0.098348,0.006893,0.995128,0.004557,0.004581,-0.000957,-108.855881,217.427216,-141.263611,,,,,,
1465827842.12,3.043117,-0.006804,0.957149,-0.003955,0.013463,0.000290,0.098314,0.006804,0.995132,0.005094,-0.002913,-0.003784,-108.855881,217.427216,-141.263611,,,,,,
1465827842.13,3.043126,-0.006891,0.957145,-0.000766,0.008152,0.000327,0.098305,0.006891,0.995132,0.005760,0.005072,0.003677,-108.847206,217.425354,-141.273163,,,,,,
1465827842.14,3.043165,-0.006848,0.957145,-0.003957,0.011338,0.000304,0.098267,0.006848,0.995137,0.003463,-0.000866,-0.004643,-108.847206,217.425354,-141.273163,,,,,,
1465827842.15,3.043177,-0.007097,0.957160,-0.002879,0.018772,-0.000807,0.098255,0.007097,0.995136,0.008160,0.016188,-0.014423,-108.847206,217.425354,-141.273163,,,,,,
1465827842.16,3.043468,-0.006777,0.957148,-0.011381,0.036818,0.002265,0.097965,0.006777,0.995167,0.003918,-0.011645,-0.019077,-108.840569,217.393478,-141.327347,,,,,,
1465827842.17,3.043459,-0.006804,0.957145,-0.014620,-0.002462,0.000379,0.097974,0.006804,0.995166,0.005344,0.008974,0.007855,-108.840569,217.393478,-141.327347,,,,,,
1465827842.18,3.043455,-0.006622,0.957125,-0.006095,0.007083,0.002457,0.097978,0.006622,0.995167,0.005461,-0.004394,0.005779,-108.840569,217.393478,-141.327347,,,,,,
1465827842.19,3.043317,-0.006658,0.957143,-0.008229,-0.005643,-0.002788,0.098115,0.006658,0.995153,0.003844,0.005824,0.006343,-108.840569,217.393478,-141.327347,,,,,,
1465827842.20,3.043432,-0.006711,0.957156,-0.005008,0.019829,0.000249,0.098000,0.006711,0.995164,0.005805,0.006472,-0.000077,-108.807671,217.461578,-141.247849,,,,,,
1465827842.21,3.043374,-0.006525,0.957157,-0.018880,-0.002465,0.001440,0.098058,0.006525,0.995159,0.001200,-0.001352,-0.017056,-108.807671,217.461578,-141.247849,,,,,,
1465827842.22,3.043494,-0.006275,0.957146,-0.020985,0.020890,0.003420,0.097939,0.006275,0.995173,0.002845,-0.003666,-0.010553,-108.799881,217.480377,-141.224945,,,,,,
1465827842.23,3.043626,-0.006108,0.957128,-0.013465,0.026594,0.002320,0.097808,0.006108,0.995187,0.003648,0.000515,-0.013238,-108.799881,217.480377,-141.224945,,,,,,
1465827842.24,3.044036,-0.006057,0.957126,-0.000653,0.051014,0.000051,0.097400,0.006057,0.995227,0.009351,-0.000152,0.027341,-108.799881,217.480377,-141.224945,,,,,,
1465827842.25,3.044088,-0.006162,0.957137,0.007809,0.001114,-0.002821,0.097349,0.006162,0.995231,0.007159,0.002017,0.036858,-108.749107,217.546143,-141.162720,,,,,,
1465827842.26,3.044021,-0.006210,0.957135,0.014198,0.005351,-0.000712,0.097415,0.006210,0.995224,0.007092,-0.005111,0.004745,-108.749107,217.546143,-141.162720,,,,,,
1465827842.27,3.043983,-0.006240,0.957133,0.014203,0.008539,-0.001797,0.097453,0.006240,0.995221,0.005575,-0.007110,-0.002194,-108.749107,217.546143,-141.162720,,,,,,
1465827842.28,3.044004,-0.006380,0.957116,0.012073,0.012778,0.001368,0.097432,0.006380,0.995222,0.007747,0.000196,0.011584,-108.702576,217.525620,-141.230179,,,,,,
1465827842.29,3.043958,-0.006531,0.957105,0.015254,-0.001022,-0.000671,0.097478,0.006531,0.995216,0.002254,0.001281,-0.011162,-108.702576,217.525620,-141.230179,,,,,,
1465827842.30,3.044001,-0.006746,0.957112,0.009951,0.012787,-0.001828,0.097435,0.006746,0.995219,0.004967,0.006087,0.003896,-108.702576,217.525620,-141.230179,,,,,,
1465827842.31,3.043861,-0.006954,0.957122,0.003539,-0.006323,-0.001714,0.097574,0.006953,0.995204,0.004065,0.008336,-0.010310,-108.706207,217.484329,-141.290970,,,,,,
1465827842.32,3.043936,-0.006948,0.957128,-0.006005,0.025532,-0.000859,0.097499,0.006948,0.995211,0.004842,0.001750,-0.024997,-108.706207,217.484329,-141.290970,,,,,,
1465827842.33,3.043899,-0.006893,0.957123,-0.011368,-0.004199,0.000386,0.097536,0.006893,0.995208,0.000349,0.002522,-0.019180,-108.706207,217.484329,-141.290970,,,,,,
1465827842.34,3.043982,-0.006711,0.957108,-0.007079,0.023399,0.002346,0.097454,0.006711,0.995217,0.006306,-0.004819,-0.006280,-108.706207,217.484329,-141.290970,,,,,,
1465827842.35,3.043956,-0.006741,0.957110,-0.006035,0.000051,-0.001764,0.097479,0.006741,0.995215,0.001993,0.005573,0.010919,-108.726250,217.427856,-141.362427,,,,,,
1465827842.36,3.044113,-0.006800,0.957103,0.004641,0.025522,0.000216,0.097323,0.006800,0.995230,0.009092,0.001241,0.022425,-108.726250,217.427856,-141.362427,,,,,,
1465827842.37,3.044044,-0.006931,0.957112,0.002476,-0.006325,-0.001716,0.097392,0.006931,0.995222,0.004064,0.006070,0.014925,-108.712112,217.452026,-141.336090,,,,,,
1465827842.38,3.044135,-0.006804,0.957120,-0.002768,0.021760,0.001291,0.097301,0.006804,0.995232,0.004963,-0.007476,-0.009972,-108.712112,217.452026,-141.336090,,,,,,
1465827842.39,3.044144,-0.006936,0.957117,-0.001716,0.009021,0.000307,0.097292,0.006936,0.995232,0.004743,0.008094,-0.008186,-108.712112,217.452026,-141.336090,,,,,,
1465827842.40,3.044271,-0.006725,0.957107,-0.008092,0.021762,0.001286,0.097166,0.006725,0.995245,0.004488,-0.006878,-0.014136,-108.691101,217.421951,-141.398529,,,,,,
1465827842.41,3.044273,-0.006958,0.957110,-0.003836,0.014332,-0.000793,0.097164,0.006958,0.995244,0.008671,0.014679,0.007106,-108.691101,217.421951,-141.398529,,,,,,
1465827842.42,3.044385,-0.006814,0.957108,0.004688,0.021757,0.000234,0.097052,0.006814,0.995256,0.006570,-0.007851,-0.002397,-108.691101,217.421951,-141.398529,,,,,,
1465827842.43,3.044356,-0.006999,0.957116,-0.003840,0.011145,-0.000773,0.097081,0.006999,0.995252,0.009486,0.008657,0.015643,-108.691101,217.421951,-141.398529,,,,,,
1465827842.44,3.044387,-0.006942,0.957124,0.011066,0.011137,-0.000758,0.097050,0.006941,0.995255,0.006481,-0.005965,-0.006455,-108.662186,217.412537,-141.435211,,,,,,
1465827842.45,3.044318,-0.006922,0.957128,-0.009164,0.011146,-0.000778,0.097119,0.006922,0.995249,0.008441,0.000784,-0.002069,-108.662186,217.412537,-141.435211,,,,,,
1465827842.46,3.044294,-0.006985,0.957123,0.003607,0.007951,0.000319,0.097143,0.006985,0.995246,0.006113,0.002506,-0.010383,-108.662186,217.412537,-141.435211,,,,,,
1465827842.47,3.044264,-0.006940,0.957125,-0.005973,0.010078,0.000296,0.097173,0.006939,0.995243,0.007243,0.001178,-0.003025,-108.668793,217.423019,-141.414047,,,,,,
1465827842.48,3.044183,-0.007057,0.957120,-0.000653,0.006889,0.000322,0.097253,0.007057,0.995235,0.009299,0.006417,0.000096,-108.668793,217.423019,-141.414047,,,,,,
1465827842.49,3.044061,-0.007092,0.957129,0.000418,0.009014,-0.000755,0.097374,0.007092,0.995223,0.005943,0.006656,0.001756,-108.668793,217.423019,-141.414047,,,,,,
1465827842.50,3.044047,-0.007002,0.957132,-0.004917,0.002642,0.000344,0.097388,0.007002,0.995222,0.003228,-0.004347,-0.008009,-108.708672,217.397232,-141.423050,,,,,,
1465827842.51,3.044020,-0.007030,0.957131,-0.000649,0.009010,0.000308,0.097416,0.007030,0.995219,0.006878,0.003727,0.006597,-108.708672,217.397232,-141.423050,,,,,,
1465827842.52,3.043977,-0.006986,0.957136,-0.005980,0.003703,0.000336,0.097458,0.006986,0.995215,0.005584,-0.000623,-0.001853,-108.708672,217.397232,-141.423050,,,,,,
1465827842.53,3.043929,-0.006955,0.957144,0.000413,0.006885,0.000323,0.097506,0.006955,0.995211,0.005750,-0.001233,-0.000353,-108.713814,217.406357,-141.405075,,,,,,
1465827842.54,3.043977,-0.007012,0.957139,-0.004858,0.009521,0.000295,0.097459,0.007012,0.995215,0.004470,0.005836,0.004129,-108.713814,217.406357,-141.405075,,,,,,
1465827842.55,3.044021,-0.006912,0.957142,-0.001663,0.010581,0.000292,0.097415,0.006912,0.995220,-0.000735,-0.005325,-0.009960,-108.713814,217.406357,-141.405075,,,,,,
1465827842.56,3.044156,-0.007162,0.957140,0.000502,0.036066,-0.000930,0.097280,0.007162,0.995231,0.012842,0.016611,0.026772,-108.713417,217.423187,-141.379471,,,,,,
1465827842.57,3.044010,-0.006872,0.957128,0.001495,-0.012791,0.003635,0.097425,0.006872,0.995219,0.005572,-0.018697,-0.043315,-108.713417,217.423187,-141.379471,,,,,,
1465827842.58,3.044760,-0.007360,0.957133,0.004764,0.054085,0.009605,0.096679,0.007360,0.995288,-0.010207,0.030711,0.060223,-108.713417,217.423187,-141.379471,,,,,,
1465827842.59,3.044043,-0.007114,0.957149,-0.059280,-0.076479,0.008231,0.097392,0.007114,0.995221,-0.010234,-0.008243,-0.087826,-108.710976,217.430664,-141.369843,,,,,,
1465827842.60,3.044520,-0.007094,0.957113,0.031422,0.068966,-0.001106,0.096917,0.007094,0.995267,0.014670,-0.018996,-0.023496,-108.710976,217.430664,-141.369843,,,,,,
1465827842.61,3.045418,-0.006698,0.957165,-0.045216,0.083876,-0.003405,0.096024,0.006698,0.995356,-0.005936,0.034638,0.089559,-108.710976,217.430664,-141.369843,,,,,,
1465827842.62,3.044294,-0.006211,0.957133,0.019508,-0.104077,-0.009612,0.097143,0.006210,0.995251,0.015268,-0.041870,-0.045636,-108.516335,217.453400,-141.484406,,,,,,
1465827842.63,3.044697,-0.005753,0.957166,-0.027109,0.087059,-0.006600,0.096742,0.005753,0.995293,0.007933,0.041305,-0.047859,-108.516335,217.453400,-141.484406,,,,,,
1465827842.64,3.045068,-0.005684,0.957118,-0.027198,0.014859,-0.007211,0.096373,0.005684,0.995329,0.024629,-0.009392,0.027208,-108.516335,217.453400,-141.484406,,,,,,
1465827842.65,3.045052,-0.005483,0.957096,0.002560,-0.017031,0.000469,0.096389,0.005483,0.995329,0.011002,0.013545,0.012621,-108.598595,217.596100,-141.201584,,,,,,
1465827842.66,3.044659,-0.005158,0.957092,-0.028281,0.009534,-0.001857,0.096781,0.005158,0.995292,0.016882,-0.007630,0.018196,-108.598595,217.596100,-141.201584,,,,,,
1465827842.67,3.044876,-0.005124,0.957077,0.000459,0.009508,0.002430,0.096564,0.005124,0.995314,0.011666,0.000430,0.002047,-108.598595,217.596100,-141.201584,,,,,,
1465827842.68,3.044972,-0.005115,0.957102,0.006860,0.012702,-0.001842,0.096469,0.005115,0.995323,0.014767,0.012173,0.032555,-108.540916,217.699463,-141.086548,,,,,,
1465827842.69,3.045205,-0.005180,0.957115,-0.003781,0.024375,0.002332,0.096237,0.005180,0.995345,0.001770,-0.008735,-0.009780,-108.540916,217.699463,-141.086548,,,,,,
1465827842.70,3.045186,-0.005111,0.957112,0.016435,0.012687,0.001362,0.096256,0.005111,0.995343,0.009136,-0.009215,0.000155,-108.503860,217.687485,-141.133560,,,,,,
1465827842.71,3.045352,-0.005007,0.957098,-0.014401,0.014269,0.006638,0.096091,0.005007,0.995360,0.002100,0.009626,-0.025542,-108.503860,217.687485,-141.133560,,,,,,
1465827842.72,3.045453,-0.004941,0.957080,-0.010131,0.019581,0.004480,0.095991,0.004941,0.995370,0.009096,0.002871,0.000403,-108.503860,217.687485,-141.133560,,,,,,
1465827842.73,3.045734,-0.004948,0.957088,0.012235,0.021700,0.002360,0.095711,0.004948,0.995397,0.008644,0.009930,0.043849,-108.475739,217.715103,-141.112564,,,,,,
1465827842.74,3.045640,-0.004947,0.957125,0.006899,0.003666,-0.002854,0.095804,0.004946,0.995388,0.006842,-0.006442,0.007847,-108.475739,217.715103,-141.112564,,,,,,
1465827842.75,3.045815,-0.005141,0.957147,0.022884,0.016396,-0.001854,0.095630,0.005141,0.995404,0.004361,0.006028,-0.004025,-108.475739,217.715103,-141.112564,,,,,,
1465827842.76,3.045926,-0.005181,0.957172,0.001584,0.014280,-0.000797,0.095519,0.005181,0.995414,0.005570,0.003410,-0.013679,-108.423859,217.690308,-141.190659,,,,,,
1465827842.77,3.045995,-0.005255,0.957167,0.005829,0.002598,-0.000720,0.095451,0.005255,0.995420,0.009224,-0.001837,-0.006346,-108.423859,217.690308,-141.190659,,,,,,
1465827842.78,3.045800,-0.005379,0.957167,0.004767,0.002601,-0.001786,0.095645,0.005379,0.995401,0.010327,0.005561,0.005789,-108.423859,217.690308,-141.190659,,,,,,
1465827842.79,3.045831,-0.005442,0.957158,0.002641,0.005787,-0.001808,0.095614,0.005442,0.995404,0.010572,0.000402,-0.002987,-108.405319,217.671188,-141.234375,,,,,,
1465827842.80,3.045884,-0.005507,0.957159,0.009031,0.004725,-0.002859,0.095561,0.005507,0.995408,0.011387,0.009249,-0.001268,-108.405319,217.671188,-141.234375,,,,,,
1465827842.81,3.045794,-0.005471,0.957165,0.003714,0.008977,-0.003955,0.095650,0.005471,0.995400,0.007667,-0.004769,-0.008614,-108.405319,217.671188,-141.234375,,,,,,
1465827842.82,3.045779,-0.005663,0.957169,0.010104,0.013214,-0.001847,0.095665,0.005663,0.995397,0.007209,0.005263,0.000620,-108.437492,217.638840,-141.259537,,,,,,
1465827842.83,3.045765,-0.005700,0.957158,0.000511,0.010024,0.001357,0.095679,0.005700,0.995396,0.004983,0.000770,-0.005726,-108.437492,217.638840,-141.259537,,,,,,
1465827842.84,3.050735,-0.005847,0.957798,0.004830,0.723870,-0.118076,0.090731,0.005847,0.995858,0.060880,0.031171,0.125144,-108.437492,217.638840,-141.259537,,,,,,
1465827842.85,3.045989,-0.005783,0.957449,0.010462,-0.759419,-0.127928,0.095456,0.005783,0.995417,0.193378,0.190857,-0.176645,-108.445038,217.604889,-141.306030,,,,,,
1465827842.86,3.051927,-0.005496,0.958204,-0.125124,1.265905,-0.285530,0.089545,0.005496,0.995968,0.373163,-0.262439,-0.076946,-108.445038,217.604889,-141.306030,,,,,,
1465827842.87,3.055542,-0.006918,0.956720,0.351055,-1.118964,0.265315,0.085942,0.006918,0.996276,-0.514501,0.158777,0.033753,-108.445038,217.604889,-141.306030,,,,,,
1465827842.88,3.025546,-0.005952,0.956561,-0.178975,-2.787619,0.190096,0.115785,0.005952,0.993257,-0.315110,-0.135210,0.046630,-106.985779,217.462097,-142.631973,,,,,,
1465827842.89,2.993478,-0.007410,0.955995,0.157472,-3.768676,0.117815,0.147570,0.007410,0.989024,-0.501375,0.067130,0.032308,-106.985779,217.462097,-142.631973,,,,,,
1465827842.90,2.923038,-0.005848,0.954540,-0.172468,-7.858670,0.177199,0.216815,0.005848,0.976195,-0.380893,-0.024754,-0.176650,-106.985779,217.462097,-142.631973,,,,,,
1465827842.91,2.849751,-0.004617,0.952808,-0.090262,-6.856328,0.156092,0.287713,0.004617,0.957705,-0.169458,0.025657,0.383695,-115.485550,217.455994,-135.851318,,,,,,
1465827842.93,2.740419,-0.001500,0.950412,-0.088095,-5.111816,0.155798,0.390498,0.001500,0.920602,-0.235500,0.006312,0.282431,-115.485550,217.455994,-135.851318,,,,,,
1465827842.92,2.792729,-0.002785,0.951587,-0.113061,-5.519489,0.141299,0.341829,0.002785,0.939758,-0.189271,0.039359,0.420334,-115.485550,217.455994,-135.851318,,,,,,
1465827842.94,2.696587,-0.000186,0.949594,-0.056901,-4.040420,0.129950,0.430463,0.000186,0.902608,-0.322767,0.057095,0.375895,-144.192871,218.869263,-101.903206,,,,,,
1465827842.95,2.666971,0.000590,0.948979,-0.052887,-2.590970,0.087865,0.457002,-0.000590,0.889466,-0.325151,0.003413,0.106994,-144.192871,218.869263,-101.903206,,,,,,
1465827842.96,2.653939,0.001173,0.948533,-0.016567,-0.842122,0.049258,0.468554,-0.001173,0.883434,-0.357668,0.024656,0.063648,-144.192871,218.869263,-101.903206,,,,,,
1465827842.97,2.660332,0.001399,0.948284,-0.010827,1.145643,0.010186,0.462897,-0.001399,0.886411,-0.354987,-0.005712,0.014987,-150.793274,219.315613,-90.783600,,,,,,
1465827842.98,2.687243,0.000841,0.948277,0.067357,3.141911,-0.044834,0.438878,-0.000841,0.898546,-0.188954,0.012666,0.000593,-150.793274,219.315613,-90.783600,,,,,,
1465827842.99,2.728238,-0.000436,0.948514,0.107291,4.374723,-0.081266,0.401684,0.000436,0.915778,-0.139263,-0.038461,0.070550,-150.793274,219.315613,-90.783600,,,,,,
1465827843.00,2.778473,-0.002111,0.948989,0.158396,5.191277,-0.105496,0.355191,0.002111,0.934791,-0.093030,0.019847,0.192757,-144.948914,219.204895,-100.093124,,,,,,
1465827843.01,2.829649,-0.003671,0.949537,0.114500,5.008651,-0.098008,0.306907,0.003671,0.951732,-0.065665,0.000068,0.189732,-144.948914,219.204895,-100.093124,,,,,,
1465827843.02,2.876179,-0.005149,0.949985,0.124561,4.564772,-0.080312,0.262305,0.005149,0.964971,-0.098182,-0.001548,0.206431,-144.948914,219.204895,-100.093124,,,,,,
1465827843.03,2.921812,-0.006254,0.950485,0.102244,4.601940,-0.078438,0.218011,0.006254,0.975926,-0.084909,0.022768,0.215175,-134.501556,218.624252,-114.858025,,,,,,
1465827843.04,2.969814,-0.007461,0.951002,0.090857,4.864205,-0.077966,0.170930,0.007461,0.985255,0.051039,-0.016723,0.104986,-134.501556,218.624252,-114.858025,,,,,,
1465827843.05,3.019135,-0.008565,0.951632,0.111184,4.941706,-0.078431,0.122148,0.008565,0.992475,0.165908,0.014704,0.048754,-134.501556,218.624252,-114.858025,,,,,,
1465827843.06,3.070794,-0.009503,0.952396,0.079667,5.271957,-0.085856,0.070737,0.009503,0.997450,0.181171,-0.000714,0.069979,-111.046074,217.689713,-139.138641,,,,,,
1465827843.07,3.125110,-0.010581,0.953271,0.103302,5.433352,-0.091103,0.016481,0.010580,0.999808,0.202086,-0.003805,0.096643,-111.046074,217.689713,-139.138641,,,,,,
1465827843.08,-3.104847,-0.011438,0.954195,0.090319,5.268779,-0.090084,-0.036735,0.011438,0.999260,0.201759,0.003516,0.116936,-111.046074,217.689713,-139.138641,,,,,,
1465827843.09,-3.055170,-0.012174,0.955059,0.068481,4.847233,-0.080010,-0.086308,0.012173,0.996194,0.182897,-0.004513,0.069800,-96.071419,217.230560,-150.534958,,,,,,
1465827843.10,-3.010396,-0.012805,0.955840,0.071012,4.332234,-0.068262,-0.130810,0.012804,0.991325,0.232708,-0.004030,0.059197,-96.071419,217.230560,-150.534958,,,,,,
1465827843.11,-2.971697,-0.013301,0.956518,0.057457,3.724866,-0.055951,-0.169065,0.013301,0.985515,0.269269,0.002446,0.023762,-96.071419,217.230560,-150.534958,,,,,,
1465827843.12,-2.938299,-0.013801,0.957113,0.054669,3.209875,-0.046337,-0.201877,0.013801,0.979314,0.303837,-0.009116,0.012309,-67.113922,216.510971,-166.428131,,,,,,
1465827843.13,-2.910318,-0.014170,0.957611,0.049696,2.649231,-0.037504,-0.229196,0.014169,0.973277,0.311959,-0.001749,-0.030238,-67.113922,216.510971,-166.428131,,,,,,
1465827843.14,-2.888802,-0.014459,0.957954,0.033920,1.970720,-0.023684,-0.250081,0.014458,0.968117,0.287618,-0.006569,-0.041756,-67.113922,216.510971,-166.428131,,,,,,
1465827843.15,-2.876109,-0.014704,0.958070,0.019896,1.008678,0.002560,-0.262348,0.014703,0.964861,0.252811,-0.006418,-0.080126,-56.968399,216.275116,-170.467834,,,,,,
1465827843.16,-2.874291,-0.014788,0.957869,-0.000683,-0.088207,0.028579,-0.264101,0.014788,0.964382,0.220796,-0.007952,-0.113948,-56.968399,216.275116,-170.467834,,,,,,
1465827843.17,-2.882339,-0.014802,0.957409,-0.014665,-1.025813,0.049347,-0.256331,0.014802,0.966476,0.210296,-0.003708,-0.073913,-56.968399,216.275116,-170.467834,,,,,,
1465827843.18,-2.898466,-0.014726,0.956765,-0.026298,-1.794582,0.064802,-0.240713,0.014725,0.970485,0.207372,0.000457,-0.048137,-52.099533,216.197449,-172.115982,,,,,,
1465827843.19,-2.920983,-0.014555,0.955969,-0.034511,-2.389208,0.075974,-0.218802,0.014555,0.975661,0.197729,0.000292,-0.014357,-52.099533,216.197449,-172.115982,,,,,,
1465827843.20,-2.948546,-0.014384,0.955084,-0.035113,-2.857483,0.086361,-0.191830,0.014383,0.981323,0.145840,-0.002130,0.009171,-52.099533,216.197449,-172.115982,,,,,,
1465827843.21,-2.979636,-0.014167,0.954136,-0.039819,-3.206826,0.092805,-0.161234,0.014166,0.986815,0.129801,0.002832,0.048296,-58.414516,216.370972,-169.855698,,,,,,
1465827843.22,-3.015713,-0.013833,0.953071,-0.052221,-3.747295,0.102569,-0.125535,0.013833,0.991993,0.099733,0.002067,0.068890,-58.414516,216.370972,-169.855698,,,,,,
1465827843.23,-3.058292,-0.013412,0.951866,-0.055241,-4.435380,0.120719,-0.083197,0.013411,0.996443,0.085501,0.005266,0.115847,-58.414516,216.370972,-169.855698,,,,,,
1465827843.24,-3.108700,-0.012775,0.950497,-0.075419,-5.222200,0.138407,-0.032884,0.012775,0.999378,0.032961,0.004162,0.170285,-80.239929,216.930283,-159.945023,,,,,,
1465827843.25,3.120397,-0.012011,0.949038,-0.078906,-5.447316,0.145138,0.021192,0.012011,0.999703,-0.038038,0.005475,0.304542,-80.239929,216.930283,-159.945023,,,,,,
1465827843.26,3.063533,-0.011188,0.947584,-0.072882,-5.729774,0.152238,0.077975,0.011188,0.996893,-0.125994,0.029721,0.338679,-80.239929,216.930283,-159.945023,,,,,,
1465827843.27,3.009263,-0.010255,0.946203,-0.074444,-5.285924,0.144130,0.131937,0.010254,0.991205,-0.238459,0.004684,0.455191,-80.239929,216.930283,-159.945023,,,,,,
1465827843.29,2.909134,-0.008574,0.943766,-0.056700,-4.735892,0.131118,0.230362,0.008574,0.973067,-0.219635,0.005937,0.402482,-111.283569,217.936020,-138.562134,,,,,,
1465827843.28,2.957926,-0.009484,0.944935,-0.058249,-5.119208,0.135650,0.182628,0.009484,0.983136,-0.189128,0.031745,0.450579,-111.283569,217.936020,-138.562134,,,,,,
1465827843.30,2.866914,-0.007976,0.942737,-0.029212,-4.066930,0.112048,0.271229,0.007976,0.962482,-0.230137,0.029423,0.473157,-111.283569,217.936020,-138.562134,,,,,,
1465827843.31,2.831248,-0.007453,0.941862,-0.019793,-3.371413,0.092793,0.305378,0.007453,0.952202,-0.273274,0.009789,0.415459,-123.972397,218.414734,-126.512642,,,,,,
1465827843.32,2.803894,-0.007268,0.941105,0.011110,-2.524071,0.073672,0.331308,0.007268,0.943495,-0.277628,0.018412,0.457766,-123.972397,218.414734,-126.512642,,,,,,
1465827843.33,2.784278,-0.007205,0.940505,0.020602,-1.773337,0.053006,0.349751,0.007205,0.936815,-0.271092,0.018445,0.446470,-123.972397,218.414734,-126.512642,,,,,,
1465827843.34,2.773669,-0.007372,0.939979,0.034616,-0.801768,0.037347,0.359669,0.007372,0.933051,-0.283711,0.006544,0.420495,-137.986755,218.919327,-110.061760,,,,,,
1465827843.35,2.773124,-0.007819,0.939616,0.061441,0.181501,0.012047,0.360177,0.007819,0.932851,-0.244210,0.026010,0.409480,-137.986755,218.919327,-110.061760,,,,,,
1465827843.36,2.782063,-0.008512,0.939384,0.077584,1.143527,-0.008873,0.351821,0.008512,0.936029,-0.228408,0.006472,0.366645,-137.986755,218.919327,-110.061760,,,,,,
1465827843.37,2.801358,-0.009488,0.939299,0.097111,2.203630,-0.030410,0.333693,0.009488,0.942634,-0.224898,0.019717,0.404565,-139.071869,218.907028,-108.712173,,,,,,
1465827843.38,2.831779,-0.010748,0.939380,0.126213,3.306878,-0.055396,0.304863,0.010748,0.952335,-0.174492,0.006296,0.397320,-139.071869,218.907028,-108.712173,,,,,,
1465827843.39,2.871665,-0.012243,0.939628,0.133755,4.209436,-0.071693,0.266642,0.012243,0.963718,-0.110468,0.009272,0.379239,-139.071869,218.907028,-108.712173,,,,,,
1465827843.40,2.920821,-0.013934,0.940094,0.162634,5.140661,-0.091343,0.218962,0.013934,0.975634,-0.029722,0.004163,0.338880,-127.962204,218.233582,-122.798149,,,,,,
1465827843.41,2.978052,-0.015759,0.940776,0.164675,5.904123,-0.105709,0.162793,0.015758,0.986534,0.035266,0.001851,0.332252,-127.962204,218.233582,-122.798149,,,,,,
1465827843.42,3.041835,-0.017740,0.941647,0.188871,6.509356,-0.115867,0.099577,0.017739,0.994872,0.113497,0.007438,0.388872,-127.962204,218.233582,-122.798149,,,,,,
1465827843.43,3.109813,-0.019616,0.942725,0.185078,6.877810,-0.120311,0.031768,0.019615,0.999303,0.216553,0.000893,0.375239,-114.572983,217.592072,-136.404999,,,,,,
1465827843.44,-3.103046,-0.021550,0.943981,0.192767,7.054085,-0.128860,-0.038528,0.021548,0.999025,0.304397,0.004392,0.466414,-114.572983,217.592072,-136.404999,,,,,,
1465827843.45,-3.033131,-0.023265,0.945292,0.167051,6.916078,-0.133342,-0.108220,0.023262,0.993855,0.349156,0.013343,0.599392,-114.572983,217.592072,-136.404999,,,,,,
1465827843.46,-2.962360,-0.025141,0.946774,0.225780,7.100715,-0.102508,-0.178218,0.025138,0.983670,0.414989,0.025429,0.465915,-74.525444,216.023376,-163.888596,,,,,,
1465827843.47,-2.893039,-0.026587,0.948365,0.195738,6.889480,-0.119309,-0.245916,0.026584,0.968927,0.461889,-0.004413,0.440558,-74.525444,216.023376,-163.888596,,,,,,
1465827843.48,-2.827064,-0.028123,0.949821,0.147312,6.520989,-0.091499,-0.309246,0.028119,0.950566,0.489544,-0.063672,0.530055,-74.525444,216.023376,-163.888596,,,,,,
1465827843.49,-2.764453,-0.029839,0.951513,0.248950,6.092976,-0.068489,-0.368099,0.029835,0.929308,0.572734,0.109493,0.705320,-51.389809,215.224548,-173.542786,,,,,,
1465827843.50,-2.707599,-0.030936,0.952920,0.172715,5.597128,-0.056940,-0.420297,0.030931,0.906859,0.600381,-0.003114,0.389390,-51.389809,215.224548,-173.542786,,,,,,
1465827843.51,-2.654438,-0.032231,0.954511,0.180821,5.212848,-0.089648,-0.467870,0.032225,0.883209,0.642599,-0.010558,0.434463,-51.389809,215.224548,-173.542786,,,,,,
1465827843.52,-2.606802,-0.033415,0.955834,0.150165,4.587380,-0.055952,-0.509377,0.033409,0.859895,0.631844,-0.042122,0.450545,-9.548920,213.770737,-182.456848,,,,,,
1465827843.53,-2.564023,-0.034600,0.957291,0.197572,4.172212,-0.060752,-0.545662,0.034593,0.837291,0.647667,0.038146,0.426396,-9.548920,213.770737,-182.456848,,,,,,
1465827843.54,-2.525040,-0.035513,0.958452,0.126835,3.813337,-0.051120,-0.577861,0.035505,0.815362,0.624279,-0.082991,0.308860,-9.548920,213.770737,-182.456848,,,,,,
1465827843.56,-2.457421,-0.037507,0.961015,0.151518,3.131627,-0.039369,-0.631586,0.037499,0.774398,0.621882,-0.029503,0.331605,6.726631,213.137207,-183.321808,,,,,,
1465827843.55,-2.489588,-0.036669,0.959869,0.167880,3.441668,-0.042362,-0.606373,0.036661,0.794335,0.635212,0.042319,0.408195,6.726631,213.137207,-183.321808,,,,,,
1465827843.57,-2.428595,-0.038419,0.962274,0.137256,2.802463,-0.033061,-0.653622,0.038410,0.755846,0.649136,0.020871,0.317121,6.726631,213.137207,-183.321808,,,,,,
1465827843.58,-2.403016,-0.039165,0.963409,0.138996,2.478636,-0.039544,-0.672720,0.039155,0.738860,0.655233,-0.034501,0.285004,6.726631,213.137207,-183.321808,,,,,,
1465827843.59,-2.380425,-0.039942,0.964580,0.119425,2.165396,-0.031213,-0.689218,0.039931,0.723453,0.680489,0.003206,0.260143,31.113663,212.062073,-182.047333,,,,,,
1465827843.60,-2.360025,-0.040639,0.965759,0.147987,2.010370,-0.034470,-0.703811,0.040628,0.709224,0.658493,0.000006,0.143925,31.113663,212.062073,-182.047333,,,,,,
1465827843.61,-2.339836,-0.041179,0.966835,0.113957,2.034823,-0.039979,-0.717970,0.041167,0.694856,0.619306,-0.038863,0.026275,39.696026,211.600403,-180.911865,,,,,,
1465827843.62,-2.319344,-0.041675,0.968025,0.102283,2.047600,-0.050715,-0.732042,0.041662,0.679984,0.595293,-0.004553,-0.054511,39.696026,211.600403,-180.911865,,,,,,
1465827843.63,-2.298296,-0.042079,0.969150,0.112993,2.108100,-0.044697,-0.746178,0.042066,0.664416,0.591423,-0.040281,-0.385089,39.696026,211.600403,-180.911865,,,,,,
1465827843.64,-2.276756,-0.042515,0.970369,0.124754,2.138901,-0.050201,-0.760302,0.042502,0.648178,0.577440,-0.051993,-0.552429,54.066029,210.820709,-178.076111,,,,,,
1465827843.65,-2.258419,-0.042889,0.971429,0.100754,1.701412,-0.033643,-0.772047,0.042876,0.634118,0.590024,-0.028716,-0.496316,54.066029,210.820709,-178.076111,,,,,,
1465827843.66,-2.245364,-0.043254,0.972391,0.091566,1.168388,-0.029245,-0.780247,0.043240,0.623975,0.595997,-0.028149,-0.504972,54.066029,210.820709,-178.076111,,,,,,
1465827843.67,-2.237549,-0.043589,0.973118,0.079175,0.642776,-0.016381,-0.785088,0.043575,0.617850,0.570183,-0.042019,-0.537573,60.932953,210.470383,-176.263992,,,,,,
1465827843.68,-2.236605,-0.043908,0.973717,0.056918,-0.119596,-0.008429,-0.785659,0.043894,0.617100,0.578140,-0.016871,-0.519765,60.932953,210.470383,-176.263992,,,,,,
1465827843.69,-2.243626,-0.044217,0.973979,0.037838,-0.880935,0.009100,-0.781297,0.044202,0.622593,0.533601,-0.046613,-0.611118,60.932953,210.470383,-176.263992,,,,,,
1465827843.70,-2.258115,-0.044691,0.974093,0.038939,-1.643410,0.050075,-0.772179,0.044676,0.633833,0.531898,-0.012220,-0.584913,63.398556,210.009979,-175.943298,,,,,,
1465827843.71,-2.282994,-0.044805,0.973857,-0.006088,-2.751886,0.048466,-0.756168,0.044790,0.652843,0.527286,0.001490,-0.477351,63.398556,210.009979,-175.943298,,,,,,
1465827843.72,-2.317720,-0.045114,0.973347,-0.047705,-3.716971,0.027866,-0.733036,0.045099,0.678694,0.462238,-0.159082,-0.685789,63.398556,210.009979,-175.943298,,,,,,
1465827843.73,-2.362375,-0.045524,0.972538,-0.038426,-4.719470,0.089514,-0.701995,0.045509,0.710726,0.448440,0.003243,-0.686633,63.398556,210.009979,-175.943298,,,,,,
1465827843.74,-2.418033,-0.045646,0.971366,-0.062226,-5.854549,0.105125,-0.661367,0.045631,0.748673,0.406774,-0.015784,-0.654053,42.527836,209.942581,-182.195221,,,,,,
1465827843.75,-2.485487,-0.045761,0.969805,-0.102100,-7.061840,0.127559,-0.609397,0.045745,0.791545,0.359168,-0.061431,-0.715830,42.527836,209.942581,-182.195221,,,,,,
1465827843.76,-2.566286,-0.045758,0.967784,-0.094080,-8.286140,0.149083,-0.543522,0.045742,0.838147,0.281483,-0.101437,-0.832273,20.339928,210.170975,-185.725769,,,,,,
1465827843.77,-2.642093,-0.046318,0.966266,-0.035967,-7.097749,0.045887,-0.478473,0.046302,0.876881,0.398837,-0.129080,0.094021,20.339928,210.170975,-185.725769,,,,,,
1465827843.78,-2.713296,-0.045832,0.964484,-0.124703,-7.176641,0.178285,-0.414886,0.045816,0.908719,0.775848,0.327155,2.696551,20.339928,210.170975,-185.725769,,,,,,
1465827843.79,-2.785801,-0.044999,0.963437,-0.143843,-7.305913,0.085406,-0.347980,0.044984,0.936422,0.491245,-0.023927,0.806422,-8.136696,210.424255,-186.373383,,,,,,
1465827843.80,-2.864369,-0.044556,0.961962,-0.056625,-8.177782,0.121830,-0.273415,0.044541,0.960864,0.127098,-0.059541,-0.673953,-8.136696,210.424255,-186.373383,,,,,,
1465827843.81,-2.958108,-0.043204,0.960084,-0.167142,-9.646300,0.167121,-0.182287,0.043191,0.982296,0.020482,0.024924,-0.490170,-8.136696,210.424255,-186.373383,,,,,,
1465827843.82,-3.060817,-0.041911,0.958018,-0.193768,-10.452280,0.203018,-0.080617,0.041899,0.995864,-0.028026,-0.038511,-0.221710,-64.445839,211.511826,-173.750061,,,,,,
1465827843.83,3.119334,-0.040317,0.956113,-0.158092,-10.079506,0.164524,0.022239,0.040306,0.998940,0.029626,-0.008690,0.207405,-64.445839,211.511826,-173.750061,,,,,,
1465827843.84,3.030786,-0.038525,0.954899,-0.157086,-8.476102,0.124665,0.110498,0.038515,0.993130,0.208792,0.049681,0.877872,-64.445839,211.511826,-173.750061,,,,,,
1465827843.86,2.859064,-0.034954,0.952909,-0.162932,-8.860527,0.147294,0.278615,0.034947,0.959767,-0.229253,0.020335,0.229167,-97.702652,212.345657,-156.342941,,,,,,
1465827843.85,2.946986,-0.036804,0.953937,-0.165605,-8.468679,0.129932,0.193250,0.036795,0.980459,-0.197248,-0.006598,0.078867,-97.702652,212.345657,-156.342941,,,,,,
1465827843.87,2.771892,-0.032875,0.952020,-0.158323,-8.583396,0.144497,0.361141,0.032869,0.931932,-0.160961,-0.011644,0.390364,-97.702652,212.345657,-156.342941,,,,,,
1465827843.88,2.693981,-0.030885,0.951542,-0.160078,-7.466326,0.118329,0.432608,0.030880,0.901053,-0.252188,0.025547,0.368524,-97.702652,212.345657,-156.342941,,,,,,
1465827843.89,2.626611,-0.029235,0.951247,-0.134427,-6.556345,0.102003,0.492308,0.029231,0.869930,-0.380980,0.016545,0.262532,-143.695557,213.902679,-112.591461,,,,,,
1465827843.90,2.564786,-0.027596,0.951139,-0.130615,-6.074270,0.092597,0.545143,0.027592,0.837889,-0.415122,0.025554,0.249742,-143.695557,213.902679,-112.591461,,,,,,
1465827843.91,2.508947,-0.026034,0.951117,-0.123338,-5.375590,0.081835,0.591080,0.026031,0.806193,-0.467850,0.007050,0.305776,-157.951416,214.544434,-90.009140,,,,,,
1465827843.92,2.462957,-0.024731,0.951195,-0.103930,-4.343510,0.068995,0.627540,0.024729,0.778192,-0.475440,0.015066,0.239798,-157.951416,214.544434,-90.009140,,,,,,
1465827843.93,2.426760,-0.023703,0.951340,-0.085678,-3.383631,0.056607,0.655307,0.023701,0.754991,-0.523609,0.014293,0.217940,-157.951416,214.544434,-90.009140,,,,,,
1465827843.94,2.400478,-0.022961,0.951549,-0.059883,-2.375935,0.029023,0.674933,0.022959,0.737522,-0.526083,0.015432,0.232922,-171.912247,215.396179,-55.948868,,,,,,
1465827843.95,2.383941,-0.022426,0.951785,-0.052245,-1.394806,0.013298,0.687045,0.022424,0.726269,-0.547442,0.007086,0.216342,-171.912247,215.396179,-55.948868,,,,,,
1465827843.96,2.378396,-0.022228,0.952010,-0.027404,-0.285199,-0.006410,0.691064,0.022226,0.722452,-0.534250,0.021139,0.183844,-171.912247,215.396179,-55.948868,,,,,,
1465827843.97,2.383345,-0.022292,0.952267,-0.004779,0.750091,-0.028847,0.687480,0.022290,0.725861,-0.514628,0.014133,0.195327,-174.030563,215.552414,-48.271339,,,,,,
1465827843.98,2.398462,-0.022622,0.952528,0.011424,1.765199,-0.046906,0.676423,0.022620,0.736166,-0.479417,0.015527,0.192957,-174.030563,215.552414,-48.271339,,,,,,
1465827843.99,2.422841,-0.023233,0.952795,0.029589,2.648639,-0.063073,0.658268,0.023231,0.752425,-0.457218,0.016579,0.184144,-174.030563,215.552414,-48.271339,,,,,,
1465827844.00,2.455926,-0.024035,0.953123,0.046695,3.533148,-0.081377,0.633007,0.024033,0.773773,-0.413234,0.008133,0.200684,-172.301071,215.333252,-54.986656,,,,,,
1465827844.01,2.498023,-0.025108,0.953505,0.063816,4.428277,-0.100812,0.599866,0.025105,0.799707,-0.361432,0.009883,0.191336,-172.301071,215.333252,-54.986656,,,,,,
1465827844.02,2.548763,-0.026382,0.953997,0.080887,5.283059,-0.119993,0.558516,0.026379,0.829075,-0.302259,0.004581,0.208020,-172.301071,215.333252,-54.986656,,,,,,
,,,,,,,,,,,,,,,,29.719977,-95.399048,10.273282,-1.000000,-1.000000,1465828920.85
1465827844.03,2.607861,-0.027870,0.954624,0.096856,6.112351,-0.136887,0.508552,0.027866,0.860580,-0.242317,0.003674,0.221665,-168.049683,214.976196,-68.001076,,,,,,
1465827844.04,2.674250,-0.029566,0.955403,0.113679,6.775996,-0.150613,0.450319,0.029561,0.892378,-0.196397,0.013682,0.284593,-168.049683,214.976196,-68.001076,,,,,,
1465827844.05,2.742188,-0.031277,0.956279,0.118962,6.747319,-0.148299,0.388680,0.031271,0.920842,-0.205788,0.007654,0.299648,-168.049683,214.976196,-68.001076,,,,,,
1465827844.06,2.808186,-0.032862,0.957215,0.113373,6.542381,-0.142761,0.327088,0.032856,0.944423,-0.131470,0.000469,0.257161,-147.696442,213.754105,-107.585075,,,,,,
1465827844.07,2.871238,-0.034326,0.958150,0.108669,6.200460,-0.132106,0.266916,0.034319,0.963108,-0.078195,0.014891,0.201366,-147.696442,213.754105,-107.585075,,,,,,
1465827844.08,2.929969,-0.035632,0.959108,0.102785,5.764044,-0.122988,0.209914,0.035624,0.977071,-0.065001,0.011617,0.162410,-147.696442,213.754105,-107.585075,,,,,,
1465827844.09,2.984598,-0.036769,0.960021,0.092657,5.349911,-0.107627,0.156244,0.036761,0.987034,-0.027094,0.008603,0.104259,-133.189041,213.099182,-126.210228,,,,,,
1465827844.10,3.035354,-0.037818,0.960795,0.093308,5.036649,-0.095018,0.105963,0.037809,0.993651,0.094461,0.006518,0.090303,-133.189041,213.099182,-126.210228,,,,,,
1465827844.11,3.090762,-0.038864,0.961961,0.105889,5.690781,-0.123590,0.050770,0.038854,0.997954,0.169307,-0.000143,0.190751,-133.189041,213.099182,-126.210228,,,,,,
1465827844.12,-3.140747,-0.039854,0.962878,0.081381,4.880544,-0.084471,-0.000845,0.039844,0.999206,0.139761,0.005414,-0.041305,-103.387283,212.021561,-153.093216,,,,,,
1465827844.13,-3.093445,-0.040614,0.963915,0.086666,4.810530,-0.108508,-0.048089,0.040603,0.998017,0.251001,0.001847,0.149688,-103.387283,212.021561,-153.093216,,,,,,
1465827844.14,-3.045670,-0.041407,0.964968,0.083214,4.626801,-0.093522,-0.095694,0.041395,0.994550,0.191763,-0.005491,-0.006040,-103.387283,212.021561,-153.093216,,,,,,
1465827844.15,-3.007483,-0.042010,0.965748,0.071413,3.696684,-0.094087,-0.133590,0.041997,0.990146,0.283614,0.016093,0.038372,-88.160919,211.557617,-162.943665,,,,,,
1465827844.16,-2.969068,-0.042478,0.966674,0.057735,3.838952,-0.087542,-0.171515,0.042465,0.984266,0.294836,0.003998,0.033282,-88.160919,211.557617,-162.943665,,,,,,
1465827844.17,-2.938969,-0.043000,0.967352,0.058411,2.701722,-0.066571,-0.201054,0.042987,0.978637,0.341023,0.006329,-0.118926,-88.160919,211.557617,-162.943665,,,,,,
1465827844.19,-2.898551,-0.043547,0.968314,0.035673,1.587838,-0.036190,-0.240427,0.043533,0.969690,0.319346,-0.009063,-0.104700,-62.674469,210.848190,-175.198624,,,,,,
1465827844.18,-2.916336,-0.043249,0.967902,0.035385,2.177191,-0.059046,-0.223148,0.043235,0.973825,0.344318,0.006631,-0.025278,-62.674469,210.848190,-175.198624,,,,,,
1465827844.20,-2.888691,-0.043700,0.968567,0.018733,0.822275,-0.027148,-0.249975,0.043686,0.967266,0.365164,0.003159,-0.064999,-62.674469,210.848190,-175.198624,,,,,,
1465827844.21,-2.885320,-0.043845,0.968474,0.009281,0.161691,0.030208,-0.253233,0.043831,0.966412,0.337828,-0.028572,-0.125469,-55.720341,210.668304,-177.746216,,,,,,
1465827844.22,-2.880930,-0.044201,0.968609,0.029048,0.616177,0.011411,-0.257470,0.044187,0.965276,0.496987,-0.018018,0.321788,-55.720341,210.668304,-177.746216,,,,,,
1465827844.23,-2.864457,-0.044524,0.969229,0.107710,2.127230,-0.051210,-0.273330,0.044509,0.960890,0.724761,-0.022979,0.796312,-55.720341,210.668304,-177.746216,,,,,,
1465827844.24,-2.839638,-0.044462,0.970176,-0.053959,2.243083,-0.064871,-0.297093,0.044447,0.953813,0.344792,0.063097,-0.339617,-49.765087,210.424103,-179.790833,,,,,,
1465827844.25,-2.831943,-0.044978,0.970805,0.087245,0.255258,-0.030974,-0.304417,0.044963,0.951477,0.222203,-0.044276,-0.306290,-49.765087,210.424103,-179.790833,,,,,,
1465827844.26,-2.845180,-0.044277,0.970478,-0.061340,-1.853508,0.018294,-0.291805,0.044263,0.955453,0.063274,0.044543,-0.719507,-49.765087,210.424103,-179.790833,,,,,,
1465827844.27,-2.882031,-0.044199,0.969613,-0.086884,-4.292630,0.096368,-0.256406,0.044184,0.965559,0.035978,-0.046458,-0.530866,-44.193134,210.198578,-181.502441,,,,,,
1465827844.28,-2.934357,-0.043492,0.968116,-0.079653,-5.300317,0.114404,-0.205561,0.043478,0.977678,0.274775,0.058740,-0.032121,-44.193134,210.198578,-181.502441,,,,,,
1465827844.29,-2.981930,-0.042745,0.967168,-0.097947,-4.649346,0.082628,-0.158840,0.042732,0.986379,0.258815,-0.036888,0.297495,-44.193134,210.198578,-181.502441,,,,,,
1465827844.30,-3.035378,-0.041884,0.965938,-0.103499,-5.626296,0.122812,-0.105922,0.041872,0.993492,0.104457,0.032011,-0.142281,-70.110031,210.906464,-172.286530,,,,,,
