timestamp,attitude_roll,attitude_pitch,attitude_yaw,rotation_rate_x,rotation_rate_y,rotation_rate_z,gravity_x,gravity_y,gravity_z,user_acc_x,user_acc_y,user_acc_z,magnetic_field_x,magnetic_field_y,magnetic_field_z,latitude(degree),longitude(degree),altitude(meter),speed(m/s),course(degree),timestamp
1465846141.20,0.596086,-0.100767,-1.451287,0.006367,-0.037437,0.000268,0.558560,0.100596,-0.823341,-0.598447,-0.094035,-0.173866,-17.300158,-2.186429,25.660622,,,,,,
1465846141.21,0.585282,-0.099398,-1.452317,0.007393,-0.070436,0.004733,0.549708,0.099235,-0.829442,-0.605280,-0.097205,-0.167430,-17.300158,-2.186429,25.660622,,,,,,
1465846141.22,0.574360,-0.097869,-1.453346,0.018015,-0.103419,0.002820,0.540698,0.097713,-0.835523,-0.591388,-0.100230,-0.167071,-16.230015,-2.040190,26.362238,,,,,,
1465846141.23,0.563425,-0.096215,-1.454406,0.019060,-0.142750,-0.005450,0.531615,0.096067,-0.841521,-0.570631,-0.103559,-0.173265,-16.230015,-2.040190,26.362238,,,,,,
1465846141.24,0.552157,-0.094631,-1.455476,0.016869,-0.214992,-0.013516,0.522178,0.094490,-0.847586,-0.556938,-0.102531,-0.171946,-16.230015,-2.040190,26.362238,,,,,,
1465846141.25,0.540402,-0.093200,-1.456528,0.013621,-0.267083,-0.013194,0.512248,0.093065,-0.853780,-0.550578,-0.096620,-0.160258,-15.655304,-1.939550,26.715034,,,,,,
,,,,,,,,,,,,,,,,29.719938,-95.399100,9.709961,-1.000000,-1.000000,1465846042.48
,,,,,,,,,,,,,,,,29.720040,-95.398867,12.000000,-1.000000,-1.000000,1465846172.82
1465846141.26,0.528329,-0.091885,-1.457590,0.016796,-0.293687,-0.015154,0.501964,0.091756,-0.860008,-0.550670,-0.090993,-0.145699,-15.655304,-1.939550,26.715034,,,,,,
,,,,,,,,,,,,,,,,29.719938,-95.399100,9.709961,-1.000000,-1.000000,1465846042.48
1465846141.27,0.516115,-0.090585,-1.458632,0.016787,-0.307557,-0.014004,0.491481,0.090461,-0.866177,-0.548198,-0.089072,-0.133350,-15.655304,-1.939550,26.715034,,,,,,
1465846141.28,0.503568,-0.089195,-1.459596,0.026295,-0.356501,-0.001980,0.480635,0.089077,-0.872385,-0.548216,-0.087643,-0.127539,-14.383545,-1.760927,27.432756,,,,,,
1465846141.29,0.490679,-0.087593,-1.460431,0.032613,-0.387418,0.019508,0.469419,0.087481,-0.878632,-0.546277,-0.091372,-0.118317,-14.383545,-1.760927,27.432756,,,,,,
1465846141.30,0.478183,-0.086094,-1.461185,0.017785,-0.342859,0.012826,0.458462,0.085988,-0.884544,-0.538006,-0.088124,-0.109261,-14.383545,-1.760927,27.432756,,,,,,
1465846141.31,0.466730,-0.084617,-1.461913,0.018971,-0.257971,0.010165,0.448359,0.084516,-0.889849,-0.527399,-0.089292,-0.101606,-13.685366,-1.666448,27.793474,,,,,,
1465846141.32,0.455841,-0.083177,-1.462645,0.012656,-0.214482,0.005627,0.438696,0.083081,-0.894787,-0.520330,-0.087262,-0.102451,-13.685366,-1.666448,27.793474,,,,,,
1465846141.33,0.445434,-0.081906,-1.463336,0.006326,-0.177373,0.004322,0.429405,0.081814,-0.899398,-0.513725,-0.083646,-0.097000,-13.685366,-1.666448,27.793474,,,,,,
1465846141.34,0.435711,-0.080674,-1.464026,0.006420,-0.111598,0.002844,0.420682,0.080586,-0.903622,-0.508298,-0.081136,-0.088490,-12.420990,-1.487381,28.391022,,,,,,
1465846141.35,0.426612,-0.079481,-1.464702,0.004362,-0.063871,0.001477,0.412482,0.079397,-0.907499,-0.504325,-0.080755,-0.080752,-12.420990,-1.487381,28.391022,,,,,,
1465846141.36,0.417929,-0.078298,-1.465358,0.004411,-0.032076,0.001277,0.404625,0.078218,-0.911132,-0.500282,-0.079164,-0.077669,-12.420990,-1.487381,28.391022,,,,,,
1465846141.37,0.409753,-0.077119,-1.465995,0.004459,-0.003461,0.000032,0.397199,0.077042,-0.914493,-0.486783,-0.078507,-0.077755,-11.887250,-1.410879,28.622477,,,,,,
1465846141.38,0.401972,-0.075897,-1.466622,0.004490,0.012414,-0.001134,0.390107,0.075824,-0.917642,-0.474702,-0.079166,-0.080420,-11.887250,-1.410879,28.622477,,,,,,
1465846141.39,0.394432,-0.074671,-1.467207,0.002366,0.009175,-0.001117,0.383213,0.074602,-0.920642,-0.461262,-0.079409,-0.080273,-11.887250,-1.410879,28.622477,,,,,,
1465846141.40,0.386906,-0.073484,-1.467772,0.002349,-0.009993,0.000067,0.376307,0.073418,-0.923582,-0.450144,-0.076561,-0.078661,-10.965170,-1.259332,28.995214,,,,,,
1465846141.41,0.379268,-0.072305,-1.468315,0.001264,-0.033404,0.000212,0.369273,0.072242,-0.926509,-0.441874,-0.076347,-0.077626,-10.965170,-1.259332,28.995214,,,,,,
1465846141.42,0.371483,-0.071198,-1.468862,0.001256,-0.048318,-0.000760,0.362078,0.071138,-0.929429,-0.439745,-0.073030,-0.069792,-10.965170,-1.259332,28.995214,,,,,,
,,,,,,,,,,,,,,,,29.720214,-95.399786,9.709961,-1.000000,-1.000000,1465846197.25
,,,,,,,,,,,,,,,,29.720412,-95.400280,9.709961,-1.000000,-1.000000,1465846197.28
1465846141.43,0.363785,-0.070088,-1.469377,0.002335,-0.044123,-0.000787,0.354940,0.070031,-0.932262,-0.434622,-0.072121,-0.067219,-10.526420,-1.184885,29.160484,,,,,,
1465846141.44,0.356245,-0.068975,-1.469882,0.002349,-0.037806,0.000237,0.347928,0.068920,-0.934985,-0.429563,-0.071972,-0.063291,-10.526420,-1.184885,29.160484,,,,,,
1465846141.45,0.348822,-0.067904,-1.470371,0.003427,-0.035730,-0.000840,0.341004,0.067852,-0.937610,-0.423950,-0.069195,-0.060116,-10.526420,-1.184885,29.160484,,,,,,
1465846141.46,0.341518,-0.066848,-1.470852,0.003433,-0.035783,0.000224,0.334169,0.066798,-0.940143,-0.417314,-0.067882,-0.057492,-10.526420,-1.184885,29.160484,,,,,,
1465846141.47,0.334356,-0.065782,-1.471321,0.004511,-0.033705,-0.000854,0.327451,0.065735,-0.942579,-0.409452,-0.067291,-0.055193,-9.637652,-1.046432,29.471411,,,,,,
1465846141.48,0.327293,-0.064739,-1.471776,0.004514,-0.035880,0.000224,0.320808,0.064693,-0.944932,-0.402931,-0.065517,-0.055846,-9.637652,-1.046432,29.471411,,,,,,
1465846141.49,0.320283,-0.063638,-1.472199,0.003450,-0.040176,0.001313,0.314198,0.063595,-0.947225,-0.397008,-0.068081,-0.053919,-9.211987,-0.979696,29.609507,,,,,,
1465846141.50,0.313386,-0.062614,-1.472611,0.003461,-0.039158,0.000241,0.307677,0.062573,-0.949431,-0.390090,-0.064282,-0.049409,-9.211987,-0.979696,29.609507,,,,,,
1465846141.51,0.306530,-0.061589,-1.473025,0.004529,-0.044511,-0.000789,0.301181,0.061550,-0.951579,-0.384646,-0.063411,-0.048849,-9.211987,-0.979696,29.609507,,,,,,
1465846141.52,0.299765,-0.060603,-1.473427,0.004527,-0.051988,-0.000743,0.294753,0.060566,-0.953652,-0.375335,-0.061252,-0.046806,-8.387544,-0.847994,29.857552,,,,,,
1465846141.53,0.292976,-0.059586,-1.473815,0.004526,-0.058404,-0.000704,0.288290,0.059550,-0.955689,-0.372031,-0.062205,-0.044982,-8.387544,-0.847994,29.857552,,,,,,
1465846141.54,0.286267,-0.058592,-1.474200,0.004534,-0.059506,-0.001762,0.281888,0.058558,-0.957659,-0.365659,-0.060847,-0.041212,-8.387544,-0.847994,29.857552,,,,,,
1465846141.55,0.279675,-0.057603,-1.474556,0.004536,-0.060617,0.000373,0.275585,0.057571,-0.959551,-0.358395,-0.060211,-0.041700,-7.983379,-0.785112,29.969862,,,,,,
,,,,,,,,,,,,,,,,29.719986,-95.399018,10.127966,-1.000000,-1.000000,1465846197.41
1465846141.56,0.273152,-0.056620,-1.474910,0.002234,-0.066950,-0.001699,0.269335,0.056590,-0.961382,-0.352023,-0.060359,-0.039960,-7.983379,-0.785112,29.969862,,,,,,
1465846141.57,0.266582,-0.055678,-1.475252,0.006483,-0.076553,0.000494,0.263028,0.055649,-0.963182,-0.348370,-0.056717,-0.038970,-7.983379,-0.785112,29.969862,,,,,,
1465846141.58,0.260083,-0.054735,-1.475576,0.003307,-0.067033,0.000430,0.256775,0.054707,-0.964921,-0.345658,-0.057301,-0.030974,-7.191910,-0.662525,30.172518,,,,,,
1465846141.59,0.253794,-0.053822,-1.475901,0.003334,-0.052203,-0.000728,0.250714,0.053796,-0.966565,-0.341611,-0.055917,-0.027820,-7.191910,-0.662525,30.172518,,,,,,
1465846141.60,0.247737,-0.052882,-1.476217,0.004421,-0.039500,-0.000807,0.244867,0.052857,-0.968115,-0.337977,-0.056245,-0.029001,-7.191910,-0.662525,30.172518,,,,,,
1465846141.61,0.241842,-0.051983,-1.476506,0.003362,-0.038478,0.000249,0.239168,0.051960,-0.969587,-0.329317,-0.054401,-0.028170,-6.806435,-0.604341,30.263023,,,,,,
1465846141.62,0.236080,-0.051055,-1.476787,0.003368,-0.036393,0.001299,0.233588,0.051033,-0.970995,-0.323035,-0.054985,-0.027387,-6.806435,-0.604341,30.263023,,,,,,
1465846141.63,0.230496,-0.050137,-1.477055,0.001258,-0.027930,0.000179,0.228173,0.050116,-0.972330,-0.315942,-0.055823,-0.028036,-6.806435,-0.604341,30.263023,,,,,,
1465846141.64,0.224918,-0.049232,-1.477313,0.002306,-0.046016,0.000293,0.222756,0.049212,-0.973631,-0.308785,-0.054629,-0.028856,-6.101258,-0.488925,30.415112,,,,,,
1465846141.65,0.219275,-0.048428,-1.477570,0.003363,-0.058789,-0.000691,0.217267,0.048409,-0.974911,-0.303830,-0.048531,-0.028446,-6.101258,-0.488925,30.415112,,,,,,
1465846141.66,0.213578,-0.047706,-1.477826,0.005492,-0.063072,-0.000663,0.211717,0.047687,-0.976167,-0.301591,-0.043293,-0.018172,-6.101258,-0.488925,30.415112,,,,,,
1465846141.67,0.207955,-0.046988,-1.478089,0.006578,-0.049303,-0.000748,0.206232,0.046971,-0.977375,-0.302332,-0.042332,-0.007961,-5.760305,-0.435410,30.482334,,,,,,
1465846141.68,0.202729,-0.046224,-1.478343,0.007700,-0.007927,-0.001007,0.201128,0.046207,-0.978474,-0.299975,-0.044178,-0.007030,-5.760305,-0.435410,30.482334,,,,,,
1465846141.69,0.197941,-0.045349,-1.478580,0.006661,0.010088,-0.000057,0.196449,0.045333,-0.979466,-0.290153,-0.049483,-0.013683,-5.760305,-0.435410,30.482334,,,,,,
1465846141.70,0.193361,-0.044367,-1.478795,0.002398,0.001564,-0.000009,0.191970,0.044352,-0.980398,-0.277831,-0.056392,-0.026468,-5.110040,-0.338914,30.599281,,,,,,
1465846141.71,0.188736,-0.043447,-1.478982,0.001296,-0.033504,0.000209,0.187440,0.043434,-0.981315,-0.263429,-0.054069,-0.030785,-5.110040,-0.338914,30.599281,,,,,,
1465846141.72,0.183755,-0.042571,-1.479177,0.001247,-0.079188,-0.000570,0.182557,0.042558,-0.982274,-0.256562,-0.051255,-0.027950,-5.110040,-0.338914,30.599281,,,,,,
1465846141.73,0.178406,-0.041843,-1.479357,0.001223,-0.100457,0.000627,0.177306,0.041831,-0.983266,-0.259398,-0.043570,-0.020319,-4.828699,-0.279558,30.645538,,,,,,
1465846141.74,0.173055,-0.041175,-1.479543,0.005504,-0.086686,0.000545,0.172047,0.041164,-0.984228,-0.266209,-0.040172,-0.009043,-4.828699,-0.279558,30.645538,,,,,,
1465846141.75,0.167943,-0.040519,-1.479737,0.004492,-0.048491,0.000304,0.167017,0.040508,-0.985121,-0.268931,-0.038890,-0.002000,-4.828699,-0.279558,30.645538,,,,,,
1465846141.76,0.163249,-0.039852,-1.479928,0.005603,-0.016665,-0.000960,0.162396,0.039841,-0.985921,-0.264935,-0.038956,-0.002711,-4.191406,-0.187991,30.739878,,,,,,
1465846141.77,0.158909,-0.039152,-1.480105,0.003495,0.000290,0.001060,0.158119,0.039142,-0.986644,-0.255898,-0.040500,-0.005330,-4.191406,-0.187991,30.739878,,,,,,
1465846141.78,0.154698,-0.038477,-1.480256,0.000294,-0.007173,0.002168,0.153967,0.038467,-0.987327,-0.246924,-0.040741,-0.010003,-4.191406,-0.187991,30.739878,,,,,,
1465846141.79,0.150392,-0.037772,-1.480409,0.002407,-0.026311,0.001225,0.149719,0.037763,-0.988007,-0.242050,-0.040769,-0.011489,-3.913949,-0.145230,30.776669,,,,,,
1465846141.80,0.146129,-0.037067,-1.480565,0.005600,-0.033767,-0.000855,0.145510,0.037058,-0.988663,-0.236330,-0.041010,-0.011902,-3.913949,-0.145230,30.776669,,,,,,
1465846141.81,0.141923,-0.036357,-1.480716,0.001354,-0.026362,0.000159,0.141354,0.036349,-0.989292,-0.233486,-0.041110,-0.010541,-3.913949,-0.145230,30.776669,,,,,,
1465846141.82,0.137829,-0.035711,-1.480857,0.001370,-0.016832,0.000098,0.137305,0.035704,-0.989885,-0.232215,-0.038817,-0.005980,-3.391340,-0.057963,30.838917,,,,,,
1465846141.83,0.133854,-0.035064,-1.480997,0.001395,-0.001991,-0.001060,0.133373,0.035057,-0.990446,-0.231044,-0.037987,-0.004244,-3.391340,-0.057963,30.838917,,,,,,
1465846141.84,0.130144,-0.034473,-1.481141,0.002492,0.020280,-0.001199,0.129700,0.034466,-0.990954,-0.228180,-0.034451,-0.001630,-3.391340,-0.057963,30.838917,,,,,,
1465846141.85,0.126707,-0.033843,-1.481286,0.002520,0.039366,-0.001319,0.126296,0.033837,-0.991415,-0.225661,-0.036934,-0.000070,-3.142704,-0.017585,30.865294,,,,,,
1465846141.86,0.123499,-0.033255,-1.481427,0.002539,0.051021,-0.001392,0.123117,0.033249,-0.991835,-0.221124,-0.034867,-0.002168,-3.142704,-0.017585,30.865294,,,,,,
1465846141.87,0.120462,-0.032658,-1.481562,0.001488,0.058429,-0.001440,0.120107,0.032652,-0.992224,-0.215779,-0.035475,-0.002985,-3.142704,-0.017585,30.865294,,,,,,
1465846141.88,0.117566,-0.032010,-1.481681,0.002552,0.056277,-0.000362,0.117235,0.032005,-0.992588,-0.207873,-0.037284,-0.004955,-2.729676,0.057592,30.904512,,,,,,
1465846141.89,0.114716,-0.031428,-1.481801,-0.000645,0.048826,-0.001383,0.114408,0.031423,-0.992937,-0.201062,-0.035421,-0.007017,-2.729676,0.057592,30.904512,,,,,,
1465846141.90,0.111829,-0.030821,-1.481918,0.000413,0.040308,-0.001329,0.111543,0.030816,-0.993282,-0.197679,-0.036386,-0.006322,-2.729676,0.057592,30.904512,,,,,,
1465846141.91,0.108940,-0.030265,-1.482032,0.001486,0.043470,-0.001349,0.108675,0.030260,-0.993617,-0.198138,-0.033983,-0.006032,-2.552289,0.095962,30.919575,,,,,,
1465846141.92,0.106159,-0.029722,-1.482145,-0.000617,0.059378,-0.002515,0.105913,0.029718,-0.993931,-0.198351,-0.033228,-0.004329,-2.552289,0.095962,30.919575,,,,,,
1465846141.93,0.103583,-0.029196,-1.482278,0.002611,0.083774,-0.002666,0.103354,0.029192,-0.994216,-0.198172,-0.029878,0.004272,-2.552289,0.095962,30.919575,,,,,,
1465846141.94,0.101395,-0.028724,-1.482401,0.000528,0.117730,-0.002881,0.101180,0.028720,-0.994454,-0.196181,-0.029452,0.005135,-2.208394,0.165668,30.945742,,,,,,
1465846141.95,0.099545,-0.028241,-1.482521,-0.000506,0.140006,-0.003022,0.099341,0.028238,-0.994653,-0.191413,-0.030130,0.002435,-2.208394,0.165668,30.945742,,,,,,
1465846141.96,0.097927,-0.027738,-1.482633,0.001633,0.146351,-0.001996,0.097733,0.027735,-0.994826,-0.186813,-0.030802,-0.000611,-2.083664,0.195506,30.954216,,,,,,
1465846141.97,0.093480,-0.026749,-1.482830,-0.000485,0.146317,-0.004127,0.093310,0.026746,-0.995278,-0.174701,-0.028013,-0.003547,-2.083664,0.195506,30.954216,,,,,,
1465846141.98,0.092122,-0.026286,-1.482934,-0.001543,0.150541,-0.003091,0.091960,0.026283,-0.995416,-0.171748,-0.029243,-0.002784,-2.083664,0.195506,30.954216,,,,,,
1465846141.99,0.090857,-0.025857,-1.483031,-0.002598,0.156890,-0.002068,0.090702,0.025854,-0.995542,-0.169025,-0.027563,-0.000078,-2.083664,0.195506,30.954216,,,,,,
1465846142.00,0.089583,-0.025384,-1.483146,0.001663,0.152627,-0.004166,0.089434,0.025381,-0.995669,-0.168673,-0.027731,-0.004911,-2.083664,0.195506,30.954216,,,,,,
1465846142.01,0.088440,-0.024931,-1.483250,-0.000455,0.158979,-0.004208,0.088298,0.024929,-0.995782,-0.164653,-0.028454,-0.003318,-1.815160,0.269948,30.970562,,,,,,
1465846142.02,0.087410,-0.024513,-1.483347,-0.001511,0.165329,-0.003185,0.087273,0.024511,-0.995883,-0.162224,-0.026525,-0.005597,-1.815160,0.269948,30.970562,,,,,,
1465846142.03,0.086505,-0.024064,-1.483447,0.000629,0.169559,-0.004274,0.086372,0.024061,-0.995972,-0.156441,-0.027540,-0.001296,-1.815160,0.269948,30.970562,,,,,,
1465846142.04,0.085701,-0.023673,-1.483545,-0.001489,0.178034,-0.003265,0.085573,0.023671,-0.996051,-0.155427,-0.024846,-0.001752,-1.815160,0.269948,30.970562,,,,,,
1465846142.05,0.084908,-0.023280,-1.483637,-0.002539,0.185451,-0.004378,0.084783,0.023278,-0.996127,-0.157201,-0.025322,0.002063,-1.815160,0.269948,30.970562,,,,,,
1465846142.06,0.084332,-0.022850,-1.483723,-0.001453,0.203477,-0.002361,0.084210,0.022848,-0.996186,-0.153820,-0.026907,0.001176,6.656167,2.215073,21.149687,,,,,,
1465846142.07,0.084094,-0.022424,-1.483816,-0.003550,0.224700,-0.003561,0.083974,0.022422,-0.996216,-0.147161,-0.027458,-0.003510,6.656167,2.215073,21.149687,,,,,,
1465846142.08,0.084103,-0.022030,-1.483905,-0.004602,0.231058,-0.004667,0.083984,0.022029,-0.996224,-0.139465,-0.026515,-0.007896,6.656167,2.215073,21.149687,,,,,,
1465846142.09,0.084109,-0.021724,-1.483983,-0.004626,0.212986,-0.002425,0.083990,0.021722,-0.996230,-0.131567,-0.021539,-0.010148,6.673048,2.234128,21.142365,,,,,,
1465846142.10,0.083892,-0.021533,-1.484071,-0.002528,0.181124,-0.005417,0.083774,0.021532,-0.996252,-0.127719,-0.013933,-0.007593,6.673048,2.234128,21.142365,,,,,,
1465846142.11,0.083175,-0.021329,-1.484148,0.000603,0.134379,-0.001927,0.083060,0.021328,-0.996316,-0.130118,-0.013195,-0.004401,6.673048,2.234128,21.142365,,,,,,
1465846142.12,0.082238,-0.021043,-1.484221,0.006971,0.115251,-0.002865,0.082127,0.021042,-0.996400,-0.127064,-0.014404,-0.000335,6.691797,2.259380,21.133753,,,,,,
1465846142.13,0.081282,-0.020516,-1.484288,0.008021,0.102492,-0.001720,0.081175,0.020515,-0.996489,-0.121413,-0.025825,-0.010958,6.691797,2.259380,21.133753,,,,,,
1465846142.14,0.080249,-0.019938,-1.484358,0.005861,0.073814,-0.002607,0.080147,0.019936,-0.996584,-0.112388,-0.029671,-0.024733,6.691797,2.259380,21.133753,,,,,,
1465846142.15,0.078872,-0.019310,-1.484397,0.003656,0.013274,-0.000102,0.078776,0.019309,-0.996705,-0.101130,-0.034140,-0.032012,6.731558,2.277229,21.119204,,,,,,
1465846142.16,0.076822,-0.018852,-1.484419,-0.001755,-0.058938,0.000345,0.076733,0.018851,-0.996873,-0.099255,-0.028098,-0.028914,6.731558,2.277229,21.119204,,,,,,
1465846142.17,0.073918,-0.018472,-1.484439,-0.000785,-0.136462,0.000832,0.073839,0.018471,-0.997099,-0.102861,-0.022560,-0.023088,6.731558,2.277229,21.119204,,,,,,
1465846142.18,0.070289,-0.018219,-1.484452,-0.000833,-0.174704,0.002136,0.070220,0.018218,-0.997365,-0.115996,-0.016464,-0.006175,6.886826,2.320406,21.064373,,,,,,
1465846142.19,0.066389,-0.018003,-1.484473,0.003445,-0.160919,0.002054,0.066330,0.018002,-0.997635,-0.131714,-0.012402,0.011857,6.886826,2.320406,21.064373,,,,,,
1465846142.20,0.062859,-0.017746,-1.484506,0.003528,-0.096166,0.001648,0.062807,0.017745,-0.997868,-0.140185,-0.013854,0.018498,6.886826,2.320406,21.064373,,,,,,
1465846142.21,0.060180,-0.017463,-1.484543,0.004701,-0.011239,0.001116,0.060135,0.017462,-0.998038,-0.139221,-0.015219,0.018759,7.045201,2.330310,21.010838,,,,,,
1465846142.22,0.058434,-0.017120,-1.484592,0.005856,0.055644,-0.001431,0.058392,0.017119,-0.998147,-0.129575,-0.017699,0.009118,7.045201,2.330310,21.010838,,,,,,
1465846142.23,0.057286,-0.016795,-1.484628,0.002706,0.092788,0.000462,0.057247,0.016794,-0.998219,-0.119396,-0.017679,0.004780,7.045201,2.330310,21.010838,,,,,,
1465846142.24,0.056355,-0.016415,-1.484679,0.002728,0.104460,-0.001741,0.056318,0.016414,-0.998278,-0.117078,-0.021083,-0.002103,7.045201,2.330310,21.010838,,,,,,
1465846142.25,0.055675,-0.016042,-1.484723,-0.000441,0.122499,-0.001857,0.055639,0.016041,-0.998322,-0.109625,-0.021138,-0.000640,7.235914,2.356370,20.943005,,,,,,
1465846142.26,0.055236,-0.015760,-1.484775,0.000637,0.132042,-0.001916,0.055201,0.015760,-0.998351,-0.105128,-0.017194,-0.002458,7.235914,2.356370,20.943005,,,,,,
1465846142.27,0.054850,-0.015458,-1.484827,0.001707,0.134152,-0.001929,0.054816,0.015457,-0.998377,-0.103568,-0.017456,-0.002615,7.235914,2.356370,20.943005,,,,,,
1465846142.28,0.054561,-0.015192,-1.484883,0.001717,0.138390,-0.003020,0.054528,0.015192,-0.998397,-0.100427,-0.016229,0.001250,7.286542,2.385452,20.922150,,,,,,
1465846142.29,0.054304,-0.014924,-1.484938,0.000650,0.135194,-0.003001,0.054272,0.014923,-0.998415,-0.096447,-0.015473,-0.003004,7.286542,2.385452,20.922150,,,,,,
1465846142.30,0.053948,-0.014632,-1.485010,0.003841,0.129874,-0.004029,0.053916,0.014631,-0.998438,-0.100044,-0.015959,-0.001806,7.286542,2.385452,20.922150,,,,,,
1465846142.31,0.053626,-0.014389,-1.485070,0.000664,0.143663,-0.003055,0.053595,0.014388,-0.998459,-0.101950,-0.014694,0.003540,7.297734,2.397324,20.916891,,,,,,
1465846142.32,0.053545,-0.014129,-1.485127,-0.000359,0.175505,-0.003256,0.053515,0.014128,-0.998467,-0.104021,-0.015364,0.007149,7.297734,2.397324,20.916891,,,,,,
1465846142.33,0.053858,-0.013876,-1.485197,0.000763,0.215846,-0.005637,0.053827,0.013876,-0.998454,-0.105249,-0.015524,0.005839,7.311636,2.409396,20.910648,,,,,,
1465846142.34,0.054555,-0.013626,-1.485274,-0.000249,0.256183,-0.005891,0.054523,0.013625,-0.998420,-0.105365,-0.015136,0.005164,7.311636,2.409396,20.910648,,,,,,
1465846142.35,0.055828,-0.013337,-1.485350,0.000861,0.292269,-0.005052,0.055794,0.013337,-0.998353,-0.095711,-0.017731,0.002046,7.311636,2.409396,20.910648,,,,,,
1465846142.36,0.057372,-0.013139,-1.485423,-0.004448,0.300758,-0.006175,0.057335,0.013139,-0.998269,-0.088738,-0.014390,-0.003944,7.264949,2.433304,20.924149,,,,,,
1465846142.37,0.058952,-0.012944,-1.485506,-0.002330,0.290129,-0.006106,0.058913,0.012944,-0.998179,-0.082946,-0.013905,-0.004415,7.264949,2.433304,20.924149,,,,,,
1465846142.38,0.060405,-0.012754,-1.485571,-0.001289,0.269945,-0.005979,0.060363,0.012754,-0.998095,-0.079711,-0.012968,-0.009046,7.264949,2.433304,20.924149,,,,,,
1465846142.39,0.061746,-0.012550,-1.485629,-0.001308,0.257188,-0.003770,0.061702,0.012550,-0.998016,-0.076106,-0.012809,-0.005860,7.199179,2.442667,20.945778,,,,,,
1465846142.40,0.062871,-0.012358,-1.485692,-0.001330,0.234887,-0.005759,0.062825,0.012358,-0.997948,-0.077184,-0.012449,-0.007774,7.199179,2.442667,20.945778,,,,,,
1465846142.41,0.063917,-0.012148,-1.485746,-0.001352,0.217886,-0.004588,0.063869,0.012147,-0.997884,-0.070400,-0.012819,-0.009196,7.199179,2.442667,20.945778,,,,,,
1465846142.42,0.064742,-0.011888,-1.485798,-0.001397,0.181774,-0.003298,0.064692,0.011888,-0.997834,-0.065394,-0.015321,-0.014815,7.094571,2.461008,20.979296,,,,,,
1465846142.43,0.065151,-0.011636,-1.485836,-0.000388,0.136108,-0.003011,0.065100,0.011635,-0.997811,-0.063925,-0.014916,-0.017677,7.094571,2.461008,20.979296,,,,,,
1465846142.44,0.065130,-0.011405,-1.485877,-0.000437,0.095752,-0.002758,0.065079,0.011405,-0.997815,-0.063248,-0.013633,-0.014957,7.094571,2.461008,20.979296,,,,,,
1465846142.45,0.064779,-0.011132,-1.485911,-0.000456,0.078755,-0.002651,0.064730,0.011132,-0.997841,-0.068560,-0.016091,-0.009789,7.068529,2.472254,20.986765,,,,,,
1465846142.46,0.064333,-0.010919,-1.485937,0.001678,0.085109,-0.000560,0.064285,0.010919,-0.997872,-0.076385,-0.012079,-0.004127,7.068529,2.472254,20.986765,,,,,,
1465846142.47,0.064126,-0.010704,-1.485963,0.002775,0.107400,-0.001764,0.064079,0.010704,-0.997887,-0.073921,-0.011513,-0.000739,7.068529,2.472254,20.986765,,,,,,
1465846142.48,0.064098,-0.010500,-1.485994,-0.000414,0.110579,-0.001787,0.064051,0.010500,-0.997891,-0.067454,-0.011492,-0.006747,7.089824,2.492397,20.977198,,,,,,
1465846142.49,0.063900,-0.010300,-1.486018,0.000636,0.098887,-0.000648,0.063853,0.010300,-0.997906,-0.071467,-0.011902,-0.001438,7.089824,2.492397,20.977198,,,,,,
1465846142.50,0.063742,-0.010074,-1.486044,0.002783,0.110560,-0.001784,0.063695,0.010074,-0.997919,-0.073247,-0.012134,-0.000083,7.089824,2.492397,20.977198,,,,,,
1465846142.51,0.063872,-0.009899,-1.486076,0.000693,0.142403,-0.000921,0.063826,0.009899,-0.997912,-0.072630,-0.010418,-0.003324,7.094485,2.501143,20.974579,,,,,,
1465846142.52,0.063924,-0.009534,-1.486188,-0.005656,0.145624,-0.016915,0.063877,0.009534,-0.997912,-0.089177,-0.024488,-0.004911,7.094485,2.501143,20.974579,,,,,,
1465846142.53,0.066899,-0.009699,-1.486218,-0.013042,0.389903,0.007115,0.066846,0.009699,-0.997716,-0.195935,0.014059,0.095357,7.094485,2.501143,20.974579,,,,,,
1465846142.54,0.074022,-0.009688,-1.486316,-0.005020,0.806190,-0.018906,0.073950,0.009688,-0.997215,-0.128119,-0.025237,0.078544,7.031112,2.515124,20.994238,,,,,,
1465846142.55,0.083183,-0.009934,-1.486376,-0.018731,0.937814,-0.002714,0.083083,0.009934,-0.996493,-0.099670,0.000243,-0.019880,7.031112,2.515124,20.994238,,,,,,
1465846142.56,0.091927,-0.009960,-1.486557,-0.008183,0.832733,-0.018011,0.091793,0.009960,-0.995728,-0.036266,-0.010295,0.006135,7.031112,2.515124,20.994238,,,,,,
1465846142.57,0.098423,-0.010121,-1.486572,-0.012765,0.596977,-0.002699,0.098259,0.010121,-0.995109,-0.015175,-0.016926,-0.076866,6.687838,2.511639,21.106514,,,,,,
1465846142.58,0.103082,-0.010198,-1.486685,-0.007657,0.410124,-0.011102,0.102894,0.010198,-0.994640,0.028774,-0.012944,-0.056187,6.687838,2.511639,21.106514,,,,,,
1465846142.59,0.105330,-0.010287,-1.486727,-0.009028,0.172269,-0.005354,0.105130,0.010287,-0.994405,-0.002484,-0.016375,-0.068018,6.364839,2.509466,21.206409,,,,,,
1465846142.60,0.105985,-0.010322,-1.486738,-0.000687,0.038466,-0.000249,0.105782,0.010321,-0.994336,-0.021202,0.000405,-0.026599,6.364839,2.509466,21.206409,,,,,,
1465846142.61,0.105929,-0.010304,-1.486756,0.001377,-0.015684,-0.000971,0.105726,0.010304,-0.994342,-0.040845,0.000484,-0.022580,6.364839,2.509466,21.206409,,,,,,
1465846142.62,0.105576,-0.010239,-1.486771,0.009861,-0.044354,-0.001848,0.105374,0.010238,-0.994380,-0.045209,-0.004227,-0.007070,6.364839,2.509466,21.206409,,,,,,
1465846142.63,0.104941,-0.010140,-1.486772,0.009824,-0.068784,0.001499,0.104743,0.010140,-0.994448,-0.058204,-0.006844,-0.004912,6.204936,2.507262,21.254009,,,,,,
1465846142.64,0.104285,-0.010059,-1.486793,0.005584,-0.057096,-0.000707,0.104090,0.010059,-0.994517,-0.064799,-0.017902,-0.011831,6.204936,2.507262,21.254009,,,,,,
1465846142.66,0.103748,-0.010013,-1.486767,0.002419,-0.030556,0.001252,0.103557,0.010013,-0.994573,-0.044292,-0.017505,-0.019648,6.204936,2.507262,21.254009,,,,,,
1465846142.65,0.103974,-0.010033,-1.486777,0.000302,-0.020998,0.001190,0.103781,0.010033,-0.994550,-0.059546,-0.021615,-0.016223,6.204936,2.507262,21.254009,,,,,,
1465846142.67,0.102965,-0.009999,-1.486753,0.001268,-0.099572,0.001683,0.102778,0.009999,-0.994654,-0.038325,-0.011936,-0.022848,6.246498,2.512992,21.241152,,,,,,
1465846142.68,0.101273,-0.009953,-1.486737,0.006478,-0.188769,0.003313,0.101095,0.009953,-0.994827,-0.039785,-0.007038,-0.021485,6.246498,2.512992,21.241152,,,,,,
1465846142.69,0.099067,-0.009886,-1.486714,0.007495,-0.228053,0.002495,0.098900,0.009886,-0.995048,-0.043892,-0.004393,-0.012459,6.268005,2.513497,21.234756,,,,,,
1465846142.71,0.094627,-0.009728,-1.486696,0.007527,-0.202570,0.002336,0.094482,0.009728,-0.995479,-0.068999,-0.009163,-0.002507,6.268005,2.513497,21.234756,,,,,,
1465846142.70,0.096759,-0.009804,-1.486702,0.008558,-0.231236,0.001452,0.096604,0.009804,-0.995275,-0.059174,-0.008537,-0.000331,6.268005,2.513497,21.234756,,,,,,
1465846142.72,0.092973,-0.009651,-1.486687,0.007589,-0.154786,0.000972,0.092835,0.009651,-0.995635,-0.072754,-0.008980,0.005599,6.445051,2.518553,21.181091,,,,,,
1465846142.73,0.091727,-0.009590,-1.486679,0.005511,-0.114436,0.000716,0.091595,0.009590,-0.995750,-0.072979,-0.009361,0.001823,6.445051,2.518553,21.181091,,,,,,
1465846142.74,0.090923,-0.009545,-1.486679,0.004502,-0.069840,0.000436,0.090793,0.009545,-0.995824,-0.075275,-0.010201,0.006642,6.445051,2.518553,21.181091,,,,,,
1465846142.75,0.090638,-0.009514,-1.486669,0.003507,-0.012505,0.001140,0.090510,0.009514,-0.995850,-0.084620,-0.010414,0.005021,6.506519,2.521247,21.161970,,,,,,
1465846142.76,0.089265,-0.009221,-1.486697,0.004659,0.052258,-0.001394,0.089143,0.009221,-0.995976,-0.076081,-0.010991,0.007313,6.506519,2.521247,21.161970,,,,,,
1465846142.77,0.090180,-0.009207,-1.486714,0.001527,0.102164,-0.001711,0.090054,0.009207,-0.995894,-0.076428,-0.011236,0.004378,6.506519,2.521247,21.161970,,,,,,
1465846142.78,0.091526,-0.009227,-1.486753,-0.002673,0.145706,-0.004117,0.091394,0.009227,-0.995772,-0.073099,-0.010722,0.001631,6.539241,2.529379,21.150909,,,,,,
1465846142.79,0.093190,-0.009235,-1.486784,-0.000511,0.173309,-0.003223,0.093051,0.009235,-0.995618,-0.070804,-0.008869,0.001341,6.539241,2.529379,21.150909,,,,,,
1465846142.80,0.093578,-0.009026,-1.486841,-0.002604,0.198786,-0.004450,0.093438,0.009026,-0.995584,-0.066506,-0.009713,-0.000220,6.539241,2.529379,21.150909,,,,,,
1465846142.81,0.094193,-0.008885,-1.486904,-0.001508,0.221075,-0.005653,0.094050,0.008885,-0.995528,-0.067546,-0.006810,0.000960,6.475360,2.529396,21.170551,,,,,,
1465846142.82,0.095164,-0.008729,-1.486957,-0.001474,0.250790,-0.003710,0.095016,0.008729,-0.995437,-0.065338,-0.007905,0.004028,6.475360,2.529396,21.170551,,,,,,
1465846142.83,0.096581,-0.008567,-1.487016,-0.002497,0.281576,-0.004969,0.096428,0.008567,-0.995303,-0.061424,-0.008232,0.002963,6.453875,2.537568,21.176134,,,,,,
1465846142.84,0.098286,-0.008362,-1.487063,-0.003543,0.296431,-0.003999,0.098124,0.008362,-0.995139,-0.057215,-0.010559,-0.002542,6.453875,2.537568,21.176134,,,,,,
1465846142.85,0.100269,-0.008198,-1.487112,-0.004604,0.296427,-0.005064,0.100097,0.008198,-0.994944,-0.047104,-0.009586,-0.009222,6.453875,2.537568,21.176134,,,,,,
1465846142.86,0.102159,-0.008016,-1.487170,-0.003568,0.270940,-0.005968,0.101978,0.008016,-0.994754,-0.042026,-0.010091,-0.013379,6.324718,2.553383,21.213171,,,,,,
1465846142.87,0.103829,-0.007895,-1.487220,-0.001491,0.229521,-0.004642,0.103640,0.007895,-0.994584,-0.034701,-0.006644,-0.017318,6.324718,2.553383,21.213171,,,,,,
1465846142.89,0.105930,-0.007629,-1.487306,0.000549,0.158365,-0.003129,0.105729,0.007629,-0.994366,-0.035294,-0.007583,-0.012485,6.248927,2.560498,21.234764,,,,,,
1465846142.88,0.105028,-0.007791,-1.487269,-0.001545,0.185981,-0.004369,0.104832,0.007791,-0.994459,-0.035786,-0.005700,-0.018572,6.248927,2.560498,21.234764,,,,,,
1465846142.90,0.106557,-0.007490,-1.487344,0.000535,0.146680,-0.003056,0.106352,0.007489,-0.994300,-0.040694,-0.006406,-0.010003,6.248927,2.560498,21.234764,,,,,,
1465846142.91,0.107112,-0.007333,-1.487381,-0.000520,0.153044,-0.003097,0.106905,0.007333,-0.994242,-0.045320,-0.007486,-0.006902,6.204149,2.566663,21.247147,,,,,,
1465846142.93,0.108744,-0.007042,-1.487430,0.000564,0.170015,-0.001073,0.108527,0.007042,-0.994069,-0.040092,-0.006462,-0.006603,6.204149,2.566663,21.247147,,,,,,
1465846142.92,0.107854,-0.007176,-1.487409,-0.000503,0.167901,-0.002126,0.107642,0.007176,-0.994164,-0.043463,-0.007512,-0.007866,6.204149,2.566663,21.247147,,,,,,
1465846142.94,0.109590,-0.006882,-1.487467,0.000552,0.155153,-0.004174,0.109368,0.006882,-0.993977,-0.037408,-0.007798,-0.009257,6.204149,2.566663,21.247147,,,,,,
1465846142.95,0.110304,-0.006758,-1.487491,-0.000540,0.136031,-0.001926,0.110078,0.006758,-0.993900,-0.034119,-0.006346,-0.012097,6.144153,2.579731,21.262991,,,,,,
1465846142.96,0.110899,-0.006652,-1.487519,0.000511,0.122225,-0.002903,0.110669,0.006652,-0.993835,-0.033261,-0.005294,-0.011460,6.144153,2.579731,21.262991,,,,,,
1465846142.97,0.111343,-0.006533,-1.487552,0.001563,0.111601,-0.002835,0.111110,0.006533,-0.993787,-0.035030,-0.005724,-0.008304,6.144153,2.579731,21.262991,,,,,,
1465846142.98,0.111712,-0.006403,-1.487574,0.000491,0.106285,-0.001739,0.111478,0.006403,-0.993746,-0.034406,-0.006510,-0.011289,6.088699,2.591175,21.277546,,,,,,
1465846142.99,0.112052,-0.006295,-1.487607,0.000491,0.104160,-0.002790,0.111815,0.006295,-0.993709,-0.035216,-0.005258,-0.008458,6.088699,2.591175,21.277546,,,,,,
1465846143.00,0.112388,-0.006154,-1.487633,-0.000572,0.105217,-0.002797,0.112150,0.006154,-0.993672,-0.036191,-0.007451,-0.007854,6.088699,2.591175,21.277546,,,,,,
1465846143.02,0.113227,-0.005947,-1.487705,0.000519,0.124319,-0.002916,0.112983,0.005947,-0.993579,-0.038291,-0.004543,-0.005429,6.073526,2.596501,21.281233,,,,,,
1465846143.01,0.112759,-0.006033,-1.487672,0.000501,0.110520,-0.002830,0.112518,0.006033,-0.993631,-0.036789,-0.005987,-0.004827,6.073526,2.596501,21.281233,,,,,,
1465846143.03,0.113904,-0.005848,-1.487739,0.000546,0.145550,-0.003049,0.113656,0.005848,-0.993503,-0.037759,-0.005222,-0.002255,6.073526,2.596501,21.281233,,,,,,
1465846143.04,0.114827,-0.005659,-1.487761,-0.002629,0.161471,-0.002088,0.114573,0.005659,-0.993399,-0.035502,-0.010725,-0.003687,6.033875,2.606773,21.291254,,,,,,
1465846143.05,0.115849,-0.005537,-1.487792,-0.002620,0.165716,-0.003179,0.115588,0.005537,-0.993282,-0.032870,-0.008040,-0.010472,6.033875,2.606773,21.291254,,,,,,
1465846143.06,0.116921,-0.005537,-1.487828,-0.003692,0.158283,-0.004198,0.116653,0.005537,-0.993157,-0.028579,-0.002165,-0.011893,6.033875,2.606773,21.291254,,,,,,
1465846143.07,0.117831,-0.005642,-1.487861,0.000542,0.142345,-0.001965,0.117557,0.005642,-0.993050,-0.029468,0.005100,-0.005592,5.992401,2.613579,21.302132,,,,,,
1465846143.08,0.118565,-0.005752,-1.487889,0.005856,0.134905,-0.001913,0.118286,0.005752,-0.992963,-0.034042,0.007843,0.001828,5.992401,2.613579,21.302132,,,,,,
1465846143.09,0.119406,-0.005707,-1.487920,0.005874,0.149766,-0.002006,0.119121,0.005706,-0.992863,-0.034343,0.000702,0.005940,5.992401,2.613579,21.302132,,,,,,
1465846143.10,0.120355,-0.005506,-1.487952,0.006948,0.158252,-0.000994,0.120063,0.005506,-0.992751,-0.033347,-0.006925,-0.007905,5.916183,2.611190,21.323717,,,,,,
1465846143.11,0.121422,-0.005211,-1.487982,0.000549,0.144455,-0.003042,0.121122,0.005211,-0.992624,-0.021436,-0.014855,-0.023489,5.916183,2.611190,21.323717,,,,,,
1465846143.12,0.122300,-0.004927,-1.487995,-0.000574,0.099852,-0.000635,0.121993,0.004927,-0.992519,-0.011245,-0.015532,-0.028706,5.916183,2.611190,21.323717,,,,,,
1465846143.13,0.122853,-0.004731,-1.488017,-0.001710,0.038274,-0.002379,0.122542,0.004731,-0.992452,0.001618,-0.011414,-0.020152,5.873189,2.621840,21.334291,,,,,,
1465846143.14,0.122523,-0.004656,-1.488027,-0.001775,-0.012697,-0.000995,0.122216,0.004656,-0.992493,-0.013573,-0.004961,-0.018753,5.873189,2.621840,21.334291,,,,,,
1465846143.15,0.121949,-0.004678,-1.488041,0.001441,0.006407,-0.000047,0.121645,0.004678,-0.992563,-0.029055,0.001212,-0.005683,5.873189,2.621840,21.334291,,,,,,
1465846143.16,0.121957,-0.004561,-1.488074,-0.000601,0.069062,-0.004700,0.121654,0.004561,-0.992562,-0.034190,-0.006438,0.020165,5.861959,2.633252,21.335978,,,,,,
1465846143.17,0.122335,-0.004652,-1.488071,-0.001577,0.148676,0.000122,0.122029,0.004652,-0.992516,-0.050175,0.002688,-0.002190,5.861959,2.633252,21.335978,,,,,,
1465846143.19,0.125036,-0.004703,-1.488140,0.007021,0.207071,-0.003429,0.124709,0.004703,-0.992182,-0.038100,0.009183,0.002085,5.853645,2.634040,21.338160,,,,,,
1465846143.18,0.123632,-0.004559,-1.488120,-0.004687,0.206025,-0.005563,0.123316,0.004559,-0.992357,-0.038187,-0.006680,0.011202,5.853645,2.634040,21.338160,,,,,,
1465846143.20,0.126879,-0.004555,-1.488186,0.000633,0.208131,-0.002377,0.126538,0.004555,-0.991951,-0.019497,-0.008491,0.002724,5.853645,2.634040,21.338160,,,,,,
1465846143.22,0.129853,-0.004330,-1.488232,-0.002624,0.160341,0.000048,0.129487,0.004330,-0.991572,-0.010408,-0.006497,-0.025167,5.795784,2.633579,21.354006,,,,,,
1465846143.21,0.128397,-0.004411,-1.488225,0.002738,0.181594,-0.006467,0.128044,0.004411,-0.991759,-0.021034,-0.006272,-0.014680,5.795784,2.633579,21.354006,,,,,,
1465846143.23,0.131133,-0.004107,-1.488266,-0.002659,0.124251,-0.003984,0.130756,0.004107,-0.991406,-0.003315,-0.012729,-0.014911,5.795784,2.633579,21.354006,,,,,,
1465846143.24,0.131922,-0.004127,-1.488268,0.003672,0.081769,-0.001582,0.131539,0.004127,-0.991302,-0.005898,0.001702,-0.017105,5.795784,2.633579,21.354006,,,,,,
1465846143.25,0.132447,-0.004047,-1.488303,0.002562,0.045668,-0.001357,0.132059,0.004047,-0.991234,-0.001444,-0.002872,-0.007347,6.690781,-0.296513,24.704102,,,,,,
1465846143.26,0.132501,-0.004070,-1.488315,0.004666,0.025491,-0.001228,0.132113,0.004070,-0.991226,-0.012011,0.003239,-0.011963,6.690781,-0.296513,24.704102,,,,,,
1465846143.27,0.132492,-0.003984,-1.488313,0.000382,0.010618,0.002054,0.132104,0.003984,-0.991228,-0.007485,-0.004167,-0.011702,6.690781,-0.296513,24.704102,,,,,,
1465846143.28,0.132283,-0.003752,-1.488335,-0.001741,0.007444,-0.002186,0.131897,0.003752,-0.991256,-0.011932,-0.010969,-0.014969,6.657196,-0.293134,24.713213,,,,,,
1465846143.29,0.131987,-0.003718,-1.488341,0.002487,-0.015922,-0.000971,0.131603,0.003718,-0.991296,-0.009166,-0.001384,-0.011085,6.657196,-0.293134,24.713213,,,,,,
1465846143.30,0.131437,-0.003639,-1.488357,0.000329,-0.037162,0.000225,0.131058,0.003639,-0.991368,-0.011994,-0.003990,-0.007640,6.657196,-0.293134,24.713213,,,,,,
1465846143.31,0.130759,-0.003604,-1.488367,0.004607,-0.023360,-0.000922,0.130386,0.003604,-0.991457,-0.021606,-0.000003,-0.005339,6.669674,-0.286576,24.709925,,,,,,
1465846143.32,0.130389,-0.003555,-1.488376,0.000376,0.002117,0.001043,0.130019,0.003555,-0.991505,-0.016799,-0.001418,-0.002376,6.669674,-0.286576,24.709925,,,,,,
1465846143.34,0.130066,-0.003399,-1.488420,0.000443,0.050960,-0.001392,0.129699,0.003399,-0.991548,-0.025482,-0.002193,0.002336,6.700011,-0.283634,24.701750,,,,,,
1465846143.33,0.130088,-0.003445,-1.488404,0.003598,0.016989,-0.003305,0.129721,0.003445,-0.991545,-0.023596,-0.004239,-0.002550,6.700011,-0.283634,24.701750,,,,,,
1465846143.35,0.130390,-0.003292,-1.488436,-0.001644,0.085994,-0.000550,0.130020,0.003292,-0.991506,-0.025436,-0.006710,-0.001872,6.700011,-0.283634,24.701750,,,,,,
1465846143.36,0.131026,-0.003243,-1.488456,0.000517,0.109353,-0.001758,0.130651,0.003243,-0.991423,-0.023976,-0.001977,0.001036,6.700011,-0.283634,24.701750,,,,,,
1465846143.37,0.131853,-0.003224,-1.488473,-0.000543,0.112537,-0.001779,0.131471,0.003224,-0.991315,-0.017182,-0.001851,-0.004565,6.709135,-0.275576,24.699364,,,,,,
1465846143.38,0.132696,-0.003165,-1.488492,0.000523,0.113596,-0.001785,0.132307,0.003165,-0.991204,-0.017072,-0.003425,-0.003242,6.709135,-0.275576,24.699364,,,,,,
1465846143.39,0.133549,-0.003180,-1.488513,0.004777,0.109345,-0.001754,0.133152,0.003180,-0.991091,-0.014378,0.001871,-0.005812,6.672983,-0.273598,24.709179,,,,,,
1465846143.40,0.134526,-0.003121,-1.488548,-0.000536,0.115720,-0.002864,0.134120,0.003121,-0.990960,-0.010341,-0.003274,-0.003760,6.672983,-0.273598,24.709179,,,,,,
1465846143.41,0.135394,-0.003104,-1.488568,0.002641,0.104034,-0.001723,0.134980,0.003104,-0.990843,-0.011598,-0.000220,-0.006700,6.672983,-0.273598,24.709179,,,,,,
1465846143.42,0.136266,-0.003053,-1.488579,-0.001623,0.100847,-0.000643,0.135844,0.003053,-0.990725,-0.008052,-0.003282,-0.008512,6.585452,-0.269826,24.732693,,,,,,
1465846143.43,0.136941,-0.002952,-1.488607,-0.000568,0.089171,-0.002697,0.136512,0.002952,-0.990634,-0.007759,-0.001960,-0.010312,6.585452,-0.269826,24.732693,,,,,,
1465846143.44,0.137663,-0.002879,-1.488628,0.000486,0.080675,-0.002643,0.137228,0.002879,-0.990535,-0.005423,-0.004389,-0.006108,6.585452,-0.269826,24.732693,,,,,,
1465846143.45,0.138366,-0.002872,-1.488645,-0.000587,0.077484,-0.000495,0.137924,0.002872,-0.990439,-0.002396,0.000073,-0.006922,6.547208,-0.265859,24.742887,,,,,,
1465846143.46,0.139016,-0.002855,-1.488662,0.001534,0.068991,-0.001504,0.138568,0.002855,-0.990349,-0.001163,-0.000215,-0.006584,6.547208,-0.265859,24.742887,,,,,,
1465846143.47,0.139530,-0.002811,-1.488666,0.000447,0.054120,0.000717,0.139078,0.002811,-0.990278,-0.002496,-0.002292,-0.008792,6.547208,-0.265859,24.742887,,,,,,
1465846143.48,0.139946,-0.002802,-1.488675,0.002561,0.038198,-0.001310,0.139489,0.002802,-0.990220,-0.001183,-0.000269,-0.007766,6.483112,-0.261938,24.759800,,,,,,
1465846143.49,0.140188,-0.002780,-1.488690,0.002541,0.022271,-0.001210,0.139729,0.002780,-0.990186,-0.000554,-0.000506,-0.008639,6.483112,-0.261938,24.759800,,,,,,
1465846143.50,0.140211,-0.002752,-1.488707,0.006772,-0.000030,-0.001066,0.139752,0.002752,-0.990183,-0.001827,0.000727,-0.008413,6.483112,-0.261938,24.759800,,,,,,
1465846143.51,0.140109,-0.002698,-1.488710,0.003570,-0.006399,-0.001029,0.139650,0.002698,-0.990197,-0.003206,-0.001661,-0.006263,6.466824,-0.260985,24.764069,,,,,,
1465846143.52,0.139943,-0.002681,-1.488723,0.002329,-0.009543,-0.002054,0.139486,0.002681,-0.990220,-0.004736,-0.000010,-0.006529,6.466824,-0.260985,24.764069,,,,,,
1465846143.53,0.139744,-0.002642,-1.488725,0.002327,-0.007426,0.000062,0.139289,0.002642,-0.990248,-0.005195,-0.001177,-0.006029,6.466824,-0.260985,24.764069,,,,,,
1465846143.54,0.139607,-0.002553,-1.488730,0.004463,-0.004239,-0.001021,0.139153,0.002553,-0.990268,-0.004052,-0.002904,-0.003949,6.477831,-0.257377,24.761230,,,,,,
1465846143.55,0.139527,-0.002527,-1.488738,0.002334,-0.002118,0.000028,0.139075,0.002527,-0.990279,-0.002936,-0.000437,-0.007951,6.477831,-0.257377,24.761230,,,,,,
1465846143.56,0.139309,-0.002471,-1.488746,0.002317,-0.018042,-0.000936,0.138858,0.002471,-0.990309,-0.003436,-0.001982,-0.008852,6.477831,-0.257377,24.761230,,,,,,
1465846143.57,0.138963,-0.002450,-1.488748,0.003369,-0.024420,0.001234,0.138515,0.002450,-0.990357,-0.005977,0.000450,-0.003768,6.477831,-0.257377,24.761230,,,,,,
1465846143.58,0.138678,-0.002412,-1.488741,0.004438,-0.021236,0.001215,0.138233,0.002412,-0.990397,-0.003742,-0.000398,-0.005178,6.497174,-0.252603,24.756212,,,,,,
1465846143.59,0.138494,-0.002349,-1.488743,0.002316,-0.016985,0.000122,0.138051,0.002349,-0.990422,0.000651,-0.001998,-0.007792,6.497174,-0.252603,24.756212,,,,,,
1465846143.60,0.138164,-0.002288,-1.488741,0.004416,-0.041407,0.000277,0.137724,0.002288,-0.990468,0.002397,-0.001205,-0.009379,6.508769,-0.250285,24.753189,,,,,,
1465846143.61,0.137664,-0.002221,-1.488754,0.004399,-0.056269,-0.000694,0.137230,0.002221,-0.990537,0.002617,-0.001412,-0.007831,6.508769,-0.250285,24.753189,,,,,,
1465846143.62,0.136997,-0.002109,-1.488758,0.006508,-0.071139,0.000465,0.136569,0.002109,-0.990628,0.001706,-0.003009,-0.008975,6.508769,-0.250285,24.753189,,,,,,
1465846143.63,0.136270,-0.002043,-1.488749,0.004372,-0.075388,0.001554,0.135848,0.002043,-0.990728,0.001298,-0.001143,-0.009044,6.529299,-0.247145,24.747812,,,,,,
1465846143.64,0.135333,-0.001979,-1.488750,0.005418,-0.093433,-0.000460,0.134920,0.001979,-0.990855,-0.000963,-0.000865,-0.008947,6.529299,-0.247145,24.747812,,,,,,
1465846143.65,0.134288,-0.001917,-1.488748,0.003277,-0.102989,-0.000403,0.133884,0.001917,-0.990995,-0.001270,-0.001627,-0.004793,6.529299,-0.247145,24.747812,,,,,,
1465846143.66,0.133049,-0.001857,-1.488748,0.006468,-0.104056,0.000672,0.132656,0.001857,-0.991160,-0.010952,-0.000606,-0.009313,6.612810,-0.240027,24.725700,,,,,,
1465846143.67,0.132003,-0.001785,-1.488749,0.004369,-0.081755,-0.000535,0.131620,0.001785,-0.991299,-0.008665,-0.001297,0.002926,6.612810,-0.240027,24.725700,,,,,,
1465846143.68,0.131066,-0.001789,-1.488759,0.002278,-0.050965,-0.000730,0.130691,0.001789,-0.991422,-0.020355,0.001476,0.001508,6.612810,-0.240027,24.725700,,,,,,
1465846143.69,0.130558,-0.001742,-1.488772,0.002325,-0.014862,-0.002021,0.130188,0.001742,-0.991488,-0.015808,-0.001467,0.000536,6.669275,-0.236899,24.710558,,,,,,
1465846143.70,0.130584,-0.001715,-1.488769,0.002368,0.024415,0.000926,0.130213,0.001715,-0.991485,-0.009516,-0.001105,-0.000138,6.669275,-0.236899,24.710558,,,,,,
1465846143.71,0.130768,-0.001721,-1.488779,0.001316,0.030791,-0.001243,0.130395,0.001721,-0.991461,-0.007455,0.001682,-0.005335,6.669275,-0.236899,24.710558,,,,,,
1465846143.72,0.130870,-0.001620,-1.488790,0.004494,0.018047,-0.001160,0.130496,0.001620,-0.991448,-0.005313,-0.003969,-0.007896,6.699803,-0.235082,24.702316,,,,,,
1465846143.73,0.130997,-0.001621,-1.488815,0.000253,0.031852,-0.001251,0.130623,0.001621,-0.991431,-0.009956,0.000393,-0.004312,6.699803,-0.235082,24.702316,,,,,,
1465846143.74,0.131377,-0.001560,-1.488827,0.004549,0.061579,-0.001433,0.130999,0.001560,-0.991381,-0.010211,-0.001956,0.003024,6.699803,-0.235082,24.702316,,,,,,
1465846143.75,0.131989,-0.001534,-1.488843,-0.001796,0.097679,-0.000602,0.131606,0.001534,-0.991301,-0.016478,-0.001748,0.006026,6.694141,-0.232390,24.703876,,,,,,
1465846143.76,0.132996,-0.001532,-1.488866,-0.001739,0.141213,-0.001939,0.132604,0.001532,-0.991168,-0.019750,-0.001059,0.006411,6.694141,-0.232390,24.703876,,,,,,
1465846143.77,0.134468,-0.001532,-1.488897,-0.000605,0.194304,-0.003335,0.134063,0.001532,-0.990972,-0.021926,-0.000952,0.008641,6.694141,-0.232390,24.703876,,,,,,
1465846143.78,0.136540,-0.001574,-1.488950,-0.004788,0.251647,-0.005828,0.136116,0.001574,-0.990692,-0.020515,0.000105,0.008987,6.608366,-0.229453,24.726986,,,,,,
1465846143.79,0.139160,-0.001600,-1.488990,-0.003657,0.305793,-0.005102,0.138711,0.001600,-0.990332,-0.020700,-0.001020,0.008367,6.608366,-0.229453,24.726986,,,,,,
1465846143.80,0.142406,-0.001730,-1.489041,-0.005727,0.353574,-0.005404,0.141925,0.001730,-0.989876,-0.013614,0.004084,0.006279,6.608366,-0.229453,24.726986,,,,,,
1465846143.81,0.146030,-0.001819,-1.489100,-0.004637,0.372688,-0.006587,0.145512,0.001819,-0.989355,-0.006458,0.002240,0.002310,6.492295,-0.230146,24.757710,,,,,,
1465846143.82,0.149808,-0.001854,-1.489148,-0.004631,0.379056,-0.005563,0.149248,0.001854,-0.988798,-0.001528,-0.001137,0.000502,6.492295,-0.230146,24.757710,,,,,,
1465846143.83,0.153694,-0.001878,-1.489191,-0.004626,0.384363,-0.004531,0.153089,0.001878,-0.988211,0.001604,-0.001771,-0.006754,6.492295,-0.230146,24.757710,,,,,,
1465846143.84,0.157662,-0.001895,-1.489247,-0.006754,0.380127,-0.007700,0.157009,0.001895,-0.987595,0.009403,-0.003345,-0.010726,6.131853,-0.234734,24.849392,,,,,,
1465846143.85,0.161508,-0.001969,-1.489295,-0.007843,0.364195,-0.005473,0.160806,0.001969,-0.986984,0.009940,-0.000504,-0.009644,6.131853,-0.234734,24.849392,,,,,,
1465846143.86,0.165292,-0.001983,-1.489343,-0.005733,0.346148,-0.006422,0.164540,0.001983,-0.986368,0.016749,-0.003158,-0.011144,6.131853,-0.234734,24.849392,,,,,,
1465846143.87,0.168478,-0.002059,-1.489383,-0.004719,0.307920,-0.005116,0.167682,0.002059,-0.985839,0.017468,0.001542,-0.012666,5.937519,-0.235864,24.896532,,,,,,
1465846143.88,0.171261,-0.002115,-1.489424,-0.005834,0.267572,-0.004865,0.170424,0.002115,-0.985369,0.020128,0.003363,-0.011046,5.937519,-0.235864,24.896532,,,,,,
1465846143.89,0.173607,-0.002148,-1.489460,-0.001628,0.225098,-0.004594,0.172736,0.002148,-0.984966,0.016793,0.000888,-0.014576,5.937519,-0.235864,24.896532,,,,,,
1465846143.90,0.175908,-0.002175,-1.489492,-0.002722,0.201741,-0.004449,0.175002,0.002175,-0.984566,0.014238,-0.000665,-0.009773,5.635888,-0.238468,24.966516,,,,,,
1465846143.91,0.177814,-0.002204,-1.489526,-0.001678,0.186872,-0.003290,0.176878,0.002204,-0.984230,0.010683,-0.000159,-0.007560,5.635888,-0.238468,24.966516,,,,,,
1465846143.92,0.179667,-0.002227,-1.489561,-0.001679,0.184751,-0.004341,0.178702,0.002227,-0.983901,0.009424,0.001283,-0.004899,5.635888,-0.238468,24.966516,,,,,,
1465846143.93,0.181451,-0.002250,-1.489595,-0.001691,0.175195,-0.004281,0.180457,0.002250,-0.983580,0.013132,-0.002021,-0.009019,5.530829,-0.239118,24.989996,,,,,,
1465846143.94,0.183060,-0.002279,-1.489627,-0.001716,0.155021,-0.004155,0.182039,0.002279,-0.983289,0.016356,-0.001760,-0.009875,5.530829,-0.239118,24.989996,,,,,,
1465846143.95,0.184403,-0.002295,-1.489649,-0.000691,0.126346,-0.001845,0.183360,0.002295,-0.983043,0.016882,-0.001242,-0.013386,5.530829,-0.239118,24.989996,,,,,,
1465846143.96,0.185497,-0.002317,-1.489668,-0.001782,0.104052,-0.002771,0.184435,0.002317,-0.982842,0.015349,-0.000410,-0.011787,5.366068,-0.240079,25.025881,,,,,,
1465846143.97,0.186394,-0.002350,-1.489689,-0.001804,0.086001,-0.002657,0.185316,0.002350,-0.982676,0.014391,-0.000443,-0.009603,5.366068,-0.240079,25.025881,,,,,,
1465846143.98,0.187316,-0.002367,-1.489711,-0.001823,0.071137,-0.002564,0.186222,0.002367,-0.982505,0.010616,-0.000002,-0.007760,5.366068,-0.240079,25.025881,,,,,,
1465846143.99,0.188134,-0.002457,-1.489733,-0.001832,0.062647,-0.003575,0.187026,0.002457,-0.982352,0.009187,0.003677,-0.003579,5.316238,-0.240977,25.036505,,,,,,
1465846144.00,0.188856,-0.002510,-1.489756,0.000290,0.058397,-0.002482,0.187735,0.002510,-0.982217,0.007379,0.002113,-0.003974,5.316238,-0.240977,25.036505,,,,,,
1465846144.01,0.189547,-0.002541,-1.489774,0.000303,0.069015,-0.002549,0.188414,0.002541,-0.982086,0.001848,0.000999,-0.001053,5.316238,-0.240977,25.036505,,,,,,
1465846144.02,0.190358,-0.002608,-1.489790,-0.001801,0.091311,-0.001626,0.189210,0.002608,-0.981933,-0.002732,0.002016,0.002609,5.237298,-0.244643,25.053102,,,,,,
1465846144.03,0.191444,-0.002668,-1.489816,-0.001739,0.139093,-0.002990,0.190276,0.002668,-0.981727,-0.011489,0.001864,0.009544,5.237298,-0.244643,25.053102,,,,,,
1465846144.04,0.193057,-0.002733,-1.489850,-0.002711,0.211297,-0.004509,0.191860,0.002733,-0.981419,-0.019786,0.001798,0.014957,5.237298,-0.244643,25.053102,,,,,,
1465846144.05,0.195477,-0.002794,-1.489885,-0.002596,0.304730,-0.004030,0.194234,0.002794,-0.980951,-0.025411,0.001570,0.019205,5.189775,-0.247222,25.062965,,,,,,
1465846144.06,0.198923,-0.002879,-1.489936,-0.005666,0.399239,-0.007819,0.197613,0.002879,-0.980276,-0.023388,0.001103,0.019674,5.189775,-0.247222,25.062965,,,,,,
1465846144.07,0.203232,-0.002976,-1.489998,-0.007703,0.474623,-0.007230,0.201835,0.002976,-0.979415,-0.020255,0.000808,0.014449,5.189775,-0.247222,25.062965,,,,,,
1465846144.08,0.208214,-0.003107,-1.490059,-0.009759,0.533022,-0.007598,0.206712,0.003107,-0.978397,-0.017899,0.001303,0.013584,4.894048,-0.252708,25.122330,,,,,,
1465846144.09,0.213903,-0.003214,-1.490127,-0.010732,0.604165,-0.009110,0.212275,0.003214,-0.977205,-0.018732,-0.000574,0.015245,4.894048,-0.252708,25.122330,,,,,,
1465846144.10,0.220400,-0.003365,-1.490194,-0.011709,0.674244,-0.009550,0.218619,0.003365,-0.975805,-0.013251,0.001289,0.009801,4.894048,-0.252708,25.122330,,,,,,
1465846144.11,0.227295,-0.003476,-1.490273,-0.010614,0.696544,-0.010753,0.225341,0.003476,-0.974274,-0.007156,-0.001889,-0.004288,4.625716,-0.257054,25.173077,,,,,,
1465846144.12,0.233957,-0.003622,-1.490344,-0.011745,0.645575,-0.009370,0.231827,0.003622,-0.972750,0.006439,0.001261,-0.013639,4.625716,-0.257054,25.173077,,,,,,
1465846144.13,0.239843,-0.003743,-1.490403,-0.008661,0.557445,-0.008815,0.237548,0.003743,-0.971369,0.012833,0.000835,-0.021460,4.625716,-0.257054,25.173077,,,,,,
1465846144.14,0.244823,-0.003845,-1.490475,-0.007693,0.478874,-0.009385,0.242383,0.003845,-0.970173,0.017337,-0.000107,-0.021816,3.971329,-0.266827,25.284472,,,,,,
1465846144.15,0.249188,-0.003930,-1.490537,-0.006697,0.425780,-0.007987,0.246615,0.003930,-0.969105,0.009977,-0.000817,-0.018001,3.971329,-0.266827,25.284472,,,,,,
1465846144.16,0.253266,-0.004012,-1.490586,-0.005662,0.403479,-0.006782,0.250565,0.004012,-0.968091,0.001052,-0.000930,-0.011401,3.971329,-0.266827,25.284472,,,,,,
1465846144.17,0.257208,-0.004068,-1.490639,-0.007773,0.416223,-0.007928,0.254380,0.004068,-0.967096,-0.009858,-0.001902,-0.002264,3.734904,-0.269917,25.320440,,,,,,
1465846144.18,0.261690,-0.004159,-1.490699,-0.007717,0.460819,-0.008208,0.258711,0.004159,-0.965946,-0.022749,0.001517,0.007145,3.734904,-0.269917,25.320440,,,,,,
1465846144.19,0.266761,-0.004267,-1.490763,-0.009768,0.523467,-0.008603,0.263606,0.004267,-0.964621,-0.026942,-0.001261,0.009802,3.734904,-0.269917,25.320440,,,,,,
1465846144.20,0.272474,-0.004398,-1.490814,-0.011824,0.581867,-0.008971,0.269112,0.004398,-0.963099,-0.023400,-0.000095,0.006800,3.289464,-0.275644,25.382090,,,,,,
1465846144.21,0.278432,-0.004529,-1.490882,-0.011804,0.596735,-0.010129,0.274845,0.004529,-0.961478,-0.012730,0.001590,-0.002588,3.289464,-0.275644,25.382090,,,,,,
1465846144.22,0.284230,-0.004648,-1.490946,-0.009710,0.571245,-0.007838,0.280415,0.004648,-0.959867,0.001796,0.002508,-0.006197,3.289464,-0.275644,25.382090,,,,,,
1465846144.23,0.289657,-0.004743,-1.491015,-0.006562,0.530901,-0.009711,0.285620,0.004743,-0.958331,0.006876,0.002444,-0.012051,2.993051,-0.280665,25.418694,,,,,,
1465846144.24,0.294632,-0.004805,-1.491084,-0.005552,0.490546,-0.007328,0.290384,0.004805,-0.956898,0.008612,0.000917,-0.012340,2.993051,-0.280665,25.418694,,,,,,
1465846144.25,0.299368,-0.004886,-1.491140,-0.006642,0.469313,-0.008260,0.294913,0.004886,-0.955512,0.007623,0.001248,-0.008829,2.993051,-0.280665,25.418694,,,,,,
1465846144.26,0.303955,-0.004970,-1.491206,-0.005592,0.455512,-0.009237,0.299293,0.004970,-0.954148,0.004357,-0.000179,-0.006118,2.460330,-0.286540,25.475710,,,,,,
1465846144.27,0.308564,-0.005048,-1.491250,-0.007719,0.462937,-0.006092,0.303687,0.005048,-0.952758,0.000680,-0.000883,-0.004074,2.460330,-0.286540,25.475710,,,,,,
1465846144.28,0.313253,-0.005134,-1.491298,-0.006644,0.470369,-0.006138,0.308151,0.005134,-0.951324,-0.001693,0.000985,-0.002488,2.460330,-0.286540,25.475710,,,,,,
1465846144.29,0.317989,-0.005221,-1.491351,-0.006638,0.473558,-0.007222,0.312653,0.005221,-0.949853,0.005905,-0.000323,-0.005759,2.225975,-0.289301,25.497223,,,,,,
1465846144.30,0.322540,-0.005311,-1.491396,-0.006673,0.445951,-0.007049,0.316972,0.005311,-0.948420,0.011382,-0.000780,-0.016836,2.225975,-0.289301,25.497223,,,,,,
1465846144.31,0.326612,-0.005392,-1.491441,-0.006738,0.393923,-0.006723,0.320831,0.005392,-0.947121,0.020477,-0.000936,-0.017952,2.225975,-0.289301,25.497223,,,,,,
1465846144.32,0.330042,-0.005463,-1.491490,-0.004691,0.328090,-0.006308,0.324078,0.005463,-0.946015,0.018741,0.002807,-0.017273,1.765531,-0.295530,25.533167,,,,,,
1465846144.33,0.332973,-0.005510,-1.491527,-0.002620,0.283490,-0.004962,0.326849,0.005510,-0.945060,0.016931,0.001525,-0.015053,1.765531,-0.295530,25.533167,,,,,,
1465846144.34,0.335628,-0.005544,-1.491561,-0.001583,0.261192,-0.004821,0.329357,0.005544,-0.944189,0.012089,0.002910,-0.010553,1.765531,-0.295530,25.533167,,,,,,
1465846144.35,0.338134,-0.005564,-1.491587,-0.000540,0.247382,-0.002604,0.331722,0.005564,-0.943361,0.009480,0.001104,-0.006438,1.603107,-0.297460,25.543858,,,,,,
1465846144.36,0.340518,-0.005581,-1.491619,-0.000552,0.235705,-0.003595,0.333970,0.005581,-0.942567,0.007827,0.000339,-0.007689,1.603107,-0.297460,25.543858,,,,,,
1465846144.37,0.342763,-0.005620,-1.491649,-0.002697,0.221906,-0.004576,0.336086,0.005620,-0.941815,0.007725,-0.000280,-0.007740,1.603107,-0.297460,25.543858,,,,,,
1465846144.38,0.344866,-0.005644,-1.491682,-0.001654,0.205975,-0.003410,0.338065,0.005644,-0.941106,0.011178,0.000093,-0.007548,1.352973,-0.298877,25.558310,,,,,,
1465846144.39,0.347050,-0.005666,-1.491722,-0.001672,0.190053,-0.004375,0.340119,0.005666,-0.940365,0.011168,-0.000371,-0.008838,1.352973,-0.298877,25.558310,,,,,,
1465846144.40,0.348796,-0.005696,-1.491739,-0.001700,0.168814,-0.003177,0.341761,0.005696,-0.939770,0.008031,-0.000081,-0.007267,1.352973,-0.298877,25.558310,,,,,,
1465846144.41,0.350405,-0.005721,-1.491758,-0.001714,0.159255,-0.002053,0.343273,0.005721,-0.939218,0.006413,0.001710,-0.007193,1.243427,-0.299241,25.563869,,,,,,
1465846144.42,0.352110,-0.005749,-1.491781,-0.002774,0.161383,-0.003132,0.344874,0.005749,-0.938632,0.003271,0.000034,-0.002195,1.243427,-0.299241,25.563869,,,,,,
1465846144.43,0.353837,-0.005799,-1.491811,-0.001699,0.169877,-0.003184,0.346494,0.005799,-0.938034,0.001635,0.001021,-0.001861,1.243427,-0.299241,25.563869,,,,,,
1465846144.44,0.355646,-0.005833,-1.491844,-0.000622,0.179433,-0.003243,0.348190,0.005833,-0.937406,0.001480,0.000606,-0.004413,1.069905,-0.301503,25.571692,,,,,,
1465846144.45,0.357561,-0.005917,-1.491876,-0.001683,0.181561,-0.004322,0.349984,0.005917,-0.936737,0.003288,0.001911,-0.002686,1.069905,-0.301503,25.571692,,,,,,
1465846144.46,0.359457,-0.005985,-1.491911,0.000439,0.175190,-0.004280,0.351760,0.005985,-0.936071,0.004777,0.001721,-0.003428,1.069905,-0.301503,25.571692,,,,,,
1465846144.47,0.361257,-0.006064,-1.491933,-0.003836,0.166693,-0.002102,0.353444,0.006064,-0.935436,0.005702,0.001962,-0.005528,0.974712,-0.303637,25.575472,,,,,,
1465846144.48,0.363035,-0.006193,-1.491938,-0.004902,0.165632,-0.002096,0.355106,0.006193,-0.934806,0.005719,0.003618,-0.003595,0.974712,-0.303637,25.575472,,,,,,
1465846144.49,0.364721,-0.006231,-1.491965,0.000407,0.152892,-0.003076,0.356681,0.006231,-0.934205,0.006371,0.001094,-0.004927,0.974712,-0.303637,25.575472,,,,,,
1465846144.50,0.366351,-0.006262,-1.491987,-0.001719,0.155017,-0.003091,0.358204,0.006262,-0.933622,0.003460,0.000178,-0.004457,0.791612,-0.310168,25.581717,,,,,,
1465846144.51,0.367981,-0.006267,-1.492009,0.000391,0.141211,-0.001938,0.359726,0.006267,-0.933037,0.008499,-0.000179,-0.005562,0.791612,-0.310168,25.581717,,,,,,
1465846144.52,0.369451,-0.006258,-1.492024,0.000363,0.118915,-0.001798,0.361096,0.006258,-0.932507,0.012393,-0.000658,-0.009051,0.791612,-0.310168,25.581717,,,,,,
1465846144.53,0.370668,-0.006253,-1.492034,-0.001955,0.094426,-0.001627,0.362231,0.006253,-0.932067,0.013120,-0.001019,-0.011445,0.708200,-0.310590,25.584158,,,,,,
1465846144.54,0.371540,-0.006270,-1.492048,-0.001994,0.061514,-0.002485,0.363044,0.006270,-0.931751,0.013986,0.000124,-0.012448,0.708200,-0.310590,25.584158,,,,,,
1465846144.55,0.372170,-0.006327,-1.492056,-0.003085,0.042401,-0.001301,0.363630,0.006327,-0.931522,0.011980,0.001486,-0.009549,0.708200,-0.310590,25.584158,,,,,,
1465846144.56,0.372584,-0.006336,-1.492067,-0.004156,0.037093,-0.001269,0.364016,0.006336,-0.931371,0.005491,-0.000462,-0.004939,0.601054,-0.311537,25.586885,,,,,,
1465846144.57,0.373060,-0.006401,-1.492096,-0.000937,0.054086,-0.003501,0.364459,0.006401,-0.931197,-0.002002,0.001915,0.002380,0.601054,-0.311537,25.586885,,,,,,
1465846144.58,0.373730,-0.006460,-1.492125,0.000166,0.084877,-0.003694,0.365083,0.006460,-0.930953,-0.008134,0.001414,0.003493,0.601054,-0.311537,25.586885,,,,,,
1465846144.59,0.374779,-0.006530,-1.492143,-0.002989,0.117791,-0.002839,0.366059,0.006530,-0.930569,-0.005616,0.001634,0.003002,0.578283,-0.312898,25.587395,,,,,,
1465846144.60,0.376128,-0.006633,-1.492166,-0.002962,0.137968,-0.004030,0.367313,0.006633,-0.930074,-0.001911,0.003132,0.002644,0.578283,-0.312898,25.587395,,,,,,
1465846144.61,0.377607,-0.006707,-1.492184,-0.001901,0.136904,-0.002958,0.368689,0.006707,-0.929529,0.003290,0.001899,-0.000617,0.578283,-0.312898,25.587395,,,,,,
1465846144.62,0.378962,-0.006765,-1.492207,0.000203,0.114609,-0.003880,0.369947,0.006765,-0.929028,0.008135,0.001932,-0.005741,0.461972,-0.319267,25.589680,,,,,,
1465846144.63,0.380140,-0.006849,-1.492229,-0.000893,0.092310,-0.002677,0.371042,0.006849,-0.928591,0.012335,0.003481,-0.008482,0.461972,-0.319267,25.589680,,,,,,
1465846144.64,0.381101,-0.006932,-1.492244,-0.000918,0.074257,-0.001500,0.371934,0.006932,-0.928233,0.010467,0.003292,-0.005315,0.461972,-0.319267,25.589680,,,,,,
1465846144.65,0.381900,-0.007001,-1.492258,0.000122,0.056204,-0.000321,0.372675,0.007001,-0.927935,0.011129,0.003527,-0.004514,0.397179,-0.322163,25.590733,,,,,,
1465846144.66,0.382541,-0.007047,-1.492266,0.001185,0.055143,-0.000313,0.373270,0.007047,-0.927696,0.005637,0.002169,-0.003044,0.397179,-0.322163,25.590733,,,,,,
1465846144.67,0.383215,-0.007089,-1.492276,0.001189,0.058329,-0.000333,0.373895,0.007089,-0.927444,0.006858,0.002280,-0.005814,0.397179,-0.322163,25.590733,,,,,,
1465846144.68,0.383847,-0.007095,-1.492289,0.002249,0.053023,-0.001364,0.374481,0.007095,-0.927207,0.005035,0.000992,-0.002541,0.318521,-0.327373,25.591764,,,,,,
1465846144.70,0.385278,-0.007108,-1.492325,0.000155,0.079572,-0.002597,0.375808,0.007108,-0.926670,0.001680,-0.001386,0.000447,0.318521,-0.327373,25.591764,,,,,,
1465846144.69,0.384475,-0.007124,-1.492307,0.000133,0.062583,-0.002490,0.375063,0.007124,-0.926972,0.002424,0.001162,-0.003753,0.318521,-0.327373,25.591764,,,,,,
1465846144.71,0.386275,-0.007090,-1.492354,0.001245,0.099747,-0.002722,0.376731,0.007090,-0.926296,0.001229,-0.000834,0.001460,0.286278,-0.327888,25.592140,,,,,,
1465846144.72,0.387423,-0.007108,-1.492376,-0.000868,0.112490,-0.002804,0.377794,0.007108,-0.925862,0.000379,-0.000043,0.002110,0.286278,-0.327888,25.592140,,,,,,
1465846144.73,0.388656,-0.007172,-1.492387,-0.000864,0.119917,-0.000722,0.378935,0.007172,-0.925395,0.000017,0.002197,0.001277,0.286278,-0.327888,25.592140,,,,,,
1465846144.74,0.389917,-0.007247,-1.492410,-0.000864,0.116738,-0.002831,0.380102,0.007247,-0.924916,0.003825,0.002930,-0.002726,0.179296,-0.328230,25.593107,,,,,,
1465846144.75,0.391133,-0.007317,-1.492429,-0.001942,0.104000,-0.003817,0.381226,0.007316,-0.924453,0.008636,0.002403,-0.004899,0.179296,-0.328230,25.593107,,,,,,
1465846144.76,0.392162,-0.007392,-1.492452,0.001218,0.079576,-0.002596,0.382177,0.007392,-0.924060,0.011454,0.004204,-0.006116,0.179296,-0.328230,25.593107,,,,,,
1465846144.77,0.393012,-0.007444,-1.492462,0.000131,0.063647,-0.001433,0.382962,0.007444,-0.923734,0.011096,0.002291,-0.004534,0.115919,-0.331239,25.593433,,,,,,
1465846144.78,0.393718,-0.007448,-1.492490,0.003316,0.054094,-0.002434,0.383614,0.007448,-0.923464,0.010246,0.001280,-0.006483,0.115919,-0.331239,25.593433,,,,,,
1465846144.79,0.394372,-0.007440,-1.492508,0.002245,0.053027,-0.000300,0.384218,0.007440,-0.923213,0.008070,0.000159,-0.002401,0.115919,-0.331239,25.593433,,,,,,
1465846144.80,0.395011,-0.007458,-1.492526,0.002245,0.050908,-0.001351,0.384808,0.007458,-0.922966,0.007892,0.001560,-0.003120,6.618357,-1.659260,32.317627,,,,,,
1465846144.81,0.395596,-0.007458,-1.492534,0.001175,0.048782,-0.000274,0.385347,0.007458,-0.922741,0.006407,0.000858,-0.003375,6.618357,-1.659260,32.317627,,,,,,
1465846144.82,0.396182,-0.007440,-1.492542,0.002236,0.045597,-0.000253,0.385888,0.007440,-0.922516,0.007621,-0.000101,-0.003723,6.618357,-1.659260,32.317627,,,,,,
1465846144.83,0.396721,-0.007468,-1.492557,0.003294,0.040288,-0.000219,0.386385,0.007467,-0.922307,0.007826,0.002451,-0.002482,6.578846,-1.659267,32.325691,,,,,,
1465846144.84,0.397215,-0.007470,-1.492567,0.001167,0.042414,-0.000234,0.386841,0.007470,-0.922116,0.005829,0.001243,-0.003772,6.578846,-1.659267,32.325691,,,,,,
1465846144.85,0.397790,-0.007443,-1.492574,0.002246,0.051973,-0.001358,0.387371,0.007443,-0.921894,0.004460,-0.000882,-0.001400,6.578846,-1.659267,32.325691,,,,,,
1465846144.86,0.398470,-0.007459,-1.492588,0.001196,0.063654,-0.001432,0.387998,0.007459,-0.921630,0.004229,0.001589,-0.001145,6.507955,-1.658122,32.340099,,,,,,
1465846144.87,0.399282,-0.007491,-1.492611,0.001213,0.077458,-0.001519,0.388746,0.007491,-0.921315,0.002215,0.001878,0.002400,6.507955,-1.658122,32.340099,,,,,,
1465846144.88,0.400193,-0.007503,-1.492628,0.000165,0.091262,-0.001606,0.389585,0.007503,-0.920960,0.000597,0.000630,0.001297,6.507955,-1.658122,32.340099,,,,,,
1465846144.89,0.401217,-0.007510,-1.492641,0.000177,0.100818,-0.001666,0.390528,0.007510,-0.920561,0.002005,0.000516,-0.001437,6.459766,-1.658750,32.349728,,,,,,
1465846144.91,0.403585,-0.007570,-1.492675,0.001241,0.098700,-0.002716,0.392707,0.007570,-0.919633,0.007470,0.000288,-0.001861,6.459766,-1.658750,32.349728,,,,,,
1465846144.90,0.402311,-0.007548,-1.492654,-0.000886,0.101881,-0.001674,0.391535,0.007548,-0.920132,0.003760,0.001531,-0.000262,6.459766,-1.658750,32.349728,,,,,,
1465846144.92,0.404643,-0.007566,-1.492689,0.001236,0.097633,-0.000581,0.393679,0.007566,-0.919217,0.005994,0.000216,-0.002964,6.320636,-1.659719,32.377148,,,,,,
1465846144.93,0.405761,-0.007573,-1.492711,0.000179,0.100825,-0.002731,0.394707,0.007573,-0.918776,0.007454,0.000285,-0.001650,6.320636,-1.659719,32.377148,,,,,,
1465846144.94,0.406934,-0.007576,-1.492729,-0.000882,0.105071,-0.001694,0.395784,0.007576,-0.918312,0.008131,-0.000451,-0.000816,6.250208,-1.659121,32.390846,,,,,,
1465846144.95,0.408110,-0.007583,-1.492748,0.000188,0.109319,-0.001719,0.396864,0.007583,-0.917846,0.005785,-0.000274,-0.001587,6.250208,-1.659121,32.390846,,,,,,
1465846144.96,0.409388,-0.007621,-1.492765,-0.000861,0.119941,-0.002852,0.398036,0.007620,-0.917338,0.005299,0.001138,0.000224,6.250208,-1.659121,32.390846,,,,,,
1465846144.97,0.410721,-0.007673,-1.492785,-0.000852,0.129494,-0.001847,0.399258,0.007672,-0.916806,0.003177,0.001559,0.000074,6.250208,-1.659121,32.390846,,,,,,
1465846144.98,0.412131,-0.007729,-1.492809,-0.001902,0.139055,-0.002973,0.400551,0.007729,-0.916242,0.002312,0.001411,0.000150,6.089657,-1.660469,32.421349,,,,,,
1465846144.99,0.413628,-0.007809,-1.492829,-0.001889,0.149673,-0.003039,0.401922,0.007809,-0.915641,0.000529,0.002811,0.000739,6.089657,-1.660469,32.421349,,,,,,
1465846145.00,0.415312,-0.007852,-1.492854,-0.001870,0.163480,-0.004190,0.403463,0.007852,-0.914962,0.003947,0.000617,0.000961,6.089657,-1.660469,32.421349,,,,,,
1465846145.01,0.417143,-0.007899,-1.492882,-0.000791,0.176219,-0.003205,0.405137,0.007899,-0.914222,0.004729,0.001104,0.000373,5.995505,-1.663385,32.438740,,,,,,
1465846145.02,0.419148,-0.007944,-1.492920,-0.000777,0.185779,-0.004329,0.406969,0.007944,-0.913407,0.009153,0.000799,-0.000152,5.995505,-1.663385,32.438740,,,,,,
1465846145.03,0.421129,-0.007974,-1.492952,-0.001851,0.178348,-0.004284,0.408778,0.007974,-0.912599,0.010351,0.000067,-0.001601,5.881590,-1.664850,32.459515,,,,,,
1465846145.04,0.423005,-0.008024,-1.492979,-0.000801,0.168790,-0.003158,0.410489,0.008024,-0.911830,0.010760,0.001329,-0.002812,5.881590,-1.664850,32.459515,,,,,,
1465846145.05,0.424759,-0.008053,-1.493005,0.000253,0.158175,-0.004155,0.412088,0.008053,-0.911108,0.009726,0.000797,-0.001794,5.881590,-1.664850,32.459515,,,,,,
1465846145.06,0.426447,-0.008073,-1.493038,-0.000813,0.159235,-0.003098,0.413626,0.008073,-0.910411,0.004984,0.000441,0.001659,5.634452,-1.666775,32.503227,,,,,,
1465846145.07,0.428188,-0.008089,-1.493054,-0.000798,0.173036,-0.002120,0.415209,0.008089,-0.909690,0.000944,-0.000048,0.002219,5.634452,-1.666775,32.503227,,,,,,
1465846145.08,0.430123,-0.008093,-1.493071,-0.001828,0.200643,-0.002295,0.416969,0.008093,-0.908885,-0.003029,-0.001425,0.003932,5.634452,-1.666775,32.503227,,,,,,
1465846145.09,0.432400,-0.008162,-1.493088,-0.003907,0.238872,-0.003601,0.419037,0.008162,-0.907933,-0.005783,0.000963,0.006687,5.523078,-1.666859,32.522331,,,,,,
1465846145.10,0.435115,-0.008224,-1.493111,-0.003850,0.284530,-0.003887,0.421501,0.008224,-0.906791,-0.005958,0.000352,0.009131,5.523078,-1.666859,32.522331,,,,,,
1465846145.11,0.438282,-0.008310,-1.493151,-0.002730,0.324884,-0.006268,0.424370,0.008310,-0.905451,-0.006523,0.001349,0.010492,5.523078,-1.666859,32.522331,,,,,,
1465846145.12,0.441841,-0.008379,-1.493184,-0.004812,0.363110,-0.006510,0.427589,0.008379,-0.903934,-0.003776,-0.000124,0.005360,5.194779,-1.671101,32.576164,,,,,,
1465846145.13,0.445763,-0.008479,-1.493231,-0.004770,0.394967,-0.007774,0.431131,0.008478,-0.902250,-0.000940,0.001013,0.002881,5.194779,-1.671101,32.576164,,,,,,
1465846145.14,0.449896,-0.008575,-1.493266,-0.005818,0.409830,-0.006804,0.434856,0.008574,-0.900459,0.001469,0.000764,0.001716,5.194779,-1.671101,32.576164,,,,,,
1465846145.15,0.454143,-0.008678,-1.493310,-0.006860,0.424702,-0.009027,0.438676,0.008678,-0.898603,-0.002534,-0.000117,0.004484,4.951159,-1.674216,32.613922,,,,,,
1465846145.16,0.458693,-0.008798,-1.493354,-0.007879,0.460804,-0.009255,0.442760,0.008798,-0.896597,-0.002803,0.000815,0.006140,4.951159,-1.674216,32.613922,,,,,,
1465846145.17,0.463644,-0.008968,-1.493396,-0.008901,0.496904,-0.008418,0.447193,0.008968,-0.894393,-0.000400,0.003163,0.004683,4.951159,-1.674216,32.613922,,,,,,
1465846145.18,0.468904,-0.009105,-1.493434,-0.008873,0.519202,-0.008558,0.451890,0.009105,-0.892027,0.003310,0.001332,0.003203,4.367791,-1.684496,32.696629,,,,,,
1465846145.19,0.474224,-0.009243,-1.493466,-0.008883,0.511771,-0.008511,0.456629,0.009243,-0.889609,0.011251,0.001805,-0.004144,4.367791,-1.684496,32.696629,,,,,,
1465846145.20,0.479411,-0.009353,-1.493505,-0.007843,0.491598,-0.008384,0.461236,0.009353,-0.887228,0.019400,-0.000259,-0.010782,4.367791,-1.684496,32.696629,,,,,,
1465846145.21,0.484051,-0.009470,-1.493536,-0.008957,0.452312,-0.008138,0.465348,0.009470,-0.885077,0.029235,-0.001902,-0.014917,4.021915,-1.690718,32.740654,,,,,,
1465846145.22,0.488108,-0.009582,-1.493566,-0.007971,0.389665,-0.007744,0.468934,0.009582,-0.883181,0.032470,-0.002639,-0.019071,4.021915,-1.690718,32.740654,,,,,,
1465846145.23,0.491516,-0.009693,-1.493591,-0.008054,0.323833,-0.007332,0.471941,0.009692,-0.881577,0.034712,-0.001880,-0.020767,4.021915,-1.690718,32.740654,,,,,,
1465846145.24,0.494559,-0.009745,-1.493626,-0.004954,0.248446,-0.006856,0.474621,0.009745,-0.880136,0.035236,-0.001108,-0.021658,4.021915,-1.690718,32.740654,,,,,,
1465846145.25,0.496523,-0.009825,-1.493657,-0.005044,0.176244,-0.006403,0.476349,0.009824,-0.879202,0.034394,0.000704,-0.021525,3.455691,-1.700664,32.804733,,,,,,
1465846145.26,0.497744,-0.009886,-1.493674,-0.005138,0.105097,-0.003828,0.477421,0.009886,-0.878619,0.033733,0.002474,-0.017774,3.455691,-1.700664,32.804733,,,,,,
1465846145.27,0.498312,-0.009932,-1.493683,-0.003089,0.042447,-0.002369,0.477920,0.009932,-0.878347,0.024201,0.004945,-0.012705,3.291588,-1.703057,32.821487,,,,,,
1465846145.28,0.498675,-0.010071,-1.493695,-0.001005,0.006346,-0.002140,0.478238,0.010070,-0.878172,0.017688,0.006455,-0.005861,3.291588,-1.703057,32.821487,,,,,,
1465846145.29,0.498627,-0.010063,-1.493705,0.001104,-0.006402,0.000071,0.478196,0.010063,-0.878196,0.011489,0.005348,-0.000467,3.291588,-1.703057,32.821487,,,,,,
1465846145.30,0.498568,-0.010042,-1.493722,0.002171,-0.004279,0.000058,0.478144,0.010041,-0.878224,0.007085,0.004866,-0.000194,3.291588,-1.703057,32.821487,,,,,,
1465846145.31,0.498605,-0.010030,-1.493734,0.002187,0.006342,-0.001073,0.478177,0.010029,-0.878206,0.005497,0.002834,0.003222,3.222788,-1.708677,32.828018,,,,,,
1465846145.32,0.498879,-0.010086,-1.493739,0.001137,0.020144,-0.000096,0.478417,0.010086,-0.878075,0.005103,0.003327,0.001976,3.222788,-1.708677,32.828018,,,,,,
1465846145.33,0.499160,-0.010060,-1.493761,0.003281,0.031822,-0.000167,0.478664,0.010060,-0.877941,0.006031,0.001415,0.001506,3.222788,-1.708677,32.828018,,,,,,
1465846145.34,0.499457,-0.010030,-1.493785,0.004340,0.025454,-0.001191,0.478925,0.010030,-0.877799,0.011905,0.001811,-0.002649,3.205346,-1.707561,32.829788,,,,,,
1465846145.35,0.499900,-0.009965,-1.493816,0.004330,0.016961,-0.001137,0.479314,0.009965,-0.877587,0.017131,-0.001802,-0.007514,3.205346,-1.707561,32.829788,,,,,,
1465846145.36,0.500122,-0.009982,-1.493835,0.002166,-0.010643,-0.000966,0.479509,0.009982,-0.877480,0.019500,0.001371,-0.008979,3.205346,-1.707561,32.829788,,,,,,
1465846145.37,0.500053,-0.009986,-1.493840,0.000003,-0.037185,-0.000802,0.479448,0.009986,-0.877514,0.017180,0.000741,-0.005451,3.181036,-1.703952,32.832336,,,,,,
1465846145.38,0.499771,-0.009965,-1.493861,0.003174,-0.057356,-0.001737,0.479200,0.009964,-0.877649,0.018587,-0.000061,-0.007056,3.181036,-1.703952,32.832336,,,,,,
1465846145.39,0.499267,-0.009968,-1.493877,0.005276,-0.077533,-0.000544,0.478759,0.009967,-0.877890,0.016450,0.001950,-0.006036,3.176077,-1.704070,32.832809,,,,,,
1465846145.40,0.498513,-0.009955,-1.493905,0.004193,-0.093455,-0.001510,0.478096,0.009955,-0.878251,0.011772,0.001718,-0.004271,3.176077,-1.704070,32.832809,,,,,,
1465846145.41,0.497757,-0.009940,-1.493918,0.004195,-0.090272,-0.000465,0.477433,0.009940,-0.878612,0.008590,0.001291,0.002010,3.176077,-1.704070,32.832809,,,,,,
1465846145.42,0.497065,-0.009893,-1.493930,0.003154,-0.071158,-0.000586,0.476824,0.009893,-0.878943,0.002637,-0.001211,0.004172,3.176077,-1.704070,32.832809,,,,,,
1465846145.44,0.496573,-0.009906,-1.493942,-0.001014,0.001047,-0.001043,0.476392,0.009906,-0.879177,-0.003415,0.001767,0.009060,3.251480,-1.701366,32.825569,,,,,,
1465846145.43,0.496643,-0.009861,-1.493936,0.001063,-0.039306,0.000277,0.476454,0.009860,-0.879144,-0.002149,-0.000736,0.009805,3.251480,-1.701366,32.825569,,,,,,
1465846145.45,0.496888,-0.009944,-1.493963,0.000103,0.041398,-0.002359,0.476669,0.009944,-0.879027,-0.004562,0.001347,0.008177,3.251480,-1.701366,32.825569,,,,,,
1465846145.46,0.497551,-0.009983,-1.493979,0.000143,0.075373,-0.001508,0.477251,0.009983,-0.878710,-0.005724,0.001842,0.008608,3.280076,-1.700654,32.822762,,,,,,
1465846145.47,0.498535,-0.010013,-1.493996,-0.000889,0.099798,-0.002727,0.478115,0.010013,-0.878240,-0.001248,0.001386,0.005468,3.280076,-1.700654,32.822762,,,,,,
1465846145.48,0.499746,-0.010097,-1.494024,0.001262,0.116786,-0.002832,0.479178,0.010097,-0.877659,0.001550,0.004017,0.004140,3.280076,-1.700654,32.822762,,,,,,
1465846145.49,0.501075,-0.010136,-1.494047,0.000214,0.130591,-0.002919,0.480344,0.010136,-0.877022,0.000796,0.001140,0.003715,3.226102,-1.701903,32.828045,,,,,,
1465846145.50,0.502604,-0.010199,-1.494062,-0.000827,0.151825,-0.001989,0.481684,0.010199,-0.876286,0.001059,0.002604,0.005177,3.226102,-1.701903,32.828045,,,,,,
1465846145.51,0.504350,-0.010220,-1.494078,-0.000803,0.170938,-0.002109,0.483213,0.010220,-0.875443,0.001253,0.000431,0.005799,3.226102,-1.701903,32.828045,,,,,,
1465846145.52,0.506336,-0.010267,-1.494099,-0.000918,0.195210,-0.002242,0.484951,0.010267,-0.874481,0.001286,0.001559,0.006775,3.035412,-1.706056,32.846012,,,,,,
1465846145.53,0.508502,-0.010319,-1.494114,-0.003020,0.215389,-0.003435,0.486843,0.010318,-0.873428,0.001484,0.001065,0.001618,3.035412,-1.706056,32.846012,,,,,,
1465846145.54,0.510891,-0.010368,-1.494129,-0.001939,0.229193,-0.003520,0.488928,0.010368,-0.872262,0.005045,0.000969,0.002725,2.899152,-1.708063,32.858212,,,,,,
1465846145.55,0.513414,-0.010414,-1.494151,-0.001922,0.240877,-0.004658,0.491127,0.010414,-0.871026,0.005226,0.000176,0.004220,2.899152,-1.708063,32.858212,,,,,,
1465846145.56,0.516017,-0.010479,-1.494172,-0.002975,0.251493,-0.003661,0.493393,0.010479,-0.869744,0.005844,0.001041,-0.000877,2.899152,-1.708063,32.858212,,,,,,
1465846145.57,0.518756,-0.010511,-1.494190,-0.001899,0.258929,-0.004771,0.495773,0.010510,-0.868389,0.008744,-0.000409,-0.000371,2.737840,-1.709970,32.871948,,,,,,
1465846145.58,0.521485,-0.010578,-1.494212,-0.005099,0.254685,-0.004748,0.498141,0.010578,-0.867032,0.011503,0.000820,-0.003131,2.737840,-1.709970,32.871948,,,,,,
1465846145.59,0.524130,-0.010645,-1.494238,-0.002993,0.235573,-0.004626,0.500432,0.010645,-0.865710,0.016719,0.001348,-0.005810,2.737840,-1.709970,32.871948,,,,,,
1465846145.60,0.526519,-0.010696,-1.494252,-0.003034,0.204779,-0.003368,0.502498,0.010695,-0.864512,0.020833,0.000169,-0.008962,2.385714,-1.714678,32.899132,,,,,,
1465846145.61,0.528562,-0.010746,-1.494273,-0.003080,0.166559,-0.004193,0.504263,0.010746,-0.863483,0.022364,0.000561,-0.009304,2.385714,-1.714678,32.899132,,,,,,
1465846145.62,0.530159,-0.010789,-1.494285,-0.002070,0.124085,-0.002861,0.505642,0.010789,-0.862676,0.023243,0.000853,-0.012553,2.385714,-1.714678,32.899132,,,,,,
1465846145.63,0.531400,-0.010828,-1.494300,0.000015,0.089047,-0.002640,0.506711,0.010827,-0.862048,0.021991,0.001074,-0.008496,2.240010,-1.716781,32.909267,,,,,,
1465846145.64,0.532300,-0.010885,-1.494313,-0.001084,0.061442,-0.002468,0.507486,0.010885,-0.861591,0.019216,0.002146,-0.008160,2.240010,-1.716781,32.909267,,,,,,
1465846145.65,0.533034,-0.010928,-1.494327,-0.000033,0.052945,-0.001349,0.508119,0.010928,-0.861218,0.013091,0.001950,-0.000904,2.240010,-1.716781,32.909267,,,,,,
1465846145.66,0.533713,-0.010987,-1.494349,-0.000019,0.062505,-0.002473,0.508703,0.010987,-0.860872,0.006052,0.002227,-0.000746,2.093030,-1.720749,32.918732,,,,,,
1465846145.68,0.535790,-0.011061,-1.494380,-0.002080,0.116659,-0.002815,0.510489,0.011061,-0.859813,0.000619,0.001772,0.003566,2.093030,-1.720749,32.918732,,,,,,
1465846145.67,0.534636,-0.011008,-1.494367,-0.001049,0.090113,-0.002648,0.509497,0.011008,-0.860402,0.002924,-0.000541,0.003941,2.093030,-1.720749,32.918732,,,,,,
1465846145.69,0.537204,-0.011128,-1.494389,-0.003114,0.143202,-0.001918,0.511704,0.011128,-0.859090,-0.003342,0.001278,0.007344,2.093030,-1.720749,32.918732,,,,,,
1465846145.71,0.540890,-0.011270,-1.494417,-0.001994,0.187799,-0.002197,0.514867,0.011269,-0.857196,0.002574,0.002250,0.004077,1.955997,-1.725055,32.926933,,,,,,
1465846145.70,0.538935,-0.011198,-1.494405,0.000117,0.170811,-0.003153,0.513190,0.011197,-0.858202,-0.000555,0.002597,0.007693,1.955997,-1.725055,32.926933,,,,,,
1465846145.72,0.542914,-0.011304,-1.494443,0.000142,0.193107,-0.002228,0.516600,0.011304,-0.856152,0.004289,0.001468,0.001660,1.955997,-1.725055,32.926933,,,,,,
1465846145.73,0.545019,-0.011347,-1.494470,-0.000922,0.192050,-0.003287,0.518401,0.011347,-0.855063,0.008928,0.001623,-0.000101,1.834765,-1.728397,32.933739,,,,,,
1465846145.74,0.547074,-0.011376,-1.494486,-0.001994,0.185681,-0.003248,0.520157,0.011376,-0.853995,0.010956,-0.000237,-0.002756,1.834765,-1.728397,32.933739,,,,,,
1465846145.75,0.549017,-0.011399,-1.494503,0.002245,0.173995,-0.001042,0.521815,0.011398,-0.852982,0.012898,0.001526,-0.005065,1.834765,-1.728397,32.933739,,,,,,
1465846145.77,0.552521,-0.011446,-1.494557,0.002218,0.150640,-0.001960,0.524800,0.011445,-0.851148,0.011409,0.002028,-0.002688,1.567264,-1.730326,32.947453,,,,,,
1465846145.76,0.550811,-0.011412,-1.494536,-0.000959,0.164444,-0.002050,0.523344,0.011411,-0.852045,0.013429,0.001894,-0.004522,1.567264,-1.730326,32.947453,,,,,,
1465846145.78,0.554235,-0.011476,-1.494569,-0.002034,0.155953,-0.001998,0.526258,0.011476,-0.850248,0.012942,0.001036,-0.004123,1.567264,-1.730326,32.947453,,,,,,
1465846145.79,0.555853,-0.011524,-1.494590,0.001141,0.141087,-0.001901,0.527633,0.011523,-0.849394,0.012085,0.001721,-0.005388,1.451919,-1.730621,32.952721,,,,,,
1465846145.80,0.557393,-0.011549,-1.494601,0.002190,0.130467,-0.000769,0.528940,0.011549,-0.848581,0.012243,0.001909,-0.003058,1.451919,-1.730621,32.952721,,,,,,
1465846145.81,0.558851,-0.011590,-1.494605,-0.001005,0.129408,-0.000766,0.530177,0.011590,-0.847808,0.011083,0.001563,-0.002931,1.451919,-1.730621,32.952721,,,,,,
1465846145.82,0.560263,-0.011633,-1.494621,0.000056,0.125164,-0.001803,0.531373,0.011633,-0.847058,0.011062,0.002283,-0.000934,1.243478,-1.733669,32.961082,,,,,,
1465846145.83,0.561690,-0.011695,-1.494627,-0.003128,0.133661,-0.001860,0.532581,0.011694,-0.846298,0.006680,0.002237,0.000671,1.243478,-1.733669,32.961082,,,,,,
1465846145.84,0.563176,-0.011757,-1.494638,-0.000995,0.134725,-0.002929,0.533838,0.011757,-0.845505,0.007544,0.002129,-0.000701,1.243478,-1.733669,32.961082,,,,,,
1465846145.86,0.566290,-0.011780,-1.494700,0.003272,0.143217,-0.001913,0.536468,0.011780,-0.843838,0.008835,0.002304,0.002057,1.150021,-1.736104,32.964348,,,,,,
1465846145.85,0.564706,-0.011760,-1.494661,0.001142,0.142155,-0.001909,0.535131,0.011760,-0.844687,0.006816,0.000462,0.001121,1.150021,-1.736104,32.964348,,,,,,
1465846145.87,0.567821,-0.011826,-1.494718,0.003254,0.130474,-0.000769,0.537759,0.011826,-0.843016,0.013145,0.003189,-0.003374,1.150021,-1.736104,32.964348,,,,,,
1465846145.89,0.570554,-0.011835,-1.494745,0.001102,0.112426,-0.000658,0.540061,0.011835,-0.841543,0.012353,0.000860,-0.002558,0.948124,-1.737999,32.970673,,,,,,
1465846145.88,0.569239,-0.011828,-1.494736,0.000054,0.126229,-0.000746,0.538953,0.011828,-0.842253,0.013323,0.000699,-0.005266,0.948124,-1.737999,32.970673,,,,,,
1465846145.90,0.571802,-0.011852,-1.494763,0.001088,0.099689,-0.001643,0.541110,0.011852,-0.840868,0.014859,0.001088,-0.001448,0.948124,-1.737999,32.970673,,,,,,
1465846145.92,0.573863,-0.011851,-1.494786,-0.001058,0.090130,0.000544,0.542842,0.011851,-0.839751,0.010579,0.000478,-0.002061,0.858047,-1.737758,32.973152,,,,,,
1465846145.93,0.574860,-0.011877,-1.494803,0.001068,0.083765,-0.001543,0.543679,0.011877,-0.839209,0.009956,0.001612,0.000037,0.858047,-1.737758,32.973152,,,,,,
1465846145.91,0.572861,-0.011859,-1.494780,0.002137,0.085889,-0.002620,0.542000,0.011858,-0.840295,0.012824,0.000532,-0.003501,0.858047,-1.737758,32.973152,,,,,,
1465846145.94,0.575896,-0.011883,-1.494815,0.000018,0.097567,-0.000566,0.544548,0.011882,-0.838646,0.005181,0.000950,0.001777,0.716169,-1.737831,32.976536,,,,,,
1465846145.95,0.577084,-0.011881,-1.494839,0.003238,0.116682,-0.001747,0.545544,0.011881,-0.837998,0.001545,0.000830,0.003999,0.716169,-1.737831,32.976536,,,,,,
1465846145.96,0.578633,-0.011903,-1.494863,-0.002020,0.165533,-0.004188,0.546841,0.011903,-0.837152,-0.005078,-0.000459,0.007211,0.716169,-1.737831,32.976536,,,,,,
1465846145.97,0.580732,-0.011934,-1.494878,-0.003004,0.231362,-0.003537,0.548597,0.011934,-0.836002,-0.015119,-0.000765,0.015720,5.495752,-2.699238,37.661133,,,,,,
1465846145.98,0.583605,-0.011991,-1.494899,-0.002887,0.322679,-0.005174,0.550996,0.011991,-0.834422,-0.025956,-0.000242,0.020548,5.495752,-2.699238,37.661133,,,,,,
1465846145.99,0.587546,-0.012109,-1.494921,-0.007000,0.437358,-0.006962,0.554279,0.012109,-0.832243,-0.031681,0.000938,0.025221,5.358465,-2.699762,37.680874,,,,,,
1465846146.00,0.592645,-0.012268,-1.494953,-0.007911,0.558406,-0.008787,0.558515,0.012268,-0.829404,-0.038511,0.002564,0.027066,5.358465,-2.699762,37.680874,,,,,,
1465846146.01,0.599217,-0.012442,-1.494985,-0.011980,0.707065,-0.011852,0.563952,0.012441,-0.825714,-0.044970,0.001337,0.033126,5.358465,-2.699762,37.680874,,,,,,
1465846146.02,0.607471,-0.012630,-1.495022,-0.013898,0.871651,-0.015015,0.570747,0.012630,-0.821029,-0.052651,-0.000941,0.037749,5.358465,-2.699762,37.680874,,,,,,
1465846146.03,0.617575,-0.012856,-1.495077,-0.014726,1.057473,-0.018310,0.579012,0.012855,-0.815218,-0.065325,0.000816,0.043810,4.662027,-2.711567,37.772514,,,,,,
1465846146.04,0.629999,-0.013126,-1.495122,-0.021862,1.310186,-0.019903,0.589093,0.013126,-0.807958,-0.086286,-0.000400,0.060827,4.662027,-2.711567,37.772514,,,,,,
1465846146.05,0.645201,-0.013476,-1.495160,-0.027892,1.589455,-0.025918,0.601304,0.013476,-0.798907,-0.088594,-0.001040,0.063311,4.662027,-2.711567,37.772514,,,,,,
1465846146.06,0.662861,-0.013897,-1.495185,-0.032924,1.819872,-0.028432,0.615315,0.013897,-0.788159,-0.073887,0.000019,0.051190,2.922781,-2.736699,37.944931,,,,,,
1465846146.07,0.682268,-0.014455,-1.495257,-0.042283,1.976000,-0.043259,0.630489,0.014454,-0.776064,-0.048809,-0.009877,0.038667,2.922781,-2.736699,37.944931,,,,,,
1465846146.08,0.703188,-0.014926,-1.495211,-0.035729,2.137340,-0.026168,0.646580,0.014926,-0.762700,-0.083729,0.016065,0.043797,2.922781,-2.736699,37.944931,,,,,,
1465846146.10,0.751318,-0.016184,-1.495186,-0.052114,2.637490,-0.041030,0.682513,0.016183,-0.730694,-0.101581,0.009330,0.029293,1.516424,-2.762233,38.025261,,,,,,
1465846146.09,0.725903,-0.015523,-1.495284,-0.046120,2.310472,-0.046425,0.663731,0.015522,-0.747810,-0.062413,-0.010914,0.083717,1.516424,-2.762233,38.025261,,,,,,
1465846146.11,0.779886,-0.016880,-1.495208,-0.051763,2.908264,-0.048051,0.703098,0.016879,-0.710893,-0.075107,-0.003344,0.108354,1.516424,-2.762233,38.025261,,,,,,
1465846146.12,0.810628,-0.017696,-1.495092,-0.066362,3.145068,-0.054873,0.724606,0.017695,-0.688936,-0.097501,0.004461,0.050004,-2.192141,-2.832688,37.987114,,,,,,
1465846146.13,0.844694,-0.018552,-1.495004,-0.065929,3.492275,-0.055985,0.747639,0.018551,-0.663846,-0.107243,-0.003079,0.110761,-2.192141,-2.832688,37.987114,,,,,,
1465846146.14,0.882563,-0.019496,-1.494864,-0.072866,3.891537,-0.065947,0.772222,0.019495,-0.635053,-0.128729,0.003699,0.103193,-2.192141,-2.832688,37.987114,,,,,,
1465846146.16,0.972750,-0.021765,-1.494369,-0.095025,4.876942,-0.087052,0.826241,0.021763,-0.562896,-0.134133,0.000073,0.146026,-4.644354,-2.885570,37.761803,,,,,,
1465846146.15,0.925160,-0.020554,-1.494640,-0.086086,4.387405,-0.069070,0.798548,0.020553,-0.601580,-0.147456,0.002213,0.140688,-4.644354,-2.885570,37.761803,,,,,,
1465846146.17,1.025329,-0.023058,-1.493982,-0.105033,5.386612,-0.090258,0.854658,0.023056,-0.518680,-0.150770,0.000534,0.171649,-4.644354,-2.885570,37.761803,,,,,,
1465846146.19,1.146249,-0.025970,-1.492812,-0.125040,6.394306,-0.108307,0.910918,0.025967,-0.411769,-0.097915,0.002354,0.167812,-11.342255,-3.039874,36.303757,,,,,,
1465846146.18,1.083360,-0.024466,-1.493469,-0.118175,5.935586,-0.099037,0.883272,0.024464,-0.468222,-0.142214,-0.001575,0.190573,-11.342255,-3.039874,36.303757,,,,,,
1465846146.20,1.212928,-0.027502,-1.492066,-0.128853,6.746832,-0.112651,0.936291,0.027498,-0.350146,-0.063656,-0.000612,0.184588,-11.342255,-3.039874,36.303757,,,,,,
1465846146.22,1.354004,-0.030557,-1.490060,-0.148529,7.186432,-0.116492,0.976137,0.030552,-0.214998,0.011031,0.002529,0.159456,-15.630886,-3.152339,34.663933,,,,,,
1465846146.21,1.282495,-0.029065,-1.491171,-0.135957,7.011249,-0.122832,0.958323,0.029060,-0.284204,-0.016536,0.005272,0.167443,-15.630886,-3.152339,34.663933,,,,,,
1465846146.23,1.427933,-0.032025,-1.488836,-0.143870,7.498611,-0.122703,0.989305,0.032020,-0.142304,-0.024080,0.013985,0.171418,-15.630886,-3.152339,34.663933,,,,,,
1465846146.24,1.507808,-0.033525,-1.487422,-0.165370,8.173945,-0.133346,0.997456,0.033519,-0.062911,-0.075963,0.004277,0.284011,-24.629333,-3.424919,28.939867,,,,,,
1465846146.25,1.596450,-0.035048,-1.485608,-0.184422,9.092451,-0.151899,0.999057,0.035041,0.025635,-0.090472,0.005273,0.325256,-24.629333,-3.424919,28.939867,,,,,,
1465846146.26,1.693091,-0.036532,-1.483670,-0.186695,9.808139,-0.168099,0.991869,0.036524,0.121909,-0.029528,0.009542,0.393320,-29.120716,-3.592131,24.391201,,,,,,
1465846146.27,1.794507,-0.037870,-1.481349,-0.206386,10.229699,-0.176085,0.974382,0.037861,0.221690,0.053450,0.010937,0.340520,-29.120716,-3.592131,24.391201,,,,,,
1465846146.28,1.900521,-0.039054,-1.478838,-0.214253,10.741504,-0.183560,0.945410,0.039044,0.323536,0.053018,0.009387,0.408504,-29.120716,-3.592131,24.391201,,,,,,
1465846146.29,2.014722,-0.039971,-1.475913,-0.239703,11.663178,-0.195753,0.902351,0.039961,0.429145,0.045677,0.013155,0.506432,-33.334312,-3.779419,18.176630,,,,,,
1465846146.30,2.138044,-0.040621,-1.472816,-0.243962,12.499904,-0.208456,0.842687,0.040609,0.536870,0.135081,0.006815,0.588878,-33.334312,-3.779419,18.176630,,,,,,
1465846146.31,2.266581,-0.040812,-1.469367,-0.271113,12.907680,-0.221685,0.766912,0.040801,0.640454,0.286723,0.026262,0.554507,-33.334312,-3.779419,18.176630,,,,,,
1465846146.32,2.396525,-0.040583,-1.466033,-0.252929,12.986222,-0.214708,0.677463,0.040572,0.734437,0.373822,0.013795,0.574096,-37.914047,-4.163697,1.019203,,,,,,
1465846146.33,2.526065,-0.039901,-1.462702,-0.265789,12.921456,-0.213250,0.576930,0.039890,0.815819,0.512807,0.031491,0.512138,-37.914047,-4.163697,1.019203,,,,,,
1465846146.34,2.652871,-0.038878,-1.459528,-0.249213,12.541346,-0.219365,0.469143,0.038869,0.882266,0.634022,0.007991,0.512677,-37.914047,-4.163697,1.019203,,,,,,
1465846146.35,2.773632,-0.037524,-1.456718,-0.237306,11.893560,-0.186551,0.359460,0.037515,0.932406,0.688269,0.032919,0.387815,-37.914047,-4.163697,1.019203,,,,,,
1465846146.36,2.886224,-0.036023,-1.454141,-0.212827,10.997455,-0.205389,0.252438,0.036015,0.966942,0.765231,0.009349,0.326667,-33.601963,-4.386964,-17.536039,,,,,,
1465846146.37,2.987993,-0.034429,-1.452082,-0.196198,9.881391,-0.162181,0.152906,0.034422,0.987641,0.768999,0.024248,0.190780,-33.601963,-4.386964,-17.536039,,,,,,
1465846146.38,3.077626,-0.032787,-1.450269,-0.173262,8.643317,-0.154394,0.063888,0.032781,0.997419,0.792557,0.027323,0.072604,-33.601963,-4.386964,-17.536039,,,,,,
1465846146.39,-3.128900,-0.031320,-1.448909,-0.147257,7.328752,-0.131221,-0.012686,0.031315,0.999429,0.631659,0.038616,-0.085382,-29.088570,-4.414895,-24.294319,,,,,,
1465846146.40,-3.064918,-0.030013,-1.447893,-0.114814,6.071490,-0.097757,-0.076565,0.030009,0.996613,0.655102,-0.003794,-0.202286,-29.088570,-4.414895,-24.294319,,,,,,
1465846146.41,-3.015096,-0.028952,-1.447109,-0.092181,4.591325,-0.088451,-0.126107,0.028948,0.991594,0.615578,0.019499,-0.286852,-24.654753,-4.405762,-28.785110,,,,,,
1465846146.42,-2.980821,-0.028169,-1.446601,-0.064361,3.043133,-0.053167,-0.160017,0.028165,0.986712,0.534635,0.013797,-0.288882,-24.654753,-4.405762,-28.785110,,,,,,
1465846146.43,-2.960225,-0.027721,-1.446271,-0.027667,1.757238,-0.033357,-0.180306,0.027718,0.983220,0.497780,0.002663,-0.292027,-24.654753,-4.405762,-28.785110,,,,,,
1465846146.44,-2.951359,-0.027545,-1.446140,-0.013177,0.597704,-0.012232,-0.189016,0.027541,0.981588,0.475241,0.018022,-0.311483,-19.460823,-4.369218,-32.527473,,,,,,
1465846146.45,-2.954454,-0.027551,-1.446056,0.009793,-0.617004,-0.006720,-0.185978,0.027547,0.982168,0.333012,0.006388,-0.248800,-19.460823,-4.369218,-32.527473,,,,,,
1465846146.46,-2.967375,-0.027897,-1.446244,0.034204,-1.480344,0.028523,-0.173270,0.027894,0.984479,0.328391,0.017120,-0.180066,-19.460823,-4.369218,-32.527473,,,,,,
1465846146.47,-2.987162,-0.028373,-1.446443,0.048280,-2.147155,0.029526,-0.153755,0.028370,0.987702,0.298271,-0.000782,-0.209656,-19.271919,-4.369741,-32.639679,,,,,,
1465846146.48,-3.013737,-0.028961,-1.446851,0.052720,-2.821455,0.052919,-0.127454,0.028957,0.991422,0.307584,0.018269,-0.132550,-19.271919,-4.369741,-32.639679,,,,,,
1465846146.50,-3.090444,-0.030710,-1.447996,0.087900,-4.457757,0.080248,-0.051102,0.030705,0.998221,0.342362,0.009319,-0.123084,-19.271919,-4.369741,-32.639679,,,,,,
1465846146.49,-3.047807,-0.029771,-1.447315,0.083662,-3.618884,0.057952,-0.093607,0.029767,0.995164,0.302591,0.001331,-0.167573,-19.271919,-4.369741,-32.639679,,,,,,
1465846146.51,-3.141087,-0.031740,-1.448769,0.109247,-5.273218,0.080061,-0.000506,0.031735,0.999496,0.308810,0.011371,-0.090835,-22.235901,-4.401513,-30.692696,,,,,,
1465846146.52,3.083852,-0.032945,-1.449788,0.123110,-5.972206,0.103637,0.057678,0.032939,0.997792,0.245743,0.005223,0.010067,-22.235901,-4.401513,-30.692696,,,,,,
1465846146.53,3.021041,-0.034131,-1.450970,0.132194,-6.373567,0.104035,0.120190,0.034125,0.992164,0.231800,0.020761,0.036690,-25.003229,-4.421233,-28.480543,,,,,,
1465846146.54,2.954792,-0.035343,-1.452314,0.142417,-6.690027,0.119867,0.185600,0.035336,0.981990,0.217629,0.000812,0.092580,-25.003229,-4.421233,-28.480543,,,,,,
1465846146.55,2.885362,-0.036463,-1.453767,0.140944,-7.028718,0.113475,0.253267,0.036455,0.966709,0.205748,0.017958,0.112133,-25.003229,-4.421233,-28.480543,,,,,,
1465846146.56,2.812409,-0.037559,-1.455390,0.153287,-7.352612,0.129356,0.323042,0.037550,0.945639,0.131258,0.008364,0.183496,-31.428127,-4.430605,-21.177649,,,,,,
1465846146.57,2.738448,-0.038547,-1.457095,0.153270,-7.378075,0.122065,0.392021,0.038537,0.919149,0.094704,0.007422,0.226268,-31.428127,-4.430605,-21.177649,,,,,,
1465846146.58,2.665423,-0.039426,-1.458847,0.151287,-7.271875,0.115010,0.458022,0.039415,0.888067,0.048585,0.025404,0.231242,-31.428127,-4.430605,-21.177649,,,,,,
1465846146.59,2.594049,-0.040112,-1.460598,0.146202,-7.068030,0.122242,0.520173,0.040101,0.853119,-0.038606,-0.006669,0.296738,-34.197548,-4.406618,-16.338894,,,,,,
1465846146.60,2.526002,-0.040676,-1.462361,0.141371,-6.686820,0.112395,0.576963,0.040664,0.815757,-0.069959,0.024048,0.277642,-34.197548,-4.406618,-16.338894,,,,,,
1465846146.61,2.462818,-0.041062,-1.464020,0.126028,-6.193063,0.105025,0.627311,0.041050,0.777686,-0.094779,0.013744,0.279595,-34.197548,-4.406618,-16.338894,,,,,,
1465846146.62,2.404181,-0.041319,-1.465484,0.111715,-5.730091,0.095721,0.671800,0.041307,0.739580,-0.215852,-0.002260,0.307128,-37.368229,-4.304773,-6.398018,,,,,,
1465846146.63,2.352406,-0.041433,-1.466922,0.105226,-4.956042,0.094053,0.709171,0.041421,0.703818,-0.209858,0.003577,0.304116,-37.368229,-4.304773,-6.398018,,,,,,
1465846146.64,2.309055,-0.041539,-1.468065,0.085002,-4.136262,0.067603,0.739004,0.041527,0.672420,-0.229162,-0.003777,0.269535,-37.368229,-4.304773,-6.398018,,,,,,
1465846146.65,2.272699,-0.041593,-1.469024,0.072020,-3.466232,0.053807,0.762954,0.041581,0.645114,-0.283035,0.001830,0.259733,-37.853004,-4.242621,-2.236166,,,,,,
1465846146.66,2.243802,-0.041620,-1.469806,0.059184,-2.667743,0.046658,0.781275,0.041608,0.622799,-0.335184,-0.006437,0.275227,-37.853004,-4.242621,-2.236166,,,,,,
1465846146.67,2.224515,-0.041653,-1.470349,0.038103,-1.673841,0.024437,0.793139,0.041641,0.607615,-0.334201,0.010453,0.247610,-37.853004,-4.242621,-2.236166,,,,,,
1465846146.68,2.215106,-0.041639,-1.470615,0.015902,-0.707575,0.013032,0.798822,0.041627,0.600126,-0.320535,-0.002992,0.226031,-37.837456,-4.163006,2.616573,,,,,,
1465846146.69,2.214129,-0.041664,-1.470659,0.000959,0.094126,-0.003720,0.799407,0.041652,0.599344,-0.300704,0.003942,0.202078,-37.837456,-4.163006,2.616573,,,,,,
1465846146.70,2.220509,-0.041684,-1.470497,-0.016224,0.815117,-0.014645,0.795566,0.041672,0.604432,-0.291904,-0.001084,0.189650,-37.837456,-4.163006,2.616573,,,,,,
1465846146.71,2.234295,-0.041709,-1.470134,-0.031230,1.571151,-0.027917,0.787157,0.041697,0.615342,-0.278093,-0.001413,0.200271,-37.809013,-4.155540,3.009983,,,,,,
1465846146.72,2.255800,-0.041728,-1.469585,-0.046228,2.334616,-0.040172,0.773743,0.041716,0.632125,-0.240921,0.005281,0.186082,-37.809013,-4.155540,3.009983,,,,,,
1465846146.73,2.284275,-0.041732,-1.468832,-0.059219,3.004635,-0.049709,0.755432,0.041720,0.653898,-0.216705,0.000867,0.186297,-37.809013,-4.155540,3.009983,,,,,,
1465846146.74,2.318664,-0.041712,-1.467975,-0.067024,3.563164,-0.059606,0.732503,0.041700,0.679485,-0.149343,0.010882,0.155628,-37.921768,-4.203275,0.349913,,,,,,
1465846146.75,2.357542,-0.041616,-1.466949,-0.083533,3.979405,-0.064362,0.705542,0.041604,0.707446,-0.114111,0.000113,0.148496,-37.921768,-4.203275,0.349913,,,,,,
1465846146.76,2.399758,-0.041517,-1.465854,-0.083126,4.285237,-0.077989,0.675059,0.041505,0.736595,-0.075206,0.015990,0.134178,-37.921768,-4.203275,0.349913,,,,,,
1465846146.77,2.445062,-0.041318,-1.464686,-0.095500,4.619688,-0.071583,0.641012,0.041307,0.766418,-0.098212,-0.008149,0.177842,-37.840546,-4.247159,-2.429974,,,,,,
1465846146.78,2.494612,-0.041043,-1.463443,-0.098130,5.052934,-0.084947,0.602272,0.041032,0.797236,-0.005989,0.013931,0.147390,-37.840546,-4.247159,-2.429974,,,,,,
1465846146.79,2.546666,-0.040687,-1.462119,-0.108581,5.205844,-0.088046,0.559984,0.040676,0.827504,0.075911,0.001805,0.087550,-37.840546,-4.247159,-2.429974,,,,,,
1465846146.80,2.597493,-0.040286,-1.460787,-0.102410,5.030647,-0.088005,0.517228,0.040275,0.854900,0.071975,0.003746,0.084752,-37.840546,-4.247159,-2.429974,,,,,,
1465846146.81,2.647119,-0.039857,-1.459599,-0.096135,4.950991,-0.081113,0.474192,0.039846,0.879520,0.090262,0.010843,0.085492,-36.695953,-4.341731,-9.508229,,,,,,
1465846146.82,2.696657,-0.039336,-1.458384,-0.103593,4.946748,-0.081094,0.430067,0.039326,0.901940,0.105425,0.003124,0.063255,-36.695953,-4.341731,-9.508229,,,,,,
1465846146.83,2.745497,-0.038759,-1.457276,-0.095220,4.831007,-0.080359,0.385529,0.038749,0.921882,0.198013,0.014306,0.020272,-35.550827,-4.381195,-13.145110,,,,,,
1465846146.84,2.790461,-0.038220,-1.456189,-0.087299,4.355315,-0.077368,0.343710,0.038211,0.938298,0.197764,0.003034,-0.033528,-35.550827,-4.381195,-13.145110,,,,,,
1465846146.85,2.830281,-0.037660,-1.455281,-0.079412,3.860496,-0.068935,0.306090,0.037651,0.951258,0.214448,0.013954,-0.037210,-35.550827,-4.381195,-13.145110,,,,,,
1465846146.86,2.865715,-0.037173,-1.454503,-0.066093,3.462280,-0.054715,0.272203,0.037164,0.961522,0.207167,-0.007806,-0.053746,-32.550034,-4.426775,-19.410032,,,,,,
1465846146.87,2.897015,-0.036664,-1.453806,-0.066663,2.999349,-0.057134,0.241984,0.036656,0.969588,0.251485,0.021755,-0.099684,-32.550034,-4.426775,-19.410032,,,,,,
1465846146.88,2.922296,-0.036306,-1.453296,-0.041953,2.355834,-0.034978,0.217400,0.036298,0.975407,0.248024,-0.010725,-0.125890,-32.550034,-4.426775,-19.410032,,,,,,
1465846146.89,2.940580,-0.036020,-1.452878,-0.033248,1.648681,-0.034792,0.199532,0.036012,0.979229,0.272056,0.018996,-0.151013,-31.179150,-4.435349,-21.541548,,,,,,
1465846146.90,2.951651,-0.035852,-1.452669,-0.017133,0.941464,-0.013310,0.188681,0.035844,0.981384,0.258173,-0.002977,-0.162598,-31.179150,-4.435349,-21.541548,,,,,,
1465846146.91,2.955968,-0.035796,-1.452550,-0.003081,0.264021,-0.006918,0.184442,0.035789,0.982192,0.253531,0.008645,-0.159010,-31.179150,-4.435349,-21.541548,,,,,,
1465846146.92,2.953637,-0.035862,-1.452605,0.009915,-0.396450,0.005753,0.186731,0.035854,0.981757,0.225088,0.008030,-0.156561,-29.852062,-4.442081,-23.344645,,,,,,
1465846146.93,2.945226,-0.036026,-1.452779,0.023006,-0.983654,0.016900,0.194981,0.036019,0.980146,0.212353,0.002266,-0.137219,-29.852062,-4.442081,-23.344645,,,,,,
1465846146.94,2.931146,-0.036277,-1.453059,0.030835,-1.527311,0.023510,0.208759,0.036269,0.977294,0.181500,0.012681,-0.120773,-29.852062,-4.442081,-23.344645,,,,,,
1465846146.95,2.912500,-0.036596,-1.453442,0.041986,-1.964797,0.032652,0.226942,0.036588,0.973221,0.146303,-0.000379,-0.085083,-30.101725,-4.442912,-23.021660,,,,,,
1465846146.96,2.890161,-0.036958,-1.453896,0.047933,-2.313077,0.036971,0.248621,0.036949,0.967896,0.117971,0.014183,-0.066345,-30.101725,-4.442912,-23.021660,,,,,,
1465846146.97,2.864928,-0.037332,-1.454460,0.051837,-2.582800,0.047182,0.272959,0.037323,0.961302,0.097204,0.000229,-0.039304,-30.101725,-4.442912,-23.021660,,,,,,
1465846146.98,2.833717,-0.038106,-1.455180,0.055763,-2.853575,0.045690,0.302815,0.038097,0.952288,0.087535,0.012257,-0.033281,-31.855669,-4.437998,-20.527317,,,,,,
1465846146.99,2.803518,-0.038505,-1.455874,0.059755,-3.055340,0.054410,0.331425,0.038496,0.942696,0.034572,-0.002073,0.012474,-31.855669,-4.437998,-20.527317,,,,,,
1465846147.00,2.772368,-0.038924,-1.456602,0.063929,-3.126477,0.052732,0.360619,0.038914,0.931901,0.039985,0.004665,0.023177,-31.855669,-4.437998,-20.527317,,,,,,
1465846147.01,2.740654,-0.039301,-1.457344,0.061730,-3.176389,0.056236,0.389982,0.039291,0.919984,0.011141,-0.000518,0.037337,-33.058594,-4.435986,-18.528404,,,,,,
1465846147.02,2.708487,-0.039686,-1.458126,0.068054,-3.231600,0.054460,0.419362,0.039675,0.906952,0.031825,0.007413,0.039475,-33.058594,-4.435986,-18.528404,,,,,,
1465846147.03,2.675194,-0.040041,-1.458877,0.060452,-3.353698,0.053089,0.449312,0.040030,0.892478,-0.012544,0.006403,0.041559,-33.058594,-4.435986,-18.528404,,,,,,
1465846147.04,2.642239,-0.040366,-1.459686,0.071226,-3.245411,0.056678,0.478468,0.040355,0.877177,-0.083510,-0.002742,0.114720,-35.165031,-4.404497,-14.137582,,,,,,
1465846147.05,2.612274,-0.040682,-1.460474,0.062077,-2.906680,0.050287,0.504527,0.040671,0.862437,-0.085033,0.005548,0.101827,-35.165031,-4.404497,-14.137582,,,,,,
1465846147.06,2.585315,-0.040880,-1.461128,0.046469,-2.621041,0.046351,0.527588,0.040868,0.848517,-0.109283,0.002436,0.115777,-35.165031,-4.404497,-14.137582,,,,,,
1465846147.07,2.561050,-0.041098,-1.461781,0.055306,-2.369392,0.042653,0.548015,0.041087,0.835459,-0.116237,0.003438,0.116522,-35.988255,-4.382779,-11.894832,,,,,,
1465846147.08,2.539400,-0.041223,-1.462325,0.037558,-2.095426,0.036659,0.565970,0.041212,0.823395,-0.121390,-0.000227,0.103988,-35.988255,-4.382779,-11.894832,,,,,,
1465846147.09,2.520725,-0.041356,-1.462823,0.041146,-1.786434,0.031531,0.581243,0.041345,0.812679,-0.120413,0.000419,0.107991,-35.988255,-4.382779,-11.894832,,,,,,
1465846147.10,2.504921,-0.041474,-1.463256,0.029778,-1.515663,0.027693,0.594011,0.041463,0.803388,-0.107286,-0.000554,0.089038,-36.930775,-4.343132,-8.550151,,,,,,
1465846147.11,2.491627,-0.041566,-1.463573,0.026864,-1.304340,0.018914,0.604636,0.041554,0.795417,-0.105506,0.000972,0.084512,-36.930775,-4.343132,-8.550151,,,,,,
1465846147.12,2.480405,-0.041665,-1.463880,0.028242,-1.052696,0.018401,0.613522,0.041653,0.788579,-0.138363,-0.001049,0.096584,-36.930775,-4.343132,-8.550151,,,,,,
1465846147.13,2.472709,-0.041713,-1.464075,0.012771,-0.666172,0.008510,0.619571,0.041701,0.783832,-0.150836,0.010164,0.107708,-37.165710,-4.330306,-7.470515,,,,,,
1465846147.14,2.469451,-0.041739,-1.464170,0.008021,-0.217012,0.000366,0.622121,0.041726,0.781809,-0.159001,0.003592,0.118002,-37.165710,-4.330306,-7.470515,,,,,,
1465846147.15,2.478960,-0.041941,-1.463796,-0.003167,0.195040,-0.006488,0.614654,0.041928,0.787682,-0.147140,0.003772,0.103401,-37.165710,-4.330306,-7.470515,,,,,,
1465846147.16,2.483480,-0.041911,-1.463683,-0.011258,0.535883,-0.008634,0.611088,0.041899,0.790453,-0.132923,0.000612,0.084119,-37.257050,-4.335383,-6.997622,,,,,,
1465846147.17,2.497164,-0.041942,-1.463266,-0.013024,0.824737,-0.011512,0.600214,0.041929,0.798740,-0.104990,0.001253,0.077160,-37.257050,-4.335383,-6.997622,,,,,,
1465846147.18,2.507292,-0.041868,-1.463026,-0.022297,1.064721,-0.017284,0.592095,0.041855,0.804781,-0.074593,0.002838,0.056029,-37.257050,-4.335383,-6.997622,,,,,,
1465846147.19,2.519042,-0.041766,-1.462743,-0.025323,1.198509,-0.018126,0.582601,0.041754,0.811685,-0.032628,0.001856,0.038855,-37.121834,-4.348673,-7.675204,,,,,,
1465846147.20,2.531159,-0.041671,-1.462439,-0.027434,1.210196,-0.020331,0.572725,0.041659,0.818688,-0.010698,0.003797,0.006996,-37.121834,-4.348673,-7.675204,,,,,,
1465846147.21,2.543357,-0.041554,-1.462119,-0.026369,1.212317,-0.019278,0.562700,0.041542,0.825617,-0.009706,-0.001747,0.014746,-37.121834,-4.348673,-7.675204,,,,,,
1465846147.22,2.556021,-0.041472,-1.461808,-0.025203,1.290893,-0.020835,0.552201,0.041460,0.832680,-0.016358,-0.002092,0.022911,-36.725098,-4.366379,-9.383618,,,,,,
1465846147.23,2.569834,-0.041361,-1.461441,-0.030368,1.410891,-0.025850,0.540649,0.041349,0.840232,-0.021713,0.006366,0.027719,-36.725098,-4.366379,-9.383618,,,,,,
1465846147.24,2.584758,-0.041249,-1.461071,-0.029176,1.513882,-0.025430,0.528052,0.041237,0.848210,-0.017463,0.001335,0.027156,-36.725098,-4.366379,-9.383618,,,,,,
1465846147.25,2.600467,-0.041134,-1.460680,-0.031230,1.572286,-0.026863,0.514666,0.041122,0.856404,-0.008684,0.006440,0.017299,-36.462051,-4.377848,-10.353905,,,,,,
1465846147.26,2.616581,-0.040973,-1.460276,-0.034362,1.623251,-0.026122,0.500802,0.040961,0.864592,-0.016855,0.002587,0.019838,-36.462051,-4.377848,-10.353905,,,,,,
1465846147.27,2.633662,-0.040799,-1.459875,-0.035295,1.730491,-0.025731,0.485965,0.040788,0.873026,-0.010471,0.001418,0.032766,-36.462051,-4.377848,-10.353905,,,,,,
1465846147.28,2.651384,-0.040635,-1.459448,-0.035235,1.769793,-0.031299,0.470421,0.040624,0.881507,0.023872,0.000239,0.012094,-35.723396,-4.401087,-12.661733,,,,,,
1465846147.29,2.668535,-0.040463,-1.459014,-0.034272,1.690154,-0.029734,0.455237,0.040452,0.889451,0.029611,0.000243,-0.002274,-35.723396,-4.401087,-12.661733,,,,,,
1465846147.30,2.685063,-0.040327,-1.458627,-0.027943,1.644490,-0.028377,0.440478,0.040316,0.896858,0.016752,0.002470,0.009957,-35.723396,-4.401087,-12.661733,,,,,,
1465846147.31,2.701749,-0.040161,-1.458254,-0.032167,1.675279,-0.026446,0.425455,0.040150,0.904089,0.025397,-0.000309,-0.001409,-35.257999,-4.413093,-13.901378,,,,,,
1465846147.32,2.718080,-0.039980,-1.457875,-0.032244,1.612635,-0.027117,0.410637,0.039970,0.910922,0.064461,0.005898,-0.016193,-35.257999,-4.413093,-13.901378,,,,,,
1465846147.34,2.742874,-0.039721,-1.457297,-0.018152,0.971284,-0.017759,0.387931,0.039711,0.920832,0.119500,0.004112,-0.066096,-35.257999,-4.413093,-13.901378,,,,,,
1465846147.33,2.732247,-0.039836,-1.457557,-0.024082,1.333368,-0.022164,0.397694,0.039825,0.916654,0.102688,0.000245,-0.053052,-35.257999,-4.413093,-13.901378,,,,,,
1465846147.35,2.750126,-0.039678,-1.457144,-0.008982,0.649542,-0.011474,0.381244,0.039667,0.923623,0.117199,0.001806,-0.069466,-34.297531,-4.431706,-16.121088,,,,,,
1465846147.36,2.752940,-0.039675,-1.457102,-0.009309,0.393627,-0.006676,0.378643,0.039665,0.924692,0.104831,0.002770,-0.066462,-34.297531,-4.431706,-16.121088,,,,,,
1465846147.37,2.755000,-0.039668,-1.457051,-0.001108,0.141973,-0.004025,0.376738,0.039657,0.925470,0.095597,0.006150,-0.061274,-34.002678,-4.437565,-16.732487,,,,,,
1465846147.38,2.749539,-0.039752,-1.457266,0.000701,-0.107596,0.001800,0.381785,0.039741,0.923396,0.083913,0.000771,-0.058864,-34.002678,-4.437565,-16.732487,,,,,,
1465846147.39,2.746601,-0.039798,-1.457334,0.009967,-0.355009,0.006554,0.384496,0.039787,0.922269,0.079478,0.003288,-0.051023,-34.002678,-4.437565,-16.732487,,,,,,
1465846147.40,2.737356,-0.039840,-1.457620,0.012878,-0.579080,0.009027,0.393005,0.039830,0.918673,0.067017,-0.001362,-0.043963,-34.061893,-4.436207,-16.611973,,,,,,
1465846147.41,2.730038,-0.039961,-1.457781,0.020076,-0.782950,0.010313,0.399715,0.039950,0.915769,0.059971,0.002911,-0.034451,-34.061893,-4.436207,-16.611973,,,,,,
1465846147.42,2.720839,-0.040100,-1.457999,0.019849,-0.957097,0.015663,0.408120,0.040089,0.912048,0.044929,0.001934,-0.032562,-34.061893,-4.436207,-16.611973,,,,,,
1465846147.43,2.710248,-0.040226,-1.458236,0.022880,-1.087700,0.016485,0.417755,0.040216,0.907669,0.029755,0.003882,-0.017807,-34.061893,-4.436207,-16.611973,,,,,,
1465846147.44,2.698540,-0.040381,-1.458500,0.022775,-1.169463,0.018062,0.428350,0.040370,0.902711,0.009546,0.002202,-0.009034,-34.645432,-4.425835,-15.360862,,,,,,
1465846147.45,2.686716,-0.040500,-1.458753,0.021700,-1.177957,0.018114,0.438992,0.040489,0.897578,-0.015331,0.001839,0.011937,-34.645432,-4.425835,-15.360862,,,,,,
1465846147.46,2.675581,-0.040629,-1.459020,0.023952,-1.080272,0.017504,0.448956,0.040618,0.892630,-0.051098,0.002794,0.037515,-34.645432,-4.425835,-15.360862,,,,,,
1465846147.47,2.666177,-0.040717,-1.459242,0.017784,-0.906130,0.015341,0.457329,0.040705,0.888365,-0.068093,-0.000437,0.051576,-34.998501,-4.420693,-14.540034,,,,,,
1465846147.48,2.658669,-0.040832,-1.459411,0.019088,-0.723484,0.008875,0.463984,0.040821,0.884903,-0.080424,-0.000354,0.059357,-34.998501,-4.420693,-14.540034,,,,,,
1465846147.49,2.654444,-0.040747,-1.459508,0.010805,-0.534472,0.008746,0.467720,0.040736,0.882938,-0.087578,-0.009044,0.048276,-34.998501,-4.420693,-14.540034,,,,,,
1465846147.51,2.647681,-0.040893,-1.459672,0.005880,-0.223349,0.002532,0.473678,0.040881,0.879749,-0.079009,-0.003741,0.045437,-35.451454,-4.408800,-13.401759,,,,,,
1465846147.52,2.646593,-0.040936,-1.459686,0.005010,-0.071505,-0.000550,0.474633,0.040924,0.879232,-0.067102,0.005218,0.045207,-35.451454,-4.408800,-13.401759,,,,,,
1465846147.50,2.650305,-0.040833,-1.459603,0.012077,-0.374131,0.004548,0.471368,0.040822,0.880991,-0.076013,0.003016,0.056692,-35.451454,-4.408800,-13.401759,,,,,,
1465846147.53,2.650394,-0.040884,-1.459549,-0.001319,0.067258,-0.001410,0.471289,0.040873,0.881031,-0.068121,-0.001551,0.027035,-35.541523,-4.408837,-13.161017,,,,,,
1465846147.54,2.652167,-0.040865,-1.459515,-0.003268,0.212723,-0.001260,0.469726,0.040853,0.881866,-0.058838,0.001154,0.041382,-35.541523,-4.408837,-13.161017,,,,,,
1465846147.55,2.658084,-0.041096,-1.459327,-0.005246,0.326367,-0.006233,0.464496,0.041084,0.884622,-0.049335,0.005822,0.037421,-35.541523,-4.408837,-13.161017,,,,,,
1465846147.56,2.662240,-0.041048,-1.459225,-0.010418,0.445294,-0.008049,0.460817,0.041037,0.886546,-0.044893,-0.001501,0.028844,-35.401104,-4.423251,-13.529477,,,,,,
1465846147.57,2.667251,-0.041019,-1.459103,-0.008191,0.521746,-0.009590,0.456369,0.041007,0.888845,-0.039667,0.001504,0.019144,-35.401104,-4.423251,-13.529477,,,,,,
1465846147.58,2.672931,-0.040936,-1.458980,-0.014515,0.580136,-0.005705,0.451314,0.040925,0.891426,-0.029134,-0.004014,0.020851,-35.401104,-4.423251,-13.529477,,,,,,
1465846147.59,2.679854,-0.041200,-1.458785,-0.011269,0.614129,-0.010174,0.445127,0.041188,0.894520,-0.010038,0.012080,0.024731,-35.275009,-4.426657,-13.853832,,,,,,
1465846147.60,2.686108,-0.041135,-1.458650,-0.012322,0.621565,-0.011286,0.439525,0.041123,0.897288,-0.003322,-0.009873,0.008290,-35.275009,-4.426657,-13.853832,,,,,,
1465846147.61,2.692017,-0.041103,-1.458517,-0.007053,0.581208,-0.008899,0.434216,0.041092,0.899871,0.012759,0.005463,-0.006881,-35.275009,-4.426657,-13.853832,,,,,,
1465846147.62,2.697204,-0.041068,-1.458388,-0.010348,0.497333,-0.010505,0.429544,0.041057,0.902112,0.018897,-0.002635,-0.012464,-34.918964,-4.443733,-14.723085,,,,,,
1465846147.63,2.700129,-0.041406,-1.458357,-0.005162,0.397495,-0.003488,0.426897,0.041394,0.903352,0.030135,0.008105,-0.015077,-34.918964,-4.443733,-14.723085,,,,,,
1465846147.64,2.701726,-0.041449,-1.458338,-0.006356,0.284950,-0.008106,0.425453,0.041437,0.904031,0.033547,0.001562,-0.021631,-34.918964,-4.443733,-14.723085,,,,,,
1465846147.65,2.701652,-0.041275,-1.458384,-0.003352,0.145820,0.000222,0.425523,0.041264,0.904006,0.041167,-0.003880,-0.024749,-34.797260,-4.456365,-15.004725,,,,,,
1465846147.66,2.699758,-0.041464,-1.458453,0.002848,-0.012393,-0.003038,0.427231,0.041452,0.903192,0.045151,0.004187,-0.029962,-34.797260,-4.456365,-15.004725,,,,,,
1465846147.67,2.696631,-0.041212,-1.458571,0.006898,-0.173809,0.001173,0.430058,0.041200,0.901861,0.035961,-0.008394,-0.025137,-34.797260,-4.456365,-15.004725,,,,,,
1465846147.68,2.692357,-0.041628,-1.458681,0.008865,-0.302300,0.003044,0.433901,0.041616,0.899999,0.029463,0.008768,-0.022924,-34.850639,-4.445462,-14.883580,,,,,,
1465846147.69,2.688050,-0.041482,-1.458800,0.008764,-0.380880,0.004602,0.437776,0.041471,0.898127,0.012633,-0.005734,-0.007395,-34.850639,-4.445462,-14.883580,,,,,,
1465846147.70,2.684096,-0.041932,-1.458900,0.008747,-0.388325,0.008905,0.441315,0.041920,0.896373,-0.005173,0.011150,-0.005580,-34.850639,-4.445462,-14.883580,,,,,,
1465846147.71,2.681075,-0.041954,-1.458943,0.006650,-0.369195,0.004525,0.444021,0.041941,0.895034,-0.021642,-0.000361,0.013932,-34.977318,-4.447433,-14.582788,,,,,,
1465846147.72,2.678980,-0.041906,-1.458975,0.008844,-0.317160,0.004201,0.445896,0.041894,0.894104,-0.032230,-0.002953,0.024368,-34.977318,-4.447433,-14.582788,,,,,,
1465846147.73,2.677842,-0.041883,-1.458969,0.005749,-0.239635,0.002648,0.446914,0.041871,0.893597,-0.038924,-0.001893,0.029194,-34.977318,-4.447433,-14.582788,,,,,,
1465846147.74,2.677823,-0.041867,-1.458937,0.005859,-0.151495,0.002095,0.446931,0.041854,0.893589,-0.047425,-0.001724,0.030224,-35.124130,-4.454605,-14.223295,,,,,,
1465846147.75,2.678896,-0.041975,-1.458867,-0.000397,-0.047421,0.000371,0.445970,0.041963,0.894064,-0.049745,0.003707,0.029810,-35.124130,-4.454605,-14.223295,,,,,,
1465846147.76,2.680935,-0.041963,-1.458796,0.000796,0.053463,-0.001325,0.444146,0.041951,0.894972,-0.048974,-0.000493,0.028231,-35.124130,-4.454605,-14.223295,,,,,,
1465846147.77,2.683728,-0.042019,-1.458705,-0.001213,0.149036,-0.001927,0.441643,0.042007,0.896207,-0.041863,0.002152,0.027041,-35.108597,-4.459763,-14.259985,,,,,,
1465846147.78,2.687023,-0.041954,-1.458611,-0.002195,0.211696,-0.004450,0.438689,0.041942,0.897660,-0.033583,-0.001613,0.028289,-35.108597,-4.459763,-14.259985,,,,,,
1465846147.79,2.690345,-0.041856,-1.458522,-0.004277,0.249928,-0.004691,0.435707,0.041844,0.899115,-0.023399,-0.002812,0.016595,-35.108597,-4.459763,-14.259985,,,,,,
1465846147.80,2.693265,-0.041960,-1.458442,-0.003216,0.248865,-0.003620,0.433078,0.041947,0.900380,-0.010257,0.004073,0.005611,-34.942093,-4.465013,-14.661644,,,,,,
1465846147.81,2.695589,-0.041986,-1.458398,-0.003255,0.215953,-0.004478,0.430984,0.041974,0.901383,-0.000197,0.001499,-0.001023,-34.942093,-4.465013,-14.661644,,,,,,
1465846147.82,2.697389,-0.041965,-1.458365,-0.003322,0.166042,-0.002036,0.429361,0.041953,0.902158,0.008887,0.000375,-0.008268,-34.942093,-4.465013,-14.661644,,,,,,
1465846147.83,2.698552,-0.041964,-1.458339,-0.000211,0.099147,-0.001613,0.428311,0.041951,0.902657,0.019748,-0.005147,-0.005944,-34.864059,-4.471797,-14.844218,,,,,,
1465846147.84,2.698269,-0.042043,-1.458367,0.002884,0.018447,-0.002169,0.428565,0.042031,0.902533,0.020685,0.001747,-0.012823,-34.864059,-4.471797,-14.844218,,,,,,
1465846147.85,2.697832,-0.042084,-1.458372,0.003843,-0.064377,-0.000584,0.428958,0.042071,0.902344,0.016079,0.000455,-0.013825,-34.864059,-4.471797,-14.844218,,,,,,
1465846147.87,2.694970,-0.042138,-1.458432,0.004756,-0.179064,0.004394,0.431538,0.042126,0.901110,0.000087,-0.001049,-0.007724,-34.830387,-4.475227,-14.922017,,,,,,
1465846147.86,2.696662,-0.042119,-1.458386,0.003759,-0.131270,-0.000164,0.430013,0.042106,0.901840,0.012095,0.006279,-0.009094,-34.830387,-4.475227,-14.922017,,,,,,
1465846147.88,2.693178,-0.042163,-1.458466,0.001546,-0.194982,0.002362,0.433152,0.042150,0.900335,-0.003633,0.000864,0.005442,-34.830387,-4.475227,-14.922017,,,,,,
1465846147.89,2.691697,-0.042061,-1.458498,0.006873,-0.188617,0.004457,0.434487,0.042049,0.899696,-0.012154,-0.004787,0.015022,-34.830387,-4.475227,-14.922017,,,,,,
1465846147.90,2.690638,-0.042061,-1.458490,0.003721,-0.163114,-0.001029,0.435439,0.042049,0.899236,-0.018325,-0.001033,0.018687,-34.921749,-4.471444,-14.708086,,,,,,
1465846147.91,2.690143,-0.042159,-1.458500,0.003768,-0.118525,0.002949,0.435883,0.042147,0.899016,-0.026566,0.002439,0.013368,-34.921749,-4.471444,-14.708086,,,,,,
1465846147.92,2.690330,-0.042154,-1.458477,0.001718,-0.059051,0.000445,0.435715,0.042141,0.899098,-0.029663,-0.000790,0.021648,-34.944382,-4.474195,-14.653398,,,,,,
1465846147.93,2.691032,-0.042215,-1.458451,0.000732,0.003601,0.000051,0.435083,0.042202,0.899401,-0.027521,0.001789,0.014494,-34.944382,-4.474195,-14.653398,,,,,,
1465846147.94,2.692251,-0.042159,-1.458416,-0.000261,0.060943,-0.000310,0.433987,0.042146,0.899933,-0.023464,-0.001878,0.017746,-34.944382,-4.474195,-14.653398,,,,,,
1465846147.96,2.695370,-0.042069,-1.458328,-0.001233,0.132096,-0.002885,0.431179,0.042057,0.901286,-0.011257,-0.003651,0.007009,-34.931076,-4.476989,-14.684231,,,,,,
1465846147.95,2.693751,-0.042154,-1.458376,-0.001267,0.106608,-0.001661,0.432636,0.042142,0.900583,-0.014545,0.000171,0.016562,-34.931076,-4.476989,-14.684231,,,,,,
1465846147.97,2.696822,-0.042173,-1.458301,-0.001223,0.139529,-0.002932,0.429868,0.042161,0.901907,-0.000715,0.004562,0.001566,-34.931076,-4.476989,-14.684231,,,,,,
1465846147.98,2.698032,-0.042119,-1.458285,-0.002315,0.123593,0.000360,0.428778,0.042107,0.902428,0.001535,-0.001915,-0.004799,-34.845028,-4.479558,-14.886495,,,,,,
1465846147.99,2.698827,-0.042090,-1.458279,-0.001283,0.093867,-0.001581,0.428061,0.042078,0.902770,0.009561,-0.000833,-0.002028,-34.845028,-4.479558,-14.886495,,,,,,
1465846148.00,2.699106,-0.042015,-1.458275,0.001855,0.047147,-0.002349,0.427810,0.042003,0.902892,0.011719,-0.003505,-0.008941,-34.845028,-4.479558,-14.886495,,,,,,
1465846148.02,2.698249,-0.042081,-1.458317,0.004933,-0.045235,-0.001767,0.428582,0.042068,0.902523,0.010489,-0.000275,-0.004162,-34.815205,-4.477748,-14.956653,,,,,,
1465846148.01,2.698870,-0.042047,-1.458301,0.002850,-0.004890,0.000107,0.428022,0.042034,0.902790,0.013674,0.000385,-0.002094,-34.815205,-4.477748,-14.956653,,,,,,
1465846148.03,2.697165,-0.042239,-1.458363,0.003789,-0.102585,0.002849,0.429557,0.042226,0.902052,0.001412,0.004527,-0.012998,-34.815205,-4.477748,-14.956653,,,,,,
1465846148.04,2.696053,-0.042200,-1.458388,0.000588,-0.107892,0.002879,0.430561,0.042187,0.901575,0.003658,-0.001187,0.006720,-34.815205,-4.477748,-14.956653,,,,,,
1465846148.05,2.695000,-0.042239,-1.458411,0.004832,-0.122753,0.000848,0.431510,0.042226,0.901119,-0.008750,0.000102,-0.005016,-34.840004,-4.479881,-14.898155,,,,,,
1465846148.06,2.694148,-0.042194,-1.458426,0.000588,-0.111069,0.000770,0.432278,0.042181,0.900753,-0.008984,-0.001806,0.015674,-34.840004,-4.479881,-14.898155,,,,,,
1465846148.08,2.693298,-0.042173,-1.458432,0.002769,-0.067534,0.001564,0.433044,0.042161,0.900386,-0.018493,-0.003571,0.010914,-39.444767,-9.835696,28.545742,,,,,,
1465846148.07,2.693595,-0.042216,-1.458428,0.007005,-0.089831,-0.000421,0.432776,0.042204,0.900513,-0.012991,-0.000791,0.013977,-39.444767,-9.835696,28.545742,,,,,,
1465846148.09,2.693530,-0.042229,-1.458401,0.001775,-0.016555,-0.001950,0.432834,0.042216,0.900484,-0.019306,0.002172,0.014402,-39.444767,-9.835696,28.545742,,,,,,
1465846148.10,2.694058,-0.042280,-1.458399,0.001810,0.016355,0.001037,0.432357,0.042267,0.900711,-0.019851,0.001190,0.007477,-39.402706,-9.836256,28.603582,,,,,,
1465846148.11,2.694929,-0.042202,-1.458369,-0.001326,0.060958,-0.000311,0.431574,0.042189,0.901090,-0.011927,-0.002699,0.014086,-39.402706,-9.836256,28.603582,,,,,,
1465846148.12,2.695902,-0.042231,-1.458351,0.000821,0.073703,-0.001453,0.430697,0.042219,0.901509,-0.010561,0.000460,0.003673,-39.402706,-9.836256,28.603582,,,,,,
1465846148.14,2.697713,-0.042244,-1.458305,0.001890,0.074768,-0.002523,0.429063,0.042231,0.902287,-0.002122,0.003057,-0.002354,-39.442486,-9.838048,28.548080,,,,,,
1465846148.13,2.696895,-0.042151,-1.458328,-0.001292,0.085387,-0.002593,0.429803,0.042139,0.901939,-0.002298,-0.002847,0.011819,-39.442486,-9.838048,28.548080,,,,,,
1465846148.15,2.698270,-0.042231,-1.458293,-0.001329,0.056716,-0.001348,0.428561,0.042219,0.902526,0.002531,-0.000776,-0.001266,-39.442486,-9.838048,28.548080,,,,,,
1465846148.16,2.698520,-0.042274,-1.458292,0.000769,0.033351,-0.000135,0.428334,0.042261,0.902632,0.007884,0.002157,-0.001005,-39.536758,-9.841406,28.416220,,,,,,
1465846148.17,2.698459,-0.042253,-1.458306,0.001792,0.001493,0.001130,0.428390,0.042240,0.902606,0.006775,-0.001759,-0.001574,-39.536758,-9.841406,28.416220,,,,,,
1465846148.18,2.698121,-0.042259,-1.458307,0.001757,-0.029294,-0.000806,0.428695,0.042247,0.902461,0.007096,-0.000041,0.000417,-39.536758,-9.841406,28.416220,,,,,,
1465846148.19,2.697506,-0.042289,-1.458331,0.002781,-0.060091,0.000453,0.429249,0.042277,0.902196,0.001964,-0.000330,-0.005086,-39.542149,-9.840610,28.408991,,,,,,
1465846148.20,2.696784,-0.042304,-1.458343,0.001698,-0.074955,0.000545,0.429900,0.042291,0.901886,-0.000777,0.000037,-0.000518,-39.542149,-9.840610,28.408991,,,,,,
1465846148.21,2.696059,-0.042388,-1.458365,0.003817,-0.083450,0.000600,0.430552,0.042376,0.901570,-0.006160,0.002531,-0.001683,-39.542149,-9.840610,28.408991,,,,,,
1465846148.22,2.695491,-0.042388,-1.458374,0.001697,-0.073895,0.001602,0.431064,0.042375,0.901326,-0.008350,-0.000399,0.007747,-39.473892,-9.836586,28.505146,,,,,,
1465846148.23,2.695103,-0.042363,-1.458377,0.003846,-0.060088,0.000454,0.431415,0.042350,0.901159,-0.008899,-0.002555,0.012079,-39.473892,-9.836586,28.505146,,,,,,
1465846148.24,2.694910,-0.042325,-1.458379,0.003869,-0.043094,-0.000717,0.431589,0.042313,0.901077,-0.012491,-0.004196,0.009262,-39.473892,-9.836586,28.505146,,,,,,
1465846148.25,2.695051,-0.042348,-1.458376,0.004970,-0.014424,-0.000896,0.431462,0.042336,0.901137,-0.014088,-0.000862,0.012666,-39.446846,-9.836267,28.542669,,,,,,
1465846148.26,2.695425,-0.042358,-1.458365,0.002872,0.011063,-0.001058,0.431125,0.042345,0.901298,-0.015246,-0.001146,0.006035,-39.446846,-9.836267,28.542669,,,,,,
1465846148.27,2.695941,-0.042415,-1.458350,0.000770,0.032301,-0.001193,0.430659,0.042402,0.901518,-0.010889,0.002748,0.006074,-39.446846,-9.836267,28.542669,,,,,,
1465846148.28,2.696556,-0.042439,-1.458349,-0.000283,0.045039,0.000855,0.430104,0.042426,0.901782,-0.008061,0.001000,0.004849,-39.470253,-9.837079,28.510014,,,,,,
1465846148.29,2.697142,-0.042391,-1.458342,-0.000270,0.052478,-0.001321,0.429576,0.042378,0.902036,-0.001551,-0.002248,0.006106,-39.470253,-9.837079,28.510014,,,,,,
1465846148.30,2.697712,-0.042388,-1.458332,0.001849,0.043983,-0.001265,0.429061,0.042376,0.902281,-0.003677,-0.000979,0.003679,-39.470253,-9.837079,28.510014,,,,,,
1465846148.31,2.698023,-0.042395,-1.458341,0.003954,0.025928,-0.000086,0.428781,0.042382,0.902414,0.000449,-0.000863,-0.000848,-39.504486,-9.837691,28.462345,,,,,,
1465846148.33,2.698092,-0.042464,-1.458360,0.001782,-0.009107,-0.000932,0.428717,0.042451,0.902441,-0.000509,-0.000978,-0.003286,-39.504486,-9.837691,28.462345,,,,,,
1465846148.32,2.698125,-0.042444,-1.458361,0.008189,0.006814,0.000039,0.428688,0.042431,0.902456,-0.000480,-0.000958,-0.003301,-39.504486,-9.837691,28.462345,,,,,,
1465846148.34,2.697799,-0.042481,-1.458382,0.006008,-0.033534,0.000290,0.428981,0.042468,0.902315,0.001683,-0.001101,0.000884,-39.504486,-9.837691,28.462345,,,,,,
1465846148.35,2.697404,-0.042496,-1.458393,0.005998,-0.045208,-0.001766,0.429337,0.042484,0.902144,0.000655,-0.001849,0.004304,-39.531395,-9.836197,28.425478,,,,,,
1465846148.36,2.696941,-0.042509,-1.458393,0.000663,-0.052640,-0.000660,0.429755,0.042497,0.901945,-0.000723,-0.000138,0.004137,-39.531395,-9.836197,28.425478,,,,,,
1465846148.37,2.696483,-0.042521,-1.458401,0.002782,-0.059014,0.000446,0.430168,0.042508,0.901747,-0.005684,-0.000333,0.003221,-39.512016,-9.834309,28.453060,,,,,,
1465846148.38,2.696140,-0.042508,-1.458408,0.000663,-0.047338,0.002500,0.430477,0.042495,0.901601,-0.007458,-0.000991,0.005077,-39.512016,-9.834309,28.453060,,,,,,
1465846148.39,2.695926,-0.042510,-1.458415,0.002809,-0.037776,0.000313,0.430670,0.042497,0.901509,-0.008413,-0.001100,0.005108,-39.512016,-9.834309,28.453060,,,,,,
1465846148.40,2.695909,-0.042534,-1.458414,0.003892,-0.025030,-0.000830,0.430685,0.042522,0.901500,-0.009451,0.000127,0.011357,-39.470093,-9.833158,28.511589,,,,,,
1465846148.41,2.696072,-0.042468,-1.458406,0.002848,-0.008039,-0.000938,0.430539,0.042455,0.901573,-0.009549,-0.004140,0.012902,-39.470093,-9.833158,28.511589,,,,,,
1465846148.42,2.696325,-0.042484,-1.458411,0.002868,0.010010,0.000014,0.430311,0.042472,0.901681,-0.008573,-0.000434,0.005759,-39.474327,-9.833933,28.505455,,,,,,
1465846148.43,2.696711,-0.042526,-1.458392,0.000750,0.015327,-0.002151,0.429962,0.042513,0.901845,-0.009781,0.001951,0.007700,-39.474327,-9.833933,28.505455,,,,,,
1465846148.44,2.697065,-0.042597,-1.458395,0.001818,0.022751,0.000997,0.429641,0.042584,0.901995,-0.007644,0.002597,0.002485,-39.474327,-9.833933,28.505455,,,,,,
1465846148.45,2.697453,-0.042573,-1.458387,-0.001366,0.031248,0.000940,0.429292,0.042560,0.902162,-0.003434,-0.000263,0.001661,-39.492149,-9.834117,28.480698,,,,,,
1465846148.46,2.697748,-0.042566,-1.458374,0.000759,0.022761,-0.002198,0.429026,0.042554,0.902289,-0.000269,-0.001004,0.003457,-39.492149,-9.834117,28.480698,,,,,,
