timestamp,attitude_roll,attitude_pitch,attitude_yaw,rotation_rate_x,rotation_rate_y,rotation_rate_z,gravity_x,gravity_y,gravity_z,user_acc_x,user_acc_y,user_acc_z,magnetic_field_x,magnetic_field_y,magnetic_field_z,latitude(degree),longitude(degree),altitude(meter),speed(m/s),course(degree),timestamp
1466441571.12,-0.289349,-0.002695,-1.758675,0.007230,-0.258367,0.002822,-0.285328,0.002695,-0.958426,-0.005520,-0.000956,0.005637,34.781414,127.415581,-18.330471,,,,,,
1466441571.13,-0.291858,-0.002674,-1.758627,0.007237,-0.250937,0.003840,-0.287731,0.002674,-0.957708,0.001751,0.002437,0.001165,34.781414,127.415581,-18.330471,,,,,,
1466441571.14,-0.294190,-0.002602,-1.758559,0.006146,-0.268992,0.006081,-0.289963,0.002602,-0.957034,0.016801,-0.001335,-0.010068,34.781414,127.415581,-18.330471,,,,,,
1466441571.15,-0.296644,-0.002553,-1.758480,0.008205,-0.325265,0.006436,-0.292311,0.002553,-0.956320,0.035674,0.000544,-0.020044,34.692322,127.410957,-18.530273,,,,,,
1466441571.16,-0.299731,-0.002499,-1.758357,0.008074,-0.424016,0.010248,-0.295262,0.002499,-0.955413,0.049565,-0.000347,-0.035935,34.692322,127.410957,-18.530273,,,,,,
1466441571.17,-0.303919,-0.002465,-1.758203,0.014295,-0.552500,0.014254,-0.299261,0.002465,-0.954168,0.063894,0.003731,-0.041163,34.692322,127.410957,-18.530273,,,,,,
1466441571.18,-0.309916,-0.002370,-1.758010,0.017292,-0.709645,0.015242,-0.304978,0.002370,-0.952356,0.071641,0.001948,-0.049612,34.509834,127.392975,-18.989050,,,,,,
,,,,,,,,,,,,,,,,29.719946,-95.399048,9.640932,-1.000000,-1.000000,1466441569.00
1466441571.19,-0.318285,-0.002221,-1.757779,0.022374,-0.900774,0.017510,-0.312937,0.002221,-0.949771,0.074274,0.000511,-0.052228,34.509834,127.392975,-18.989050,,,,,,
1466441571.20,-0.328000,-0.002048,-1.757526,0.024380,-0.999522,0.018132,-0.322150,0.002048,-0.946686,0.064871,0.000210,-0.031890,34.509834,127.392975,-18.989050,,,,,,
1466441571.21,-0.339269,-0.001850,-1.757240,0.028409,-1.178975,0.021390,-0.332797,0.001850,-0.942997,0.042255,-0.002384,-0.038632,34.275009,127.374695,-19.529278,,,,,,
1466441571.22,-0.352048,-0.001639,-1.756913,0.031455,-1.295777,0.023190,-0.344821,0.001639,-0.938667,0.022738,0.000436,-0.010887,34.275009,127.374695,-19.529278,,,,,,
1466441571.23,-0.365114,-0.001428,-1.756580,0.030368,-1.311707,0.024353,-0.357056,0.001428,-0.934082,0.019959,0.000006,-0.001068,34.275009,127.374695,-19.529278,,,,,,
1466441571.24,-0.378510,-0.001208,-1.756236,0.033518,-1.348868,0.023525,-0.369536,0.001208,-0.929216,0.004714,0.004255,0.004411,33.429802,127.321983,-21.261280,,,,,,
1466441571.25,-0.391941,-0.001004,-1.755894,0.031411,-1.330817,0.023410,-0.381983,0.001004,-0.924169,-0.011419,0.002490,0.018941,33.429802,127.321983,-21.261280,,,,,,
1466441571.26,-0.404620,-0.000799,-1.755569,0.032591,-1.240561,0.021781,-0.393669,0.000799,-0.919252,-0.037468,0.003520,0.042100,33.429802,127.321983,-21.261280,,,,,,
1466441571.27,-0.415844,-0.000622,-1.755275,0.026410,-1.077038,0.019684,-0.403962,0.000622,-0.914776,-0.051849,-0.000103,0.051037,32.907543,127.291946,-22.233618,,,,,,
1466441571.28,-0.425432,-0.000465,-1.755015,0.023409,-0.926254,0.016607,-0.412714,0.000465,-0.910861,-0.025274,-0.001564,0.037554,32.907543,127.291946,-22.233618,,,,,,
1466441571.29,-0.434503,-0.000340,-1.754776,0.022366,-0.909265,0.016499,-0.420960,0.000340,-0.907079,-0.000122,0.000148,0.005712,32.907543,127.291946,-22.233618,,,,,,
1466441571.30,-0.443980,-0.000192,-1.754516,0.024431,-0.959174,0.017879,-0.429537,0.000192,-0.903049,0.008516,0.000433,-0.005291,32.025223,127.243050,-23.750206,,,,,,
1466441571.31,-0.453754,-0.000053,-1.754255,0.023338,-0.981471,0.018017,-0.438343,0.000053,-0.898808,0.017002,0.001290,-0.003429,32.025223,127.243050,-23.750206,,,,,,
,,,,,,,,,,,,,,,,29.719949,-95.399059,9.640932,-1.000000,-1.000000,1466441606.20
1466441571.32,-0.463815,0.000090,-1.753981,0.024358,-1.017573,0.018245,-0.447363,-0.000090,-0.894352,0.023123,0.001814,-0.007824,32.025223,127.243050,-23.750206,,,,,,
,,,,,,,,,,,,,,,,29.719952,-95.399070,9.640932,-1.000000,-1.000000,1466441606.24
1466441571.33,-0.474414,0.000229,-1.753694,0.026415,-1.073852,0.019664,-0.456818,-0.000229,-0.889560,0.010086,0.001098,-0.003094,31.605696,127.220360,-24.424200,,,,,,
1466441571.34,-0.485107,0.000368,-1.753389,0.026428,-1.061113,0.020649,-0.466303,-0.000368,-0.884625,-0.006460,0.000886,0.015179,31.605696,127.220360,-24.424200,,,,,,
1466441571.35,-0.495174,0.000509,-1.753125,0.023339,-0.984650,0.015908,-0.475185,-0.000509,-0.879886,-0.017522,0.002691,0.033161,31.605696,127.220360,-24.424200,,,,,,
1466441571.36,-0.504348,0.000630,-1.752858,0.022378,-0.898650,0.017497,-0.483237,-0.000630,-0.875489,-0.018991,-0.001307,0.025071,30.659674,127.171524,-25.843176,,,,,,
1466441571.37,-0.513120,0.000734,-1.752609,0.023479,-0.873161,0.015209,-0.490898,-0.000734,-0.871217,0.002525,0.003816,0.011476,30.659674,127.171524,-25.843176,,,,,,
1466441571.38,-0.522077,0.000859,-1.752355,0.023435,-0.906080,0.016480,-0.498681,-0.000859,-0.866785,0.013009,0.000218,-0.005346,30.659674,127.171524,-25.843176,,,,,,
1466441571.39,-0.531512,0.000970,-1.752091,0.023373,-0.955985,0.016793,-0.506837,-0.000970,-0.862042,0.026765,0.002618,-0.009006,30.234098,127.149414,-26.446270,,,,,,
1466441571.40,-0.541663,0.001103,-1.751806,0.026458,-1.040933,0.018393,-0.515561,-0.001103,-0.856852,0.051343,0.002201,-0.023473,30.234098,127.149414,-26.446270,,,,,,
1466441571.41,-0.552627,0.001206,-1.751480,0.029438,-1.206581,0.022629,-0.524925,-0.001206,-0.851148,0.069145,0.002915,-0.040179,30.234098,127.149414,-26.446270,,,,,,
1466441571.42,-0.566172,0.001341,-1.751105,0.031323,-1.399833,0.024907,-0.536405,-0.001341,-0.843960,0.066373,0.000456,-0.043461,29.256683,127.101059,-27.746157,,,,,,
1466441571.43,-0.581193,0.001508,-1.750680,0.039677,-1.529380,0.026792,-0.549021,-0.001508,-0.835807,0.053858,0.003583,-0.023461,29.256683,127.101059,-27.746157,,,,,,
1466441571.44,-0.596995,0.001661,-1.750226,0.038529,-1.592032,0.029313,-0.562159,-0.001661,-0.827027,0.033854,0.000532,-0.007491,29.256683,127.101059,-27.746157,,,,,,
1466441571.45,-0.613069,0.001813,-1.749750,0.039569,-1.610086,0.030492,-0.575379,-0.001813,-0.817885,0.030122,0.001035,0.003721,28.516184,127.066940,-28.658356,,,,,,
1466441571.46,-0.629519,0.001967,-1.749249,0.041630,-1.663180,0.031891,-0.588755,-0.001967,-0.808309,0.052378,0.002867,-0.009074,28.516184,127.066940,-28.658356,,,,,,
1466441571.47,-0.647233,0.002116,-1.748726,0.043574,-1.810772,0.032819,-0.602980,-0.002116,-0.797753,0.072066,0.001688,-0.029075,28.516184,127.066940,-28.658356,,,,,,
1466441571.48,-0.666610,0.002255,-1.748161,0.046548,-1.981732,0.037087,-0.618324,-0.002255,-0.785920,0.095420,0.002545,-0.034896,28.516184,127.066940,-28.658356,,,,,,
1466441571.49,-0.688192,0.002405,-1.747534,0.054743,-2.235512,0.040816,-0.635140,-0.002405,-0.772393,0.127632,0.003427,-0.057761,26.714340,126.984322,-30.688873,,,,,,
1466441571.50,-0.712980,0.002576,-1.746801,0.063902,-2.566812,0.047161,-0.654089,-0.002576,-0.756413,0.156622,0.006528,-0.073878,26.714340,126.984322,-30.688873,,,,,,
1466441571.51,-0.741375,0.002751,-1.745955,0.073025,-2.926779,0.053685,-0.675300,-0.002751,-0.737538,0.154105,0.004628,-0.073665,25.528980,126.934349,-31.881428,,,,,,
1466441571.52,-0.772786,0.002919,-1.745003,0.077994,-3.203921,0.058622,-0.698129,-0.002919,-0.715966,0.153528,0.005818,-0.050483,25.528980,126.934349,-31.881428,,,,,,
,,,,,,,,,,,,,,,,29.719962,-95.399147,9.575231,-1.000000,-1.000000,1466441606.44
1466441571.53,-0.806721,0.003060,-1.743973,0.086185,-3.457708,0.064479,-0.722019,-0.003060,-0.691866,0.158329,0.001244,-0.040174,25.528980,126.934349,-31.881428,,,,,,
1466441571.54,-0.843656,0.003182,-1.742844,0.095355,-3.783691,0.068662,-0.747074,-0.003182,-0.664733,0.210209,0.002801,-0.058854,21.832767,126.785660,-35.060070,,,,,,
1466441571.55,-0.885184,0.003265,-1.741604,0.102178,-4.276389,0.078145,-0.774027,-0.003265,-0.633144,0.212901,0.004089,-0.080251,21.832767,126.785660,-35.060070,,,,,,
1466441571.56,-0.930553,0.003292,-1.740205,0.112396,-4.612994,0.083460,-0.801946,-0.003292,-0.597388,0.229284,0.006145,-0.040888,21.832767,126.785660,-35.060070,,,,,,
1466441571.57,-0.979437,0.003260,-1.738737,0.120444,-4.984635,0.087927,-0.830179,-0.003260,-0.557487,0.246866,0.006602,-0.040901,19.187691,126.687820,-36.912163,,,,,,
1466441571.58,-1.032304,0.003138,-1.737102,0.136961,-5.364828,0.111617,-0.858479,-0.003138,-0.512840,0.217182,0.004954,-0.020867,19.187691,126.687820,-36.912163,,,,,,
1466441571.59,-1.088787,0.002882,-1.735477,0.135433,-5.760832,0.097068,-0.886062,-0.002882,-0.463558,0.346984,0.036528,-0.036854,19.187691,126.687820,-36.912163,,,,,,
1466441571.60,-1.151595,0.002532,-1.733569,0.156868,-6.465936,0.121736,-0.913412,-0.002532,-0.407029,0.346822,-0.012437,-0.074492,11.730947,126.439194,-40.693928,,,,,,
1466441571.61,-1.220882,0.001988,-1.731530,0.178467,-7.069057,0.127669,-0.939400,-0.001988,-0.342817,0.414696,0.026341,-0.027788,11.730947,126.439194,-40.693928,,,,,,
1466441571.62,-1.296624,0.001231,-1.729340,0.183976,-7.751831,0.143666,-0.962649,-0.001231,-0.270750,0.453677,0.003490,-0.032137,11.730947,126.439194,-40.693928,,,,,,
1466441571.63,-1.379422,0.000521,-1.727059,0.221641,-8.309250,0.130168,-0.981744,-0.000521,-0.190209,0.013467,0.074511,0.152031,11.730947,126.439194,-40.693928,,,,,,
1466441571.64,-1.449473,-0.000530,-1.725259,0.138859,-6.389483,0.123368,-0.992649,0.000530,-0.121026,-0.404171,-0.033398,0.661675,0.073202,126.105057,-43.335800,,,,,,
1466441571.65,-1.496233,-0.001335,-1.723939,0.120327,-4.224393,0.086353,-0.997221,0.001335,-0.074494,-0.358691,0.015907,0.615266,0.073202,126.105057,-43.335800,,,,,,
1466441571.66,-1.533832,-0.002066,-1.723028,0.080513,-3.723179,0.074654,-0.999315,0.002066,-0.036956,-0.167510,0.000391,0.239486,-4.715322,125.986618,-43.423733,,,,,,
1466441571.67,-1.572269,-0.002814,-1.722035,0.102679,-3.880331,0.073533,-0.999995,0.002814,0.001472,-0.035116,0.006051,0.042549,-4.715322,125.986618,-43.423733,,,,,,
1466441571.69,-1.647580,-0.004345,-1.720306,0.096531,-3.695562,0.068110,-0.997044,0.004345,0.076707,0.049901,0.020343,0.064619,-7.814571,125.916199,-43.180157,,,,,,
1466441571.68,-1.610493,-0.003621,-1.721183,0.079365,-3.789010,0.075066,-0.999206,0.003621,0.039686,0.028029,-0.008077,0.065539,-7.814571,125.916199,-43.180157,,,,,,
1466441571.70,-1.685065,-0.005063,-1.719545,0.079410,-3.774109,0.062199,-0.993466,0.005063,0.114019,0.052944,0.017337,0.024577,-7.814571,125.916199,-43.180157,,,,,,
1466441571.71,-1.722475,-0.005868,-1.718722,0.093330,-3.697690,0.070249,-0.988502,0.005868,0.151095,-0.010873,-0.006051,0.070371,-10.866056,125.853081,-42.701443,,,,,,
1466441571.72,-1.757256,-0.006643,-1.718023,0.079851,-3.417353,0.063155,-0.982645,0.006643,0.185377,0.044657,0.014536,0.106005,-10.866056,125.853081,-42.701443,,,,,,
1466441571.73,-1.792727,-0.007484,-1.717302,0.088081,-3.635047,0.071980,-0.975447,0.007484,0.220107,0.120604,-0.007026,-0.022720,-10.866056,125.853081,-42.701443,,,,,,
1466441571.74,-1.832562,-0.008427,-1.716555,0.101337,-4.103306,0.073865,-0.965900,0.008427,0.258778,0.111057,-0.007969,-0.061390,-10.866056,125.853081,-42.701443,,,,,,
1466441571.75,-1.876199,-0.009526,-1.715746,0.107311,-4.418691,0.085429,-0.953683,0.009526,0.300663,0.152398,-0.000707,-0.049275,-10.866056,125.853081,-42.701443,,,,,,
1466441571.76,-1.921720,-0.010679,-1.714989,0.112388,-4.617248,0.085615,-0.939002,0.010679,0.343745,0.208152,0.012728,-0.015102,-19.813061,125.691292,-39.870094,,,,,,
1466441571.77,-1.971265,-0.011959,-1.714222,0.120320,-5.075965,0.093822,-0.920813,0.011959,0.389822,0.204413,0.005421,-0.057134,-19.813061,125.691292,-39.870094,,,,,,
1466441571.78,-2.024420,-0.013412,-1.713448,0.133783,-5.367985,0.102054,-0.898784,0.013411,0.438186,0.190258,0.006364,-0.003310,-23.301964,125.640549,-38.104485,,,,,,
1466441571.79,-2.079737,-0.014965,-1.712770,0.132416,-5.601656,0.108843,-0.873163,0.014964,0.487198,0.232264,0.004201,-0.003662,-23.301964,125.640549,-38.104485,,,,,,
1466441571.80,-2.139615,-0.016681,-1.712110,0.149836,-6.135767,0.117532,-0.842421,0.016680,0.538562,0.287977,0.018400,-0.031970,-23.301964,125.640549,-38.104485,,,,,,
1466441571.81,-2.205254,-0.018587,-1.711504,0.159787,-6.685794,0.124185,-0.805254,0.018586,0.592638,0.292345,0.012618,-0.039828,-27.050064,125.595543,-35.700619,,,,,,
1466441571.82,-2.275653,-0.020659,-1.711017,0.171937,-7.174251,0.134712,-0.761542,0.020658,0.647786,0.350791,0.017733,-0.000890,-27.050064,125.595543,-35.700619,,,,,,
1466441571.83,-2.351772,-0.022943,-1.710664,0.179696,-7.771003,0.143784,-0.710040,0.022941,0.703788,0.375186,0.002282,0.002176,-31.035061,125.561043,-32.430389,,,,,,
1466441571.84,-2.434071,-0.025391,-1.710488,0.199153,-8.372020,0.157153,-0.649743,0.025388,0.759730,0.380929,0.009372,0.037526,-31.035061,125.561043,-32.430389,,,,,,
1466441571.85,-2.521497,-0.028091,-1.710439,0.215562,-8.864716,0.164517,-0.580883,0.028088,0.813502,0.406781,0.014561,0.096364,-31.035061,125.561043,-32.430389,,,,,,
1466441571.86,-2.614880,-0.030888,-1.710691,0.228589,-9.500766,0.177035,-0.502455,0.030883,0.864052,0.442075,0.026643,0.111870,-38.997669,125.562790,-22.218235,,,,,,
1466441571.87,-2.714025,-0.033807,-1.711261,0.227856,-10.092178,0.176486,-0.414422,0.033800,0.909457,0.508157,0.003721,0.101957,-38.997669,125.562790,-22.218235,,,,,,
1466441571.88,-2.820296,-0.036880,-1.712226,0.256726,-10.819569,0.195979,-0.315583,0.036872,0.948181,0.554245,0.004129,0.191269,-38.997669,125.562790,-22.218235,,,,,,
1466441571.89,-2.934843,-0.040042,-1.713613,0.270574,-11.631910,0.221312,-0.205115,0.040031,0.977919,0.576102,0.014473,0.269960,-39.321159,125.722176,-16.587887,,,,,,
1466441571.90,-3.056625,-0.043132,-1.715432,0.290948,-12.359267,0.230151,-0.084787,0.043119,0.995466,0.646234,0.029956,0.313250,-39.321159,125.722176,-16.587887,,,,,,
1466441571.91,3.097508,-0.046292,-1.717737,0.315629,-13.037802,0.245076,0.044023,0.046276,0.997958,0.606551,0.028737,0.448697,-41.548649,125.827156,-8.283150,,,,,,
1466441571.92,2.965228,-0.049062,-1.720547,0.302574,-13.254412,0.249615,0.175240,0.049042,0.983303,0.555717,0.014755,0.569583,-41.548649,125.827156,-8.283150,,,,,,
1466441571.93,2.831250,-0.051575,-1.723723,0.326874,-13.408380,0.248476,0.304979,0.051552,0.950963,0.503981,0.035530,0.685802,-41.548649,125.827156,-8.283150,,,,,,
1466441571.94,2.697048,-0.053589,-1.727182,0.306683,-13.380756,0.246153,0.429430,0.053563,0.901510,0.443083,0.027217,0.746851,-41.548649,125.827156,-8.283150,,,,,,
1466441571.95,2.564708,-0.055142,-1.730844,0.318707,-13.137601,0.241447,0.544586,0.055114,0.836892,0.354446,0.025437,0.819068,-39.448963,126.244987,11.548189,,,,,,
1466441571.96,2.437062,-0.056207,-1.734535,0.298129,-12.577999,0.230466,0.646653,0.056177,0.760712,0.224684,0.026113,0.867645,-39.448963,126.244987,11.548189,,,,,,
1466441571.97,2.317087,-0.056736,-1.738122,0.282130,-11.764627,0.216833,0.733031,0.056705,0.677827,0.109880,0.027264,0.882063,-34.514736,126.529404,20.649931,,,,,,
1466441571.98,2.205987,-0.056832,-1.741462,0.257743,-10.846135,0.203597,0.803659,0.056801,0.592373,-0.010354,0.022011,0.858951,-34.514736,126.529404,20.649931,,,,,,
1466441571.99,2.105523,-0.056597,-1.744464,0.228282,-9.746041,0.178573,0.859030,0.056567,0.508790,-0.112601,0.009717,0.821838,-34.514736,126.529404,20.649931,,,,,,
1466441572.00,2.017650,-0.056159,-1.747082,0.206544,-8.430408,0.152204,0.900389,0.056129,0.431449,-0.248214,0.015923,0.778878,-34.514736,126.529404,20.649931,,,,,,
1466441572.01,1.943241,-0.055620,-1.749225,0.163523,-7.102026,0.127864,0.930000,0.055591,0.363331,-0.318871,0.001507,0.696560,-21.092247,127.061874,32.214466,,,,,,
1466441572.02,1.882702,-0.055081,-1.750995,0.142985,-5.673850,0.103984,0.950307,0.055053,0.306408,-0.433416,0.002686,0.644627,-21.092247,127.061874,32.214466,,,,,,
1466441572.03,1.837907,-0.054605,-1.752236,0.091805,-4.066199,0.073626,0.963100,0.054578,0.263552,-0.514568,0.000582,0.584195,-21.092247,127.061874,32.214466,,,,,,
1466441572.04,1.808944,-0.054285,-1.753052,0.065041,-2.515898,0.043651,0.970345,0.054259,0.235556,-0.544533,-0.000136,0.527063,-11.333567,127.359749,35.755013,,,,,,
1466441572.05,1.794890,-0.054117,-1.753425,0.021161,-1.021878,0.019335,0.973568,0.054090,0.221898,-0.587430,-0.001265,0.453334,-11.333567,127.359749,35.755013,,,,,,
1466441572.06,1.796301,-0.054146,-1.753400,-0.009869,0.522055,-0.010603,0.973253,0.054120,0.223270,-0.573335,-0.003842,0.432888,-11.333567,127.359749,35.755013,,,,,,
1466441572.07,1.812338,-0.054347,-1.752941,-0.047431,1.954496,-0.037720,0.969537,0.054321,0.238846,-0.556192,-0.003707,0.387359,-9.693544,127.404900,36.074970,,,,,,
1466441572.08,1.842695,-0.054723,-1.752117,-0.078605,3.386933,-0.064830,0.961821,0.054696,0.268159,-0.525801,-0.003717,0.387694,-9.693544,127.404900,36.074970,,,,,,
1466441572.09,1.886150,-0.055211,-1.750876,-0.113206,4.638857,-0.087619,0.949238,0.055183,0.309681,-0.437260,-0.004432,0.360180,-9.693544,127.404900,36.074970,,,,,,
1466441572.10,1.941813,-0.055769,-1.749280,-0.138249,5.869544,-0.111329,0.930510,0.055740,0.362000,-0.402953,0.000626,0.374496,-13.168961,127.307816,35.308319,,,,,,
1466441572.11,2.009872,-0.056290,-1.747290,-0.167581,7.080052,-0.132788,0.903711,0.056261,0.424429,-0.306635,0.004897,0.409280,-13.168961,127.307816,35.308319,,,,,,
1466441572.12,2.088147,-0.056729,-1.745032,-0.185528,8.035709,-0.148379,0.867734,0.056699,0.493784,-0.197141,0.012592,0.405386,-13.168961,127.307816,35.308319,,,,,,
1466441572.13,2.174769,-0.057004,-1.742453,-0.205788,8.840601,-0.166221,0.821749,0.056974,0.566994,-0.088824,0.003802,0.409965,-17.736822,127.170433,33.770741,,,,,,
1466441572.14,2.269561,-0.057078,-1.739634,-0.226032,9.661414,-0.182033,0.764391,0.057047,0.642225,-0.005708,0.017508,0.450747,-17.736822,127.170433,33.770741,,,,,,
1466441572.15,2.370796,-0.056790,-1.736592,-0.245550,10.222068,-0.189827,0.695584,0.056759,0.716200,0.142719,0.002170,0.455767,-17.736822,127.170433,33.770741,,,,,,
1466441572.16,2.475834,-0.056230,-1.733527,-0.245119,10.560791,-0.195144,0.616680,0.056200,0.785205,0.247196,0.021788,0.438916,-29.521238,126.755287,26.248217,,,,,,
1466441572.17,2.583234,-0.055234,-1.730420,-0.259777,10.760416,-0.195346,0.528987,0.055206,0.846833,0.354085,0.016785,0.416946,-29.521238,126.755287,26.248217,,,,,,
1466441572.18,2.691043,-0.054013,-1.727462,-0.249140,10.743435,-0.200551,0.434825,0.053987,0.898895,0.452458,0.027525,0.389633,-29.521238,126.755287,26.248217,,,,,,
1466441572.19,2.796942,-0.052465,-1.724680,-0.249463,10.492838,-0.194722,0.337403,0.052441,0.939899,0.540863,0.022556,0.349530,-34.942490,126.512245,20.026245,,,,,,
1466441572.20,2.898617,-0.050695,-1.722174,-0.238354,10.020316,-0.186426,0.240283,0.050673,0.969379,0.612333,0.017182,0.262493,-34.942490,126.512245,20.026245,,,,,,
1466441572.21,2.994175,-0.048870,-1.719984,-0.217878,9.372598,-0.179150,0.146709,0.048851,0.987973,0.651341,0.019905,0.194232,-34.942490,126.512245,20.026245,,,,,,
1466441572.22,3.082454,-0.046972,-1.718126,-0.201809,8.623980,-0.160601,0.059039,0.046955,0.997151,0.666349,0.019573,0.116893,-41.214561,126.093056,5.410873,,,,,,
1466441572.23,-3.120978,-0.045177,-1.716595,-0.177391,7.732030,-0.146467,-0.020593,0.045162,0.998767,0.679986,0.017979,0.044583,-41.214561,126.093056,5.410873,,,,,,
1466441572.24,-3.050912,-0.043459,-1.715407,-0.159484,6.757236,-0.122240,-0.090471,0.043445,0.994951,0.648073,0.018811,-0.046739,-41.214561,126.093056,5.410873,,,,,,
1466441572.25,-2.991028,-0.041942,-1.714462,-0.134197,5.709201,-0.107126,-0.149864,0.041930,0.987817,0.648506,0.022371,-0.115869,-41.975433,125.953323,-1.095014,,,,,,
1466441572.26,-2.942840,-0.040645,-1.713794,-0.109112,4.515672,-0.081520,-0.197284,0.040634,0.979504,0.631946,0.013428,-0.201550,-41.975433,125.953323,-1.095014,,,,,,
1466441572.27,-2.907160,-0.039683,-1.713319,-0.074540,3.235088,-0.061745,-0.232108,0.039673,0.971881,0.625708,0.015335,-0.275363,-41.975433,125.953323,-1.095014,,,,,,
1466441572.28,-2.884266,-0.039067,-1.713035,-0.045264,1.985284,-0.036846,-0.254302,0.039057,0.966336,0.569473,0.004812,-0.318982,-41.349945,125.814583,-9.394181,,,,,,
1466441572.29,-2.873378,-0.038767,-1.712909,-0.016990,0.782206,-0.014371,-0.264811,0.038757,0.963521,0.544611,0.007660,-0.335424,-41.349945,125.814583,-9.394181,,,,,,
1466441572.30,-2.875231,-0.038834,-1.712937,0.012231,-0.511131,0.010801,-0.263025,0.038824,0.964008,0.526605,0.001871,-0.360797,-41.349945,125.814583,-9.394181,,,,,,
1466441572.31,-2.889930,-0.039257,-1.713104,0.044685,-1.781099,0.031571,-0.248823,0.039247,0.967754,0.501325,0.005828,-0.375682,-41.089523,125.796692,-10.687344,,,,,,
1466441572.32,-2.916413,-0.039992,-1.713427,0.070905,-2.923653,0.053666,-0.223103,0.039981,0.973975,0.465489,0.007168,-0.348059,-41.089523,125.796692,-10.687344,,,,,,
1466441572.33,-2.953088,-0.040994,-1.713916,0.093078,-3.899499,0.073646,-0.187232,0.040983,0.981460,0.420738,0.008211,-0.288223,-41.089523,125.796692,-10.687344,,,,,,
1466441572.34,-2.999681,-0.042240,-1.714590,0.117327,-4.920999,0.091785,-0.141310,0.042228,0.989064,0.434507,0.010568,-0.244466,-41.632786,125.840363,-7.634835,,,,,,
1466441572.35,-3.056306,-0.043703,-1.715502,0.139517,-5.883041,0.111679,-0.085102,0.043689,0.995414,0.405339,0.010022,-0.207587,-41.632786,125.840363,-7.634835,,,,,,
1466441572.36,-3.121097,-0.045285,-1.716612,0.155563,-6.662430,0.122970,-0.020473,0.045269,0.998765,0.384746,0.008976,-0.129350,-41.632786,125.840363,-7.634835,,,,,,
1466441572.37,3.090471,-0.046968,-1.717964,0.173911,-7.300606,0.135506,0.051043,0.046951,0.997592,0.349378,0.010789,-0.044360,-41.969902,125.907600,-3.630177,,,,,,
1466441572.38,3.013306,-0.048618,-1.719564,0.180668,-7.842153,0.147424,0.127784,0.048599,0.990611,0.389993,0.017120,0.082708,-41.969902,125.907600,-3.630177,,,,,,
1466441572.39,2.931076,-0.050268,-1.721428,0.199217,-8.321055,0.157898,0.208702,0.050247,0.976688,0.338295,0.019669,0.159604,-41.969902,125.907600,-3.630177,,,,,,
1466441572.40,2.845812,-0.051814,-1.723462,0.197846,-8.565269,0.159428,0.291096,0.051791,0.955291,0.293514,0.012052,0.227891,-40.650948,126.151733,7.785686,,,,,,
1466441572.41,2.759192,-0.053175,-1.725664,0.207298,-8.668272,0.161148,0.372621,0.053150,0.926460,0.254225,0.018902,0.278801,-40.650948,126.151733,7.785686,,,,,,
1466441572.42,2.672229,-0.054399,-1.727999,0.206228,-8.670399,0.162224,0.451650,0.054372,0.890537,0.192103,0.008159,0.317059,-40.650948,126.151733,7.785686,,,,,,
1466441572.43,2.586467,-0.055357,-1.730346,0.197933,-8.501553,0.155835,0.526242,0.055329,0.848533,0.101626,0.010086,0.377755,-38.364807,126.322578,14.075665,,,,,,
1466441572.44,2.504302,-0.056185,-1.732727,0.200592,-8.087437,0.147918,0.594081,0.056155,0.802443,0.033132,0.006161,0.389162,-38.364807,126.322578,14.075665,,,,,,
1466441572.45,2.427083,-0.056712,-1.734964,0.176767,-7.568185,0.138251,0.654194,0.056682,0.754200,-0.065205,0.011220,0.399365,-38.364807,126.322578,14.075665,,,,,,
1466441572.46,2.356334,-0.057081,-1.737120,0.169125,-6.879056,0.128599,0.705857,0.057050,0.706054,-0.122254,0.009234,0.394792,-31.097988,126.691124,24.691111,,,,,,
1466441572.47,2.293100,-0.057215,-1.738984,0.140290,-6.117697,0.112087,0.749057,0.057184,0.660033,-0.196445,0.009069,0.387773,-31.097988,126.691124,24.691111,,,,,,
1466441572.48,2.238197,-0.057315,-1.740678,0.131795,-5.263979,0.098208,0.784144,0.057284,0.617930,-0.257822,0.005781,0.360799,-27.238977,126.848442,28.193785,,,,,,
1466441572.50,2.156655,-0.057197,-1.743179,0.084233,-3.323977,0.062576,0.831875,0.057166,0.552011,-0.351071,-0.001395,0.332923,-27.238977,126.848442,28.193785,,,,,,
1466441572.49,2.192461,-0.057253,-1.742061,0.098924,-4.322117,0.082689,0.811578,0.057221,0.581435,-0.302987,-0.001008,0.357774,-27.238977,126.848442,28.193785,,,,,,
1466441572.51,2.131220,-0.057112,-1.743914,0.051515,-2.268488,0.041022,0.845649,0.057081,0.530679,-0.401221,-0.008253,0.336112,-27.238977,126.848442,28.193785,,,,,,
1466441572.53,2.114650,-0.057109,-1.744470,0.001207,0.022984,-0.001076,0.854326,0.057078,0.516594,-0.400407,-0.005320,0.298134,-22.004520,127.039841,31.686888,,,,,,
1466441572.52,2.117192,-0.057104,-1.744376,0.032771,-1.105766,0.019873,0.853010,0.057073,0.518764,-0.412870,-0.004155,0.326618,-22.004520,127.039841,31.686888,,,,,,
1466441572.54,2.122709,-0.057164,-1.744250,-0.021953,1.060416,-0.021443,0.850132,0.057133,0.523461,-0.394520,-0.001652,0.281334,-21.440710,127.061203,31.986311,,,,,,
1466441572.56,2.169724,-0.057349,-1.742869,-0.069405,3.085368,-0.059737,0.824583,0.057317,0.562830,-0.299223,0.002665,0.266912,-21.440710,127.061203,31.986311,,,,,,
1466441572.55,2.141174,-0.057246,-1.743704,-0.048299,2.106340,-0.040802,0.840318,0.057215,0.539066,-0.357988,0.001592,0.285061,-21.440710,127.061203,31.986311,,,,,,
1466441572.57,2.206839,-0.057416,-1.741762,-0.091796,3.895558,-0.073356,0.803127,0.057385,0.593038,-0.239895,0.000523,0.244242,-22.347183,127.031525,31.479719,,,,,,
1466441572.59,2.302831,-0.057398,-1.738899,-0.125099,5.331177,-0.098360,0.742591,0.057366,0.667284,-0.131110,0.000587,0.265486,-22.347183,127.031525,31.479719,,,,,,
1466441572.58,2.251221,-0.057457,-1.740428,-0.105790,4.605941,-0.088470,0.776023,0.057426,0.628085,-0.198325,-0.000556,0.253308,-22.347183,127.031525,31.479719,,,,,,
1466441572.60,2.360799,-0.057279,-1.737165,-0.136041,5.926886,-0.113816,0.702689,0.057248,0.709190,-0.076957,0.003482,0.262505,-22.347183,127.031525,31.479719,,,,,,
1466441572.61,2.423807,-0.057048,-1.735318,-0.146089,6.396223,-0.122091,0.656648,0.057017,0.752038,-0.006243,0.006002,0.240164,-27.536301,126.844780,27.920053,,,,,,
1466441572.62,2.490681,-0.056622,-1.733354,-0.157328,6.769989,-0.126576,0.604941,0.056592,0.794257,0.049066,0.010104,0.247186,-27.536301,126.844780,27.920053,,,,,,
1466441572.63,2.560757,-0.056073,-1.731382,-0.161223,7.059863,-0.128397,0.547860,0.056043,0.834691,0.124503,0.013399,0.214610,-31.011698,126.704544,24.730759,,,,,,
1466441572.65,2.703708,-0.054518,-1.727457,-0.158985,7.141629,-0.132101,0.423394,0.054491,0.904305,0.247214,0.006696,0.166724,-31.011698,126.704544,24.730759,,,,,,
1466441572.64,2.632183,-0.055340,-1.729378,-0.166445,7.136323,-0.132076,0.486916,0.055312,0.871696,0.179436,0.007631,0.183846,-31.011698,126.704544,24.730759,,,,,,
1466441572.66,2.774399,-0.053587,-1.725622,-0.157026,7.008897,-0.129138,0.358482,0.053562,0.931999,0.315682,-0.042652,0.096871,-37.393894,126.393684,15.928258,,,,,,
1466441572.68,2.907043,-0.051472,-1.722311,-0.166465,6.291094,-0.114001,0.232098,0.051450,0.971331,0.360722,0.011951,0.016844,-37.393894,126.393684,15.928258,,,,,,
1466441572.67,2.842879,-0.052732,-1.723889,-0.129678,6.746610,-0.124272,0.293882,0.052708,0.954387,0.335925,0.101528,0.041218,-37.393894,126.393684,15.928258,,,,,,
1466441572.69,2.966286,-0.050444,-1.720955,-0.122356,5.789927,-0.120394,0.174188,0.050423,0.983421,0.425314,0.053459,0.003670,-37.393894,126.393684,15.928258,,,,,,
1466441572.70,3.020502,-0.049362,-1.719765,-0.123014,5.288715,-0.102349,0.120648,0.049342,0.991468,0.452594,-0.055019,0.009173,-40.962242,126.132011,6.339366,,,,,,
1466441572.71,3.069468,-0.048527,-1.718717,-0.091736,4.757801,-0.100053,0.071978,0.048508,0.996226,0.487669,0.065231,-0.080683,-40.962242,126.132011,6.339366,,,,,,
1466441572.72,3.113071,-0.047630,-1.717854,-0.088177,4.224730,-0.080739,0.028485,0.047612,0.998460,0.522189,-0.035207,-0.036286,-40.962242,126.132011,6.339366,,,,,,
1466441572.73,-3.131415,-0.047012,-1.717052,-0.055763,3.754332,-0.076692,-0.010166,0.046995,0.998843,0.534137,0.013323,-0.013934,-41.660671,126.040588,2.352587,,,,,,
1466441572.74,-3.096810,-0.046340,-1.716337,-0.066918,3.354029,-0.070999,-0.044719,0.046323,0.997925,0.531719,0.018603,-0.044541,-41.660671,126.040588,2.352587,,,,,,
1466441572.75,-3.066559,-0.045831,-1.715724,-0.039808,2.906979,-0.061782,-0.074884,0.045815,0.996139,0.572473,0.003318,-0.014236,-41.660671,126.040588,2.352587,,,,,,
1466441572.76,-3.041403,-0.045414,-1.715154,-0.037280,2.376076,-0.058450,-0.099919,0.045398,0.993959,0.575520,0.016079,-0.077104,-41.956921,125.916580,-3.465172,,,,,,
1466441572.77,-3.021746,-0.045176,-1.714650,-0.010288,1.830287,-0.051807,-0.119438,0.045161,0.991814,0.574531,0.013632,-0.063408,-41.956921,125.916580,-3.465172,,,,,,
1466441572.78,-3.007153,-0.045049,-1.714210,-0.006665,1.331223,-0.043351,-0.133899,0.045033,0.989971,0.575046,0.011455,-0.078777,-41.956921,125.916580,-3.465172,,,,,,
1466441572.79,-2.997697,-0.045060,-1.713811,0.010792,0.816181,-0.040100,-0.143254,0.045045,0.988660,0.573583,0.026564,-0.093427,-41.903816,125.871506,-5.273488,,,,,,
1466441572.80,-2.993617,-0.045208,-1.713452,0.020742,0.267213,-0.032390,-0.147286,0.045193,0.988061,0.518914,0.022480,-0.146905,-41.903816,125.871506,-5.273488,,,,,,
1466441572.81,-2.995274,-0.045460,-1.713158,0.034904,-0.317863,-0.023384,-0.145646,0.045444,0.988292,0.492509,-0.002247,-0.167034,-41.871628,125.836090,-6.278764,,,,,,
1466441572.82,-3.003344,-0.045954,-1.712914,0.056433,-0.971959,-0.013938,-0.137663,0.045938,0.989413,0.429808,-0.007654,-0.201098,-41.871628,125.836090,-6.278764,,,,,,
1466441572.83,-3.017860,-0.046607,-1.712776,0.069445,-1.617568,-0.000296,-0.123283,0.046590,0.991277,0.367119,-0.014089,-0.258947,-41.871628,125.836090,-6.278764,,,,,,
1466441572.84,-3.040698,-0.047361,-1.712778,0.072535,-2.538173,0.012932,-0.100611,0.047344,0.993799,0.280192,0.103077,-0.399225,-42.094955,125.791794,-5.640411,,,,,,
1466441572.85,-3.076290,-0.047947,-1.713099,0.055832,-3.930259,0.047193,-0.065181,0.047929,0.996722,0.163081,0.081786,-0.552020,-42.094955,125.791794,-5.640411,,,,,,
1466441572.86,-3.127944,-0.049002,-1.713801,0.120779,-5.585718,0.085315,-0.013632,0.048983,0.998707,0.184377,-0.005541,-0.411854,-42.300991,125.804825,-3.338859,,,,,,
1466441572.87,3.087296,-0.050439,-1.714900,0.157085,-7.174237,0.111281,0.054201,0.050418,0.997256,0.153913,-0.054614,-0.327396,-42.300991,125.804825,-3.338859,,,,,,
1466441572.88,3.002763,-0.052613,-1.716533,0.256026,-8.891298,0.149824,0.138193,0.052588,0.989008,0.199743,-0.141135,-0.020228,-42.300991,125.804825,-3.338859,,,,,,
1466441572.89,2.901173,-0.054840,-1.718787,0.256057,-10.515942,0.190882,0.237752,0.054812,0.969778,0.197001,0.033536,0.017756,-42.188351,125.879112,1.402979,,,,,,
1466441572.90,2.788049,-0.056657,-1.721716,0.259001,-11.489746,0.243828,0.345669,0.056627,0.936646,0.204685,0.188475,0.220382,-42.188351,125.879112,1.402979,,,,,,
1466441572.91,2.672414,-0.058274,-1.724924,0.283562,-11.475879,0.216090,0.451387,0.058241,0.890426,0.378997,-0.089033,0.634812,-42.188351,125.879112,1.402979,,,,,,
1466441572.92,2.562673,-0.059765,-1.727965,0.276002,-10.758017,0.182840,0.546143,0.059729,0.835560,0.253845,-0.068213,0.699093,-37.374321,126.284286,16.817116,,,,,,
1466441572.93,2.458301,-0.061113,-1.730939,0.288285,-10.343849,0.154708,0.630170,0.061075,0.774051,0.111224,-0.052484,0.652310,-37.374321,126.284286,16.817116,,,,,,
1466441572.94,2.358019,-0.062101,-1.733936,0.260157,-9.842676,0.155795,0.704455,0.062062,0.707030,-0.013705,0.063335,0.543153,-37.374321,126.284286,16.817116,,,,,,
1466441572.95,2.266336,-0.062484,-1.736600,0.215548,-8.899785,0.154095,0.766210,0.062443,0.639549,-0.126897,0.080364,0.614265,-37.374321,126.284286,16.817116,,,,,,
1466441572.96,2.183859,-0.062600,-1.739202,0.208126,-8.029096,0.146498,0.816288,0.062560,0.574248,-0.164630,0.037309,0.594346,-27.176807,126.743675,28.719982,,,,,,
1466441572.97,2.110407,-0.062516,-1.741431,0.175321,-7.047924,0.122216,0.856233,0.062476,0.512798,-0.273439,-0.015418,0.530537,-27.176807,126.743675,28.719982,,,,,,
1466441572.98,2.049916,-0.062470,-1.743247,0.147278,-5.689773,0.080672,0.885670,0.062429,0.460099,-0.338887,-0.040426,0.603850,-27.176807,126.743675,28.719982,,,,,,
1466441572.99,2.002377,-0.062490,-1.744651,0.120128,-4.444215,0.054738,0.906533,0.062449,0.417491,-0.419075,0.007162,0.484563,-22.086004,126.932388,32.058632,,,,,,
1466441573.00,1.967418,-0.062438,-1.745640,0.078095,-3.155159,0.044482,0.920574,0.062397,0.385551,-0.477093,0.027828,0.410103,-22.086004,126.932388,32.058632,,,,,,
1466441573.01,1.945441,-0.062396,-1.746290,0.052025,-1.887321,0.024796,0.928827,0.062355,0.365230,-0.467004,0.022178,0.386998,-22.086004,126.932388,32.058632,,,,,,
1466441573.02,1.935338,-0.062424,-1.746616,0.024785,-0.707606,0.003532,0.932468,0.062383,0.355827,-0.487002,0.003840,0.370446,-16.292454,127.119614,34.677597,,,,,,
1466441573.03,1.938092,-0.062573,-1.746576,-0.006530,0.611221,-0.023930,0.931475,0.062532,0.358390,-0.487963,-0.010057,0.371819,-16.292454,127.119614,34.677597,,,,,,
1466441573.04,1.954153,-0.062859,-1.746143,-0.035730,1.924727,-0.047099,0.925583,0.062817,0.373297,-0.462479,-0.001218,0.338175,-16.292454,127.119614,34.677597,,,,,,
1466441573.05,1.982103,-0.063241,-1.745363,-0.065162,3.053480,-0.069110,0.914767,0.063198,0.399009,-0.382952,-0.005703,0.318887,-16.045847,127.130051,34.754234,,,,,,
1466441573.06,2.019536,-0.063631,-1.744298,-0.085299,3.961358,-0.084404,0.899171,0.063588,0.432952,-0.362352,0.008311,0.311189,-16.045847,127.130051,34.754234,,,,,,
1466441573.07,2.067327,-0.064023,-1.742921,-0.112654,5.052937,-0.102986,0.877439,0.063980,0.475402,-0.328291,0.012375,0.323945,-16.045847,127.130051,34.754234,,,,,,
1466441573.09,2.194053,-0.064545,-1.739147,-0.160260,6.968500,-0.132079,0.810291,0.064500,0.582467,-0.168461,0.008437,0.364585,-20.766211,126.986160,32.720882,,,,,,
1466441573.08,2.126147,-0.064346,-1.741150,-0.142163,6.125405,-0.121451,0.847957,0.064302,0.526151,-0.261470,0.013030,0.356631,-20.766211,126.986160,32.720882,,,,,,
1466441573.10,2.269336,-0.064643,-1.736964,-0.166794,7.686309,-0.146167,0.764183,0.064598,0.641757,-0.062996,0.011788,0.362073,-20.766211,126.986160,32.720882,,,,,,
1466441573.11,2.350640,-0.064555,-1.734544,-0.193755,8.244860,-0.160342,0.709542,0.064510,0.701704,0.022407,-0.005596,0.334749,-25.060722,126.838203,30.189507,,,,,,
1466441573.12,2.437035,-0.064232,-1.731990,-0.195258,8.740728,-0.165582,0.646361,0.064188,0.760327,0.101716,0.013190,0.378070,-25.060722,126.838203,30.189507,,,,,,
1466441573.13,2.526791,-0.063652,-1.729404,-0.209822,9.010439,-0.169417,0.575628,0.063609,0.815234,0.202570,0.006551,0.325696,-25.060722,126.838203,30.189507,,,,,,
1466441573.14,2.617836,-0.062866,-1.726827,-0.200120,9.098576,-0.174218,0.499149,0.062824,0.864236,0.293042,0.013897,0.304130,-34.474728,126.454033,21.171843,,,,,,
1466441573.15,2.708457,-0.061817,-1.724369,-0.209813,9.017873,-0.169463,0.418917,0.061778,0.905920,0.348844,0.004476,0.256723,-34.474728,126.454033,21.171843,,,,,,
1466441573.16,2.797376,-0.060625,-1.722071,-0.190903,8.813997,-0.168166,0.336839,0.060588,0.939611,0.425566,0.014943,0.221568,-34.474728,126.454033,21.171843,,,,,,
1466441573.17,2.882830,-0.059292,-1.719967,-0.190338,8.425359,-0.159341,0.255435,0.059257,0.965008,0.456952,0.010399,0.167346,-38.206814,126.254066,15.083928,,,,,,
1466441573.18,2.963349,-0.057919,-1.718105,-0.167604,7.886993,-0.148491,0.177004,0.057886,0.982506,0.524732,0.016821,0.087318,-38.206814,126.254066,15.083928,,,,,,
1466441573.19,3.037074,-0.056553,-1.716507,-0.155734,7.174500,-0.137624,0.104162,0.056523,0.992953,0.539317,0.014018,0.007932,-38.206814,126.254066,15.083928,,,,,,
1466441573.20,3.102826,-0.055228,-1.715191,-0.136557,6.362164,-0.115479,0.038698,0.055200,0.997725,0.531996,0.026160,-0.063277,-41.944340,125.938889,2.728777,,,,,,
1466441573.21,-3.123309,-0.053945,-1.714111,-0.127046,5.463859,-0.104514,-0.018256,0.053918,0.998378,0.540168,0.036093,-0.136486,-41.944340,125.938889,2.728777,,,,,,
1466441573.22,-3.075800,-0.052832,-1.713289,-0.100596,4.508176,-0.081462,-0.065653,0.052807,0.996444,0.522623,0.033588,-0.181686,-41.944340,125.938889,2.728777,,,,,,
1466441573.23,-3.037857,-0.051835,-1.712670,-0.092248,3.538719,-0.065794,-0.103411,0.051812,0.993288,0.532168,0.025504,-0.222719,-42.270107,125.841965,-2.101287,,,,,,
1466441573.24,-3.010966,-0.051066,-1.712296,-0.062836,2.399340,-0.040523,-0.130085,0.051043,0.990188,0.491871,0.015622,-0.296844,-42.270107,125.841965,-2.101287,,,,,,
1466441573.25,-2.995256,-0.050571,-1.712068,-0.040811,1.297154,-0.025073,-0.145628,0.050550,0.988047,0.502943,0.019671,-0.300120,-42.270107,125.841965,-2.101287,,,,,,
1466441573.26,-2.990171,-0.050361,-1.712014,-0.013407,0.251221,-0.002519,-0.150653,0.050340,0.987304,0.461947,-0.000718,-0.298019,-41.972321,125.759125,-7.095229,,,,,,
1466441573.27,-2.995262,-0.050462,-1.712114,0.015111,-0.760727,0.016629,-0.145623,0.050441,0.988053,0.440698,-0.008647,-0.286256,-41.972321,125.759125,-7.095229,,,,,,
1466441573.28,-3.010179,-0.050848,-1.712350,0.042626,-1.727011,0.033361,-0.130866,0.050826,0.990096,0.437537,-0.009002,-0.261932,-41.972321,125.759125,-7.095229,,,,,,
1466441573.29,-3.033748,-0.051464,-1.712717,0.060747,-2.547814,0.045978,-0.107493,0.051441,0.992874,0.451197,0.005383,-0.213898,-41.968628,125.761185,-7.080655,,,,,,
1466441573.30,-3.064677,-0.052269,-1.713171,0.082173,-3.272009,0.063315,-0.076735,0.052245,0.995682,0.422087,0.014070,-0.155273,-41.968628,125.761185,-7.080655,,,,,,
1466441573.31,-3.103092,-0.053216,-1.713792,0.095049,-4.035464,0.072374,-0.038437,0.053191,0.997844,0.389008,0.008683,-0.180767,-41.968628,125.761185,-7.080655,,,,,,
1466441573.32,3.134153,-0.054306,-1.714620,0.111160,-4.755404,0.087549,0.007429,0.054279,0.998498,0.346530,0.011776,-0.150552,-42.262638,125.829407,-2.864647,,,,,,
,,,,,,,,,,,,,,,,29.719954,-95.399129,9.583241,-1.000000,-1.000000,1466441608.25
1466441573.33,3.082320,-0.055508,-1.715591,0.126417,-5.316058,0.096403,0.059147,0.055480,0.996706,0.328625,0.023652,-0.093401,-42.262638,125.829407,-2.864647,,,,,,
1466441573.34,3.024113,-0.056759,-1.716762,0.138333,-5.991391,0.108101,0.117021,0.056728,0.991508,0.304747,0.015263,-0.071525,-42.262638,125.829407,-2.864647,,,,,,
1466441573.35,2.959368,-0.058049,-1.718190,0.150309,-6.607281,0.125814,0.180913,0.058016,0.981786,0.250636,0.009458,-0.027303,-42.131935,125.902092,0.969146,,,,,,
1466441573.36,2.889454,-0.059332,-1.719799,0.162464,-7.094669,0.134205,0.249036,0.059297,0.966677,0.250948,0.014464,0.053709,-42.131935,125.902092,0.969146,,,,,,
1466441573.37,2.816074,-0.060544,-1.721622,0.169536,-7.391989,0.140334,0.319214,0.060507,0.945749,0.209488,0.017725,0.115179,-42.131935,125.902092,0.969146,,,,,,
1466441573.38,2.741575,-0.061642,-1.723552,0.171620,-7.424912,0.142672,0.388695,0.061603,0.919305,0.162133,0.013668,0.206443,-39.880554,126.144035,11.162397,,,,,,
1466441573.39,2.668440,-0.062585,-1.725485,0.165454,-7.258189,0.135233,0.454803,0.062544,0.888393,0.119996,0.007524,0.262318,-39.880554,126.144035,11.162397,,,,,,
1466441573.40,2.597046,-0.063431,-1.727471,0.173158,-7.068112,0.127662,0.516989,0.063389,0.853642,0.049051,-0.005650,0.287197,-39.880554,126.144035,11.162397,,,,,,
1466441573.41,2.529344,-0.064103,-1.729407,0.155606,-6.639120,0.119632,0.573529,0.064059,0.816677,-0.009716,-0.005023,0.313114,-37.492889,126.297836,16.447357,,,,,,
1466441573.42,2.466542,-0.064613,-1.731200,0.148797,-6.141105,0.106922,0.623633,0.064568,0.779046,-0.054923,0.000084,0.322120,-37.492889,126.297836,16.447357,,,,,,
1466441573.43,2.409305,-0.065059,-1.732887,0.139957,-5.557094,0.097928,0.667158,0.065013,0.742074,-0.119536,0.003346,0.323814,-37.492889,126.297836,16.447357,,,,,,
1466441573.44,2.359336,-0.065315,-1.734350,0.113263,-4.784062,0.083473,0.703379,0.065269,0.707812,-0.176661,-0.002510,0.313092,-31.552935,126.589828,24.633404,,,,,,
1466441573.45,2.317173,-0.065531,-1.735581,0.098274,-4.021645,0.065903,0.732578,0.065484,0.677525,-0.210499,-0.004556,0.311626,-31.552935,126.589828,24.633404,,,,,,
1466441573.46,2.282750,-0.065690,-1.736583,0.082254,-3.228440,0.050268,0.755454,0.065643,0.651905,-0.275565,-0.005920,0.313564,-31.552935,126.589828,24.633404,,,,,,
1466441573.47,2.256579,-0.065868,-1.737361,0.066266,-2.412933,0.032364,0.772245,0.065821,0.631906,-0.276594,-0.009302,0.303306,-28.970358,126.695381,27.136265,,,,,,
1466441573.48,2.238310,-0.066023,-1.737885,0.045987,-1.620788,0.016731,0.783652,0.065975,0.617687,-0.292517,-0.006131,0.250172,-28.970358,126.695381,27.136265,,,,,,
1466441573.49,2.228264,-0.066174,-1.738132,0.023613,-0.802095,-0.000134,0.789810,0.066126,0.609777,-0.291137,-0.003397,0.232203,-27.167780,126.764526,28.636387,,,,,,
1466441573.50,2.225782,-0.066317,-1.738188,0.008576,-0.067302,-0.011144,0.791314,0.066268,0.607809,-0.296898,0.002885,0.238581,-27.167780,126.764526,28.636387,,,,,,
1466441573.51,2.230779,-0.066477,-1.738033,-0.007483,0.696169,-0.025529,0.788258,0.066429,0.611749,-0.302158,0.004433,0.212927,-27.167780,126.764526,28.636387,,,,,,
1466441573.52,2.243993,-0.066631,-1.737630,-0.027721,1.523350,-0.040317,0.780098,0.066581,0.622105,-0.278862,0.002800,0.199764,-26.430157,126.789146,29.211916,,,,,,
1466441573.53,2.264704,-0.066768,-1.737004,-0.043849,2.233728,-0.053304,0.767040,0.066718,0.638121,-0.234966,0.006264,0.182787,-26.430157,126.789146,29.211916,,,,,,
1466441573.55,2.326472,-0.066864,-1.735147,-0.081448,3.643859,-0.076023,0.726182,0.066814,0.684248,-0.178056,0.009831,0.144823,-26.430157,126.789146,29.211916,,,,,,
1466441573.54,2.291910,-0.066837,-1.736199,-0.059005,2.880379,-0.059503,0.749394,0.066787,0.658748,-0.208577,0.008912,0.150960,-26.430157,126.789146,29.211916,,,,,,
1466441573.56,2.368872,-0.066789,-1.733854,-0.100693,4.415823,-0.089399,0.696529,0.066739,0.714418,-0.157513,0.008578,0.179869,-29.381145,126.674324,26.790680,,,,,,
1466441573.57,2.416849,-0.066660,-1.732392,-0.111813,4.877730,-0.098694,0.661471,0.066611,0.747007,-0.081027,-0.001333,0.211612,-29.381145,126.674324,26.790680,,,,,,
1466441573.58,2.467483,-0.066451,-1.730887,-0.112583,5.109210,-0.102275,0.622824,0.066402,0.779539,-0.032157,-0.006694,0.164751,-31.918209,126.565483,24.285450,,,,,,
1466441573.59,2.521047,-0.066161,-1.729317,-0.119633,5.420339,-0.110620,0.580207,0.066112,0.811781,0.010629,-0.004177,0.163164,-31.918209,126.565483,24.285450,,,,,,
1466441573.60,2.576370,-0.065837,-1.727722,-0.113103,5.526528,-0.115537,0.534443,0.065789,0.842640,0.062938,0.002662,0.169979,-34.545776,126.443642,21.118032,,,,,,
1466441573.61,2.631363,-0.065618,-1.726146,-0.098230,5.477715,-0.129054,0.487327,0.065570,0.870754,0.119149,-0.049320,0.125477,-34.545776,126.443642,21.118032,,,,,,
1466441573.62,2.686264,-0.065232,-1.724657,-0.101420,5.503162,-0.115379,0.438823,0.065186,0.896206,0.155828,-0.003388,0.112232,-34.545776,126.443642,21.118032,,,,,,
1466441573.64,2.801043,-0.064073,-1.721538,-0.119215,5.739965,-0.121140,0.333319,0.064029,0.940637,0.258126,0.056866,0.018073,-36.972576,126.316765,17.449350,,,,,,
1466441573.63,2.743219,-0.064791,-1.723092,-0.111749,5.751638,-0.120141,0.387106,0.064746,0.919759,0.234705,0.000135,0.090144,-36.972576,126.316765,17.449350,,,,,,
1466441573.65,2.856424,-0.063403,-1.720155,-0.107876,5.457493,-0.109777,0.280754,0.063361,0.957686,0.300743,0.019082,0.032197,-36.972576,126.316765,17.449350,,,,,,
1466441573.67,2.958515,-0.061682,-1.717637,-0.102374,4.764110,-0.096907,0.181711,0.061643,0.981418,0.386237,0.022479,-0.043857,-40.576183,126.076599,9.254212,,,,,,
1466441573.66,2.909362,-0.062519,-1.718832,-0.119886,5.230256,-0.101977,0.229700,0.062478,0.971254,0.328925,0.047324,-0.021547,-40.576183,126.076599,9.254212,,,,,,
1466441573.68,3.001367,-0.060771,-1.716655,-0.105348,4.114247,-0.077932,0.139509,0.060734,0.988357,0.342364,0.054180,-0.146666,-40.576183,126.076599,9.254212,,,,,,
1466441573.69,3.036182,-0.059970,-1.715869,-0.084103,3.241408,-0.062857,0.105027,0.059934,0.992662,0.365585,0.028414,-0.160783,-40.576183,126.076599,9.254212,,,,,,
1466441573.70,3.061001,-0.059254,-1.715363,-0.072644,2.220957,-0.037286,0.080363,0.059219,0.995005,0.325948,0.033722,-0.259898,-40.576183,126.076599,9.254212,,,,,,
1466441573.71,3.076211,-0.058766,-1.715088,-0.042947,1.301382,-0.017651,0.065222,0.058732,0.996141,0.297312,0.017928,-0.263505,-42.066830,125.905685,2.348330,,,,,,
1466441573.72,3.083856,-0.058485,-1.714965,-0.026789,0.603767,-0.012195,0.057606,0.058452,0.996627,0.307567,-0.021953,-0.218413,-42.066830,125.905685,2.348330,,,,,,
1466441573.73,3.084985,-0.058426,-1.714929,0.003228,-0.067334,0.001624,0.056481,0.058393,0.996695,0.348884,-0.013547,-0.164831,-42.215149,125.875259,0.822638,,,,,,
1466441573.74,3.078157,-0.058611,-1.715102,0.023468,-0.886032,0.020616,0.063284,0.058577,0.996275,0.297662,-0.025817,-0.203444,-42.215149,125.875259,0.822638,,,,,,
1466441573.75,3.064325,-0.058976,-1.715366,0.042897,-1.523127,0.025696,0.077057,0.058942,0.995283,0.286392,-0.007444,-0.207060,-42.215149,125.875259,0.822638,,,,,,
1466441573.76,3.045442,-0.059462,-1.715727,0.055049,-2.009459,0.036209,0.095833,0.059427,0.993622,0.275459,0.007132,-0.150192,-44.207443,120.464790,3.649328,,,,,,
1466441573.77,3.020926,-0.060043,-1.716258,0.065994,-2.606225,0.049543,0.120158,0.060007,0.990940,0.227850,0.002707,-0.151111,-44.207443,120.464790,3.649328,,,,,,
1466441573.78,2.990123,-0.060708,-1.716934,0.077992,-3.218905,0.058719,0.150613,0.060671,0.986729,0.234122,0.017683,-0.159825,-44.207443,120.464790,3.649328,,,,,,
1466441573.79,2.954592,-0.061415,-1.717716,0.083823,-3.653263,0.068903,0.185562,0.061377,0.980714,0.236481,0.016062,-0.118485,-43.916718,120.504417,5.420998,,,,,,
1466441573.80,2.915458,-0.062127,-1.718626,0.090857,-3.979254,0.076277,0.223780,0.062087,0.972660,0.177953,0.026017,-0.084950,-43.916718,120.504417,5.420998,,,,,,
1466441573.81,2.872833,-0.062864,-1.719671,0.094682,-4.319047,0.082670,0.265011,0.062822,0.962197,0.186985,0.011015,-0.034981,-43.319916,120.568710,8.121116,,,,,,
1466441573.82,2.827017,-0.063598,-1.720824,0.107048,-4.636549,0.091060,0.308787,0.063555,0.949005,0.141820,-0.001101,0.027771,-43.319916,120.568710,8.121116,,,,,,
1466441573.83,2.779549,-0.064361,-1.722073,0.114345,-4.758664,0.092898,0.353453,0.064316,0.933239,0.117998,0.001159,0.069416,-43.319916,120.568710,8.121116,,,,,,
1466441573.84,2.732043,-0.065055,-1.723307,0.110131,-4.732102,0.087405,0.397354,0.065009,0.915360,0.101486,0.009164,0.083389,-43.319916,120.568710,8.121116,,,,,,
1466441573.85,2.684596,-0.065709,-1.724594,0.115432,-4.744854,0.090683,0.440303,0.065662,0.895445,0.031789,-0.002918,0.104234,-43.319916,120.568710,8.121116,,,,,,
1466441573.86,2.637642,-0.066299,-1.725897,0.111295,-4.652467,0.086906,0.481828,0.066250,0.873758,-0.008714,0.009479,0.126166,-39.077820,120.866913,18.533554,,,,,,
1466441573.87,2.593611,-0.066801,-1.727153,0.104299,-4.293565,0.081455,0.519804,0.066751,0.851674,-0.018858,0.006689,0.159877,-39.077820,120.866913,18.533554,,,,,,
1466441573.88,2.552824,-0.067169,-1.728315,0.091880,-4.010055,0.078600,0.554085,0.067118,0.829750,-0.068566,0.011465,0.145119,-37.041199,120.976181,21.727711,,,,,,
1466441573.89,2.514621,-0.067480,-1.729437,0.086915,-3.733966,0.070477,0.585360,0.067429,0.807965,-0.102541,0.011459,0.149509,-37.041199,120.976181,21.727711,,,,,,
1466441573.90,2.480701,-0.067665,-1.730426,0.070488,-3.251893,0.065308,0.612416,0.067614,0.787639,-0.135915,0.017424,0.167470,-37.041199,120.976181,21.727711,,,,,,
1466441573.91,2.452284,-0.067824,-1.731285,0.063689,-2.735843,0.058872,0.634542,0.067772,0.769911,-0.171804,0.011619,0.166246,-35.039764,121.073196,24.349026,,,,,,
1466441573.92,2.428960,-0.067854,-1.732000,0.045227,-2.183682,0.050068,0.652323,0.067802,0.754902,-0.183512,0.003365,0.175045,-35.039764,121.073196,24.349026,,,,,,
1466441573.93,2.411473,-0.067825,-1.732549,0.031062,-1.600731,0.041076,0.665425,0.067773,0.743382,-0.188252,0.004645,0.158306,-35.039764,121.073196,24.349026,,,,,,
1466441573.94,2.399660,-0.067773,-1.732921,0.015817,-1.036879,0.027944,0.674163,0.067721,0.735471,-0.197143,0.004575,0.140475,-32.099907,121.204788,27.538635,,,,,,
1466441573.95,2.396344,-0.067704,-1.732911,0.001665,-0.447537,0.016783,0.676601,0.067652,0.733236,-0.200313,0.001562,0.154826,-32.099907,121.204788,27.538635,,,,,,
1466441573.96,2.396088,-0.067598,-1.732941,-0.009334,0.110994,0.006882,0.676794,0.067546,0.733067,-0.193365,-0.002529,0.153468,-32.099907,121.204788,27.538635,,,,,,
1466441573.97,2.401344,-0.067461,-1.732793,-0.023532,0.664221,-0.004053,0.672937,0.067410,0.736622,-0.186533,-0.002102,0.137371,-31.638161,121.220139,28.001511,,,,,,
1466441573.98,2.412376,-0.067284,-1.732455,-0.038761,1.241873,-0.016207,0.664778,0.067234,0.744009,-0.156004,-0.006183,0.140650,-31.638161,121.220139,28.001511,,,,,,
1466441573.99,2.428805,-0.067087,-1.731963,-0.044573,1.693159,-0.024365,0.652474,0.067037,0.754840,-0.129433,-0.009832,0.120587,-31.638161,121.220139,28.001511,,,,,,
1466441574.00,2.448632,-0.066922,-1.731374,-0.053655,2.075442,-0.037416,0.637388,0.066872,0.767636,-0.114012,-0.010964,0.119587,-31.638161,121.220139,28.001511,,,,,,
1466441574.01,2.472651,-0.066718,-1.730651,-0.063758,2.504425,-0.043310,0.618776,0.066668,0.782733,-0.107363,0.003522,0.122357,-32.566498,121.180634,27.093523,,,,,,
1466441574.02,2.500835,-0.066435,-1.729828,-0.074954,2.908989,-0.050116,0.596484,0.066386,0.799875,-0.070773,0.019551,0.089530,-32.566498,121.180634,27.093523,,,,,,
1466441574.03,2.532569,-0.066185,-1.728906,-0.086286,3.211610,-0.052026,0.570814,0.066137,0.818411,-0.056837,0.043833,0.057169,-33.817116,121.125389,25.776423,,,,,,
1466441574.04,2.566779,-0.065676,-1.727939,-0.097667,3.476004,-0.053695,0.542507,0.065629,0.837484,-0.002208,0.017639,0.076105,-33.817116,121.125389,25.776423,,,,,,
1466441574.05,2.602726,-0.065098,-1.726949,-0.104951,3.614037,-0.052439,0.512077,0.065052,0.856473,0.018029,0.022106,0.043704,-33.817116,121.125389,25.776423,,,,,,
1466441574.06,2.639661,-0.064417,-1.725928,-0.112280,3.709608,-0.055175,0.480122,0.064373,0.874837,0.063473,0.035816,0.014125,-37.152836,120.968544,21.579138,,,,,,
1466441574.07,2.677335,-0.063578,-1.724907,-0.130323,3.775414,-0.042832,0.446855,0.063535,0.892348,0.043090,0.051775,0.023927,-37.152836,120.968544,21.579138,,,,,,
1466441574.08,2.715425,-0.062594,-1.723917,-0.133485,3.794540,-0.047213,0.412575,0.062553,0.908773,0.107261,0.054558,-0.019247,-38.793564,120.881416,19.029488,,,,,,
1466441574.09,2.752298,-0.061419,-1.722994,-0.141154,3.634191,-0.038764,0.378820,0.061381,0.923433,0.165964,-0.013896,0.018050,-38.793564,120.881416,19.029488,,,,,,
1466441574.10,2.786875,-0.060429,-1.722111,-0.122288,3.386796,-0.042516,0.346692,0.060392,0.936033,0.176990,-0.029890,-0.016996,-38.793564,120.881416,19.029488,,,,,,
1466441574.11,2.818392,-0.059454,-1.721296,-0.115177,3.096948,-0.051335,0.317042,0.059419,0.946548,0.191198,-0.021425,-0.030014,-40.222229,120.799217,16.404339,,,,,,
1466441574.12,2.848082,-0.058620,-1.720582,-0.096223,2.935533,-0.046046,0.288817,0.058587,0.955590,0.230882,-0.030206,-0.015969,-40.222229,120.799217,16.404339,,,,,,
1466441574.13,2.876934,-0.057865,-1.719856,-0.092045,2.865461,-0.048796,0.261142,0.057833,0.963566,0.258740,-0.034502,-0.018300,-40.222229,120.799217,16.404339,,,,,,
1466441574.15,2.931987,-0.056658,-1.718451,-0.067798,2.662660,-0.053887,0.207741,0.056628,0.976543,0.336418,-0.014605,-0.071560,-42.200115,120.662094,11.797914,,,,,,
1466441574.14,2.905189,-0.057228,-1.719147,-0.075083,2.801753,-0.051573,0.233825,0.057196,0.970595,0.300233,-0.031058,-0.028090,-42.200115,120.662094,11.797914,,,,,,
1466441574.16,2.956294,-0.056190,-1.717778,-0.056471,2.345193,-0.058271,0.183950,0.056160,0.981330,0.337611,0.009895,-0.110496,-42.200115,120.662094,11.797914,,,,,,
1466441574.17,2.977999,-0.055730,-1.717181,-0.055678,2.128585,-0.056912,0.162612,0.055701,0.985117,0.340043,0.010736,-0.094446,-42.200115,120.662094,11.797914,,,,,,
1466441574.18,2.998675,-0.055285,-1.716577,-0.053681,2.035125,-0.048872,0.142214,0.055257,0.988292,0.317228,0.021113,-0.097866,-43.449844,120.543594,7.793149,,,,,,
1466441574.19,3.017082,-0.054809,-1.715994,-0.052971,1.748443,-0.049203,0.124003,0.054781,0.990769,0.343053,0.018156,-0.135376,-43.449844,120.543594,7.793149,,,,,,
1466441574.20,3.030523,-0.054413,-1.715514,-0.041977,1.184606,-0.040333,0.110677,0.054386,0.992367,0.325022,0.020474,-0.199078,-43.449844,120.543594,7.793149,,,,,,
1466441574.21,3.036941,-0.054114,-1.715190,-0.030147,0.446617,-0.025049,0.104308,0.054088,0.993073,0.284135,0.007374,-0.230790,-43.848686,120.490585,6.220220,,,,,,
1466441574.22,3.034925,-0.054009,-1.715065,-0.006776,-0.426229,-0.007842,0.106310,0.053983,0.992867,0.247541,0.002719,-0.246941,-43.848686,120.490585,6.220220,,,,,,
1466441574.23,3.024057,-0.054100,-1.715145,0.014468,-1.293770,0.011458,0.117094,0.054073,0.991648,0.196490,-0.000698,-0.223566,-43.848686,120.490585,6.220220,,,,,,
1466441574.24,3.005782,-0.054356,-1.715403,0.032736,-1.992475,0.026503,0.135194,0.054330,0.989329,0.191970,-0.003152,-0.172968,-43.848686,120.490585,6.220220,,,,,,
1466441574.25,2.980699,-0.054749,-1.715849,0.048878,-2.685873,0.042576,0.159961,0.054721,0.985605,0.217786,0.001279,-0.166605,-43.982105,120.452477,6.013051,,,,,,
1466441574.26,2.947581,-0.055291,-1.716484,0.070167,-3.524734,0.057439,0.192502,0.055263,0.979739,0.158160,0.001210,-0.151843,-43.982105,120.452477,6.013051,,,,,,
1466441574.27,2.905063,-0.056034,-1.717425,0.100856,-4.496346,0.080594,0.233963,0.056005,0.970631,0.089402,-0.016546,-0.104588,-43.609413,120.484131,7.821411,,,,,,
1466441574.29,2.791709,-0.058212,-1.720411,0.158602,-5.971260,0.104804,0.342208,0.058179,0.937821,0.218400,0.001101,0.064559,-43.609413,120.484131,7.821411,,,,,,
1466441574.28,2.851567,-0.057032,-1.718840,0.145147,-5.620932,0.129205,0.285512,0.057001,0.956678,0.067469,-0.028650,-0.037275,-43.609413,120.484131,7.821411,,,,,,
1466441574.30,2.736460,-0.058997,-1.721700,0.110433,-5.350040,0.085958,0.393455,0.058963,0.917451,0.115044,0.040494,0.172194,-40.994755,120.686455,15.283644,,,,,,
1466441574.31,2.683235,-0.059711,-1.723223,0.139080,-5.379873,0.118107,0.441687,0.059675,0.895182,0.006891,0.019686,0.165471,-40.994755,120.686455,15.283644,,,,,,
1466441574.32,2.627806,-0.060338,-1.724739,0.113392,-5.515721,0.100837,0.490584,0.060302,0.869305,0.037156,0.020585,0.085682,-40.994755,120.686455,15.283644,,,,,,
1466441574.33,2.576219,-0.060685,-1.726099,0.104439,-5.015604,0.096627,0.534745,0.060648,0.842834,-0.031968,0.020743,0.233078,-38.878532,120.809097,19.313293,,,,,,
1466441574.34,2.528264,-0.061023,-1.727556,0.106903,-4.735313,0.103388,0.574522,0.060985,0.816214,-0.086484,0.017933,0.211007,-38.878532,120.809097,19.313293,,,,,,
1466441574.35,2.484154,-0.061142,-1.728759,0.070244,-4.268072,0.089776,0.609949,0.061104,0.790081,-0.118311,0.020607,0.158695,-38.878532,120.809097,19.313293,,,,,,
1466441574.36,2.446102,-0.061202,-1.729869,0.078476,-3.659642,0.078517,0.639563,0.061164,0.766302,-0.140402,-0.015158,0.259119,-33.876656,121.047180,26.064018,,,,,,
1466441574.37,2.413034,-0.061190,-1.730840,0.055674,-3.168007,0.072218,0.664549,0.061152,0.744738,-0.203978,0.003301,0.201993,-33.876656,121.047180,26.064018,,,,,,
1466441574.38,2.386924,-0.061164,-1.731619,0.048152,-2.396034,0.053531,0.683767,0.061126,0.727136,-0.207601,-0.000213,0.200278,-33.876656,121.047180,26.064018,,,,,,
1466441574.39,2.368975,-0.061068,-1.732135,0.023615,-1.600706,0.038939,0.696711,0.061030,0.714751,-0.216318,-0.004572,0.178330,-31.758764,121.135689,28.229530,,,,,,
1466441574.40,2.357921,-0.060969,-1.732459,0.013800,-0.950854,0.026338,0.704573,0.060932,0.707010,-0.215453,-0.016132,0.183065,-31.758764,121.135689,28.229530,,,,,,
1466441574.41,2.351590,-0.060916,-1.732653,0.008993,-0.549472,0.017429,0.709037,0.060879,0.702538,-0.202964,-0.018078,0.217063,-31.758764,121.135689,28.229530,,,,,,
1466441574.42,2.348661,-0.060922,-1.732809,0.009470,-0.181006,0.007667,0.711092,0.060885,0.700458,-0.209826,-0.003374,0.135953,-29.790760,121.212418,29.990654,,,,,,
1466441574.43,2.352258,-0.060829,-1.732692,-0.021515,0.563365,-0.008741,0.708572,0.060792,0.703015,-0.206176,0.009200,0.125995,-29.790760,121.212418,29.990654,,,,,,
1466441574.44,2.363238,-0.060680,-1.732379,-0.033445,1.238678,-0.012988,0.700817,0.060643,0.710759,-0.185299,0.012660,0.171275,-29.790760,121.212418,29.990654,,,,,,
1466441574.45,2.378381,-0.060529,-1.731975,-0.042568,1.598646,-0.019513,0.689980,0.060492,0.721296,-0.169609,0.006082,0.113115,-29.800068,121.214050,29.974852,,,,,,
1466441574.46,2.398229,-0.060262,-1.731394,-0.064254,2.128508,-0.027115,0.675539,0.060226,0.734860,-0.149142,0.011567,0.105472,-29.800068,121.214050,29.974852,,,,,,
1466441574.47,2.423642,-0.059924,-1.730647,-0.078496,2.649875,-0.035722,0.656662,0.059888,0.751803,-0.123291,0.018497,0.136869,-29.800068,121.214050,29.974852,,,,,,
1466441574.48,2.453304,-0.059562,-1.729808,-0.085495,3.011955,-0.038000,0.634090,0.059527,0.770965,-0.122020,0.018232,0.119126,-31.972668,121.127533,28.022308,,,,,,
1466441574.49,2.487810,-0.058867,-1.729088,-0.106095,3.654204,0.013303,0.607140,0.058833,0.792414,-0.021615,0.017339,0.104528,-31.972668,121.127533,28.022308,,,,,,
1466441574.50,2.516174,-0.058442,-1.728326,-0.069635,2.046815,-0.048962,0.584437,0.058409,0.809334,1.200552,-0.000425,-0.558129,-31.972668,121.127533,28.022308,,,,,,
1466441574.51,2.502450,-0.058189,-1.728525,0.016656,-2.055164,0.042846,0.595498,0.058156,0.801249,0.485511,0.022548,-0.907023,-31.972668,121.127533,28.022308,,,,,,
1466441574.52,2.481980,-0.058256,-1.729241,0.026656,-1.709044,0.049201,0.611771,0.058223,0.788889,0.015395,0.000660,0.047094,-34.156982,121.036858,25.744104,,,,,,
1466441574.53,2.476378,-0.057857,-1.729414,-0.021551,-0.260695,0.030489,0.616195,0.057824,0.785468,-0.104431,0.000541,0.337472,-34.156982,121.036858,25.744104,,,,,,
1466441574.54,2.477200,-0.057518,-1.729434,-0.033814,0.138567,0.021586,0.615562,0.057487,0.785989,-0.141166,0.011605,0.042624,-33.366253,121.074669,26.589432,,,,,,
1466441574.55,2.496448,-0.056812,-1.728407,-0.033551,0.347833,0.018143,0.600344,0.056781,0.797724,-0.122530,-0.003482,0.073446,-33.366253,121.074669,26.589432,,,,,,
1466441574.56,2.516007,-0.056279,-1.727573,-0.035222,0.707866,0.011624,0.584645,0.056249,0.809337,-0.090383,-0.000005,0.107259,-33.366253,121.074669,26.589432,,,,,,
1466441574.57,2.526690,-0.055821,-1.727249,-0.061216,1.188905,-0.002063,0.575981,0.055792,0.815557,-0.068107,-0.001303,0.046305,-33.912773,121.031334,26.090616,,,,,,
1466441574.58,2.541236,-0.055413,-1.726861,-0.053343,1.513831,-0.010480,0.564069,0.055385,0.823868,-0.043470,-0.013148,0.081329,-33.912773,121.031334,26.090616,,,,,,
1466441574.59,2.557493,-0.055009,-1.726479,-0.055288,1.668840,-0.006132,0.550615,0.054981,0.832947,-0.036439,-0.016254,0.054214,-33.912773,121.031334,26.090616,,,,,,
1466441574.60,2.575701,-0.054644,-1.726037,-0.052993,1.765525,-0.029089,0.535368,0.054617,0.842851,0.326219,-0.015585,-0.067277,-35.512711,120.947731,24.287321,,,,,,
1466441574.61,2.579763,-0.054346,-1.725955,-0.024991,0.352181,-0.001037,0.531949,0.054320,0.845032,0.344241,-0.012694,-0.350327,-35.512711,120.947731,24.287321,,,,,,
1466441574.62,2.577176,-0.054381,-1.726017,0.008213,-0.340132,0.003338,0.534133,0.054354,0.843652,0.198854,-0.013064,-0.204171,-35.512711,120.947731,24.287321,,,,,,
1466441574.63,2.574887,-0.054401,-1.726042,0.004178,-0.168106,-0.002002,0.536061,0.054374,0.842426,0.095103,-0.015983,0.005413,-36.054958,120.924721,23.593042,,,,,,
1466441574.64,2.574768,-0.054610,-1.726086,0.000215,0.073974,0.000733,0.536156,0.054583,0.842352,0.013054,0.003049,0.013589,-36.054958,120.924721,23.593042,,,,,,
1466441574.65,2.575794,-0.054643,-1.726089,0.005548,0.083525,0.001743,0.535290,0.054616,0.842901,0.077030,-0.008245,0.003657,-36.054958,120.924721,23.593042,,,,,,
1466441574.66,2.560903,-0.053794,-1.726879,0.010552,-0.181983,-0.002971,0.547807,0.053768,0.834875,0.137251,-0.010860,-0.086355,-36.054958,120.924721,23.593042,,,,,,
1466441574.67,2.556092,-0.053937,-1.726992,0.020700,-0.576985,0.001646,0.551813,0.053911,0.832223,0.154654,0.000777,-0.131753,-35.966858,120.930679,23.696730,,,,,,
1466441574.68,2.536893,-0.054947,-1.727818,0.027803,-0.846765,0.010797,0.567657,0.054920,0.821431,0.108750,0.010480,-0.083669,-35.966858,120.930679,23.696730,,,,,,
1466441574.69,2.527705,-0.055152,-1.728046,0.030901,-0.931696,0.006010,0.575174,0.055124,0.816172,0.088263,-0.014093,-0.037134,-35.356056,120.968956,24.409880,,,,,,
1466441574.70,2.517628,-0.055345,-1.728316,0.030768,-1.032576,0.009836,0.583363,0.055317,0.810326,0.066127,0.000835,-0.043129,-35.356056,120.968956,24.409880,,,,,,
1466441574.71,2.506423,-0.055567,-1.728613,0.035939,-1.148327,0.014825,0.592398,0.055539,0.803729,0.058755,0.003314,-0.027011,-35.356056,120.968956,24.409880,,,,,,
1466441574.72,2.494775,-0.055795,-1.728927,0.038085,-1.139825,0.011581,0.601712,0.055766,0.796764,0.021091,-0.005214,0.003010,-35.356056,120.968956,24.409880,,,,,,
1466441574.73,2.484214,-0.055985,-1.729211,0.031837,-1.029392,0.009817,0.610087,0.055956,0.790356,0.009115,0.012129,0.013416,-34.062225,121.039482,25.857084,,,,,,
1466441574.74,2.473864,-0.056155,-1.729503,0.030746,-1.047448,0.012058,0.618228,0.056125,0.783992,0.032971,0.009854,-0.010952,-34.062225,121.039482,25.857084,,,,,,
1466441574.75,2.462456,-0.056335,-1.729829,0.034848,-1.172743,0.012848,0.627125,0.056305,0.776881,0.049938,0.005447,-0.035151,-33.454151,121.065231,26.521870,,,,,,
1466441574.76,2.449334,-0.056601,-1.730216,0.036862,-1.259824,0.016590,0.637255,0.056570,0.768574,0.032102,0.007486,-0.023930,-33.454151,121.065231,26.521870,,,,,,
1466441574.77,2.437257,-0.056777,-1.730554,0.032708,-1.175939,0.016059,0.646484,0.056747,0.760814,-0.005874,0.007493,0.018803,-33.454151,121.065231,26.521870,,,,,,
1466441574.78,2.427071,-0.056933,-1.730836,0.027630,-0.981623,0.013771,0.654195,0.056902,0.754183,-0.027822,0.008635,0.035979,-32.112976,121.122719,27.882305,,,,,,
1466441574.79,2.418138,-0.057038,-1.731089,0.022433,-0.881869,0.014208,0.660902,0.057007,0.748304,-0.003217,0.006119,0.024737,-32.112976,121.122719,27.882305,,,,,,
1466441574.80,2.408287,-0.057258,-1.731391,0.023431,-0.936024,0.014548,0.668232,0.057226,0.741749,0.017696,0.006800,-0.012577,-32.112976,121.122719,27.882305,,,,,,
1466441574.81,2.398590,-0.057344,-1.731676,0.025513,-0.972130,0.015841,0.675390,0.057312,0.735230,0.019770,0.009201,-0.021073,-31.547268,121.145554,28.423697,,,,,,
1466441574.82,2.389084,-0.057409,-1.731966,0.023420,-0.939218,0.017762,0.682346,0.057378,0.728774,0.013561,0.003749,-0.001250,-31.547268,121.145554,28.423697,,,,,,
1466441574.83,2.379861,-0.057446,-1.732229,0.021321,-0.919037,0.015504,0.689037,0.057415,0.722448,0.012760,0.009556,-0.004369,-31.547268,121.145554,28.423697,,,,,,
1466441574.84,2.370406,-0.057563,-1.732520,0.022388,-0.913736,0.017601,0.695832,0.057531,0.715897,0.006530,0.004282,-0.001816,-30.372686,121.193970,29.477112,,,,,,
1466441574.85,2.361825,-0.057580,-1.732793,0.020358,-0.830920,0.019208,0.701949,0.057548,0.709898,-0.010009,0.004418,0.012621,-30.372686,121.193970,29.477112,,,,,,
1466441574.86,2.354328,-0.057593,-1.733040,0.017305,-0.721547,0.016390,0.707251,0.057561,0.704616,-0.019354,0.007029,0.019002,-30.372686,121.193970,29.477112,,,,,,
1466441574.87,2.347985,-0.057554,-1.733257,0.012132,-0.598381,0.017742,0.711707,0.057523,0.700117,-0.036841,0.010745,0.015657,-29.800014,121.217819,29.959623,,,,,,
1466441574.88,2.346264,-0.057985,-1.733254,0.008081,-0.434844,0.015647,0.712894,0.057953,0.698873,-0.033008,0.006790,0.032358,-29.800014,121.217819,29.959623,,,,,,
1466441574.89,2.342699,-0.057905,-1.733381,0.002879,-0.338217,0.015035,0.715384,0.057872,0.696331,-0.016623,0.008091,0.015309,-29.800014,121.217819,29.959623,,,,,,
1466441574.90,2.339462,-0.057825,-1.733506,0.003963,-0.322290,0.014937,0.717637,0.057793,0.694015,0.004455,0.004890,-0.004394,-29.201191,121.242691,30.444675,,,,,,
1466441574.91,2.336184,-0.057756,-1.733627,0.003962,-0.326532,0.012834,0.719911,0.057724,0.691661,0.015501,0.002762,-0.016872,-29.201191,121.242691,30.444675,,,,,,
1466441574.93,2.331345,-0.057654,-1.733824,-0.002184,-0.135402,0.010565,0.723254,0.057622,0.688174,-0.012439,-0.000981,0.012113,-28.969023,121.253044,30.624767,,,,,,
1466441574.92,2.333065,-0.057740,-1.733750,0.001897,-0.273444,0.013564,0.722066,0.057708,0.689413,-0.002416,0.000748,-0.001761,-28.969023,121.253044,30.624767,,,,,,
1466441574.94,2.330234,-0.057421,-1.733890,-0.002105,-0.073816,0.009115,0.724028,0.057389,0.687379,0.012010,-0.001527,0.006056,-28.969023,121.253044,30.624767,,,,,,
1466441574.96,2.328305,-0.057279,-1.734009,-0.002115,-0.082311,0.009168,0.725359,0.057248,0.685987,0.014036,-0.000592,-0.016767,-28.969023,121.253044,30.624767,,,,,,
1466441574.95,2.329238,-0.057357,-1.733950,-0.000017,-0.106733,0.009323,0.724715,0.057326,0.686660,0.018708,-0.000990,-0.016280,-28.969023,121.253044,30.624767,,,,,,
1466441574.97,2.327532,-0.057202,-1.734061,-0.002115,-0.082311,0.009168,0.725892,0.057171,0.685429,0.028152,0.008366,-0.019840,-28.694183,121.266472,30.829662,,,,,,
1466441574.98,2.324503,-0.057710,-1.734236,-0.001091,-0.110998,0.012542,0.727943,0.057678,0.683207,0.015648,0.009278,-0.025080,-28.694183,121.266472,30.829662,,,,,,
1466441574.99,2.323986,-0.057596,-1.734277,-0.005235,-0.020740,0.010907,0.728302,0.057564,0.682835,-0.011138,0.006797,-0.003697,-28.618816,121.271072,30.881569,,,,,,
1466441575.00,2.324940,-0.057480,-1.734295,-0.007175,0.130037,0.009960,0.727654,0.057448,0.683534,-0.012338,0.001512,0.020979,-28.618816,121.271072,30.881569,,,,,,
1466441575.02,2.320687,-0.056603,-1.734646,0.000043,-0.060050,0.009032,0.730591,0.056573,0.680468,0.058990,-0.007181,-0.044802,-28.526484,121.280312,30.930679,,,,,,
1466441575.01,2.324998,-0.057121,-1.734371,-0.007185,0.117298,0.006847,0.727630,0.057090,0.683590,0.032441,-0.002906,-0.001339,-28.526484,121.280312,30.930679,,,,,,
1466441575.03,2.316321,-0.056142,-1.734888,0.003143,-0.138635,0.007399,0.733575,0.056112,0.677289,0.042503,-0.007452,-0.035183,-28.526484,121.280312,30.930679,,,,,,
1466441575.04,2.313517,-0.055614,-1.735049,0.004223,-0.126960,0.006264,0.735492,0.055585,0.675249,0.035748,-0.008756,-0.005251,-28.526484,121.280312,30.930679,,,,,,
1466441575.05,2.311136,-0.055259,-1.735168,0.005273,-0.141825,0.004230,0.737112,0.055231,0.673509,0.023141,-0.006510,-0.004198,-28.109907,121.305305,31.212763,,,,,,
1466441575.06,2.309623,-0.055259,-1.735241,0.004244,-0.115277,0.002998,0.738131,0.055231,0.672393,0.005933,-0.000040,0.000352,-28.109907,121.305305,31.212763,,,,,,
1466441575.07,2.308433,-0.055383,-1.735302,0.003232,-0.074927,0.001679,0.738925,0.055355,0.671510,0.013272,0.003086,0.001799,-28.109907,121.305305,31.212763,,,,,,
1466441575.08,2.305725,-0.055699,-1.735439,0.003135,-0.148208,0.005332,0.740728,0.055670,0.669494,0.028605,0.008127,-0.017700,-27.761723,121.322227,31.457649,,,,,,
1466441575.09,2.301950,-0.056089,-1.735613,0.004095,-0.228919,0.007967,0.743234,0.056059,0.666679,0.023856,0.009965,-0.026924,-27.761723,121.322227,31.457649,,,,,,
1466441575.10,2.299265,-0.056261,-1.735745,0.004125,-0.204503,0.008879,0.745014,0.056231,0.664675,0.008725,0.005277,-0.006243,-27.761723,121.322227,31.457649,,,,,,
1466441575.11,2.296952,-0.056224,-1.735858,0.004132,-0.197076,0.009897,0.746551,0.056194,0.662951,0.016632,0.001255,0.004652,-27.596256,121.335678,31.551256,,,,,,
1466441575.12,2.294523,-0.056182,-1.735965,0.007245,-0.261847,0.010306,0.748161,0.056152,0.661137,0.027276,0.000977,-0.012746,-27.596256,121.335678,31.551256,,,,,,
1466441575.13,2.291078,-0.056158,-1.736109,0.010296,-0.374403,0.012079,0.750435,0.056128,0.658557,0.049385,-0.002967,-0.023395,-27.596256,121.335678,31.551256,,,,,,
1466441575.14,2.286203,-0.056138,-1.736290,0.012228,-0.530492,0.014125,0.753637,0.056109,0.654891,0.065775,-0.000689,-0.038222,-27.219145,121.356461,31.797956,,,,,,
1466441575.15,2.275791,-0.056154,-1.736701,0.016159,-0.785354,0.019985,0.760414,0.056125,0.647009,0.085808,0.003675,-0.058675,-27.219145,121.356461,31.797956,,,,,,
1466441575.16,2.266024,-0.056156,-1.737051,0.023434,-0.924463,0.022994,0.766698,0.056126,0.639550,0.059184,0.003963,-0.044412,-27.219145,121.356461,31.797956,,,,,,
1466441575.17,2.255735,-0.056150,-1.737380,0.025388,-1.067802,0.021766,0.773237,0.056120,0.631629,0.081621,-0.000960,-0.021064,-26.684181,121.381142,32.155136,,,,,,
1466441575.18,2.241721,-0.056135,-1.737682,0.017340,-1.548783,0.020516,0.782013,0.056105,0.620731,0.105346,-0.002547,-0.067524,-26.684181,121.381142,32.155136,,,,,,
1466441575.19,2.233827,-0.056006,-1.738084,0.031696,-0.269353,0.025280,0.786895,0.055977,0.614543,-0.485183,0.000359,0.088063,-26.684181,121.381142,32.155136,,,,,,
1466441575.20,2.246845,-0.056003,-1.737823,-0.044635,1.621876,-0.030300,0.778828,0.055974,0.624735,-0.291585,0.001338,0.546866,-25.196941,121.438629,33.123280,,,,,,
1466441575.21,2.256981,-0.055978,-1.737353,-0.019259,0.631201,-0.024061,0.772457,0.055949,0.632598,0.145802,-0.009425,-0.054214,-25.196941,121.438629,33.123280,,,,,,
1466441575.22,2.254792,-0.056121,-1.737469,0.019932,-0.353157,-0.000817,0.773834,0.056092,0.630900,0.091843,0.009307,-0.250895,-25.196941,121.438629,33.123280,,,,,,
1466441575.23,2.251099,-0.056695,-1.737565,-0.010501,0.002544,-0.000950,0.776133,0.056665,0.628018,0.043035,0.015296,-0.046795,-25.196941,121.438629,33.123280,,,,,,
1466441575.24,2.252912,-0.056671,-1.737603,0.004651,0.213809,0.007320,0.774995,0.056640,0.629425,-0.021714,0.020447,0.071869,-25.868937,121.417404,32.680153,,,,,,
1466441575.25,2.254996,-0.056543,-1.737622,-0.010303,0.184071,0.012814,0.773687,0.056513,0.631043,-0.024450,0.017019,0.028503,-25.868937,121.417404,32.680153,,,,,,
1466441575.26,2.255109,-0.056419,-1.737664,-0.002080,-0.053771,0.012185,0.773621,0.056389,0.631135,0.061752,0.009377,-0.065446,-25.977503,121.419724,32.585258,,,,,,
1466441575.27,2.250705,-0.056609,-1.737910,-0.002220,-0.163157,0.014999,0.776384,0.056579,0.627715,-0.012209,-0.003616,0.019807,-25.977503,121.419724,32.585258,,,,,,
1466441575.28,2.250286,-0.056487,-1.737969,-0.004125,0.012048,0.011770,0.776653,0.056457,0.627394,-0.014095,-0.007339,0.040224,-25.977503,121.419724,32.585258,,,,,,
1466441575.29,2.251527,-0.056403,-1.737965,-0.005009,0.145853,0.004543,0.775877,0.056374,0.628361,0.013292,-0.018745,0.013195,-25.822311,121.431717,32.663853,,,,,,
1466441575.30,2.251238,-0.055930,-1.738037,-0.001872,0.095948,0.001667,0.776080,0.055900,0.628153,0.034101,-0.010307,-0.022150,-25.822311,121.431717,32.663853,,,,,,
1466441575.31,2.251336,-0.055893,-1.738062,0.000113,-0.015548,0.004497,0.776020,0.055864,0.628230,0.013043,0.002211,-0.018321,-25.822311,121.431717,32.663853,,,,,,
1466441575.32,2.250987,-0.055842,-1.738105,0.001157,-0.027237,0.007764,0.776241,0.055812,0.627961,-0.018230,0.010655,0.014648,-25.764017,121.437660,32.687756,,,,,,
1466441575.33,2.251679,-0.055770,-1.738131,-0.005066,0.104429,0.006932,0.775809,0.055742,0.628501,-0.004737,0.008773,0.012262,-25.764017,121.437660,32.687756,,,,,,
1466441575.34,2.253172,-0.055870,-1.738108,-0.010336,0.146904,0.006661,0.774866,0.055841,0.629655,0.001990,0.005378,0.001586,-25.764017,121.437660,32.687756,,,,,,
1466441575.35,2.254013,-0.055750,-1.738140,-0.004051,0.072560,0.012455,0.774341,0.055721,0.630310,-0.005863,0.008748,-0.003021,-25.758488,121.440468,32.681690,,,,,,
1466441575.36,2.254996,-0.055579,-1.738192,-0.008269,0.111837,0.016463,0.773729,0.055550,0.631077,0.020751,0.004722,-0.010121,-25.758488,121.440468,32.681690,,,,,,
1466441575.37,2.256070,-0.055392,-1.738224,-0.009365,0.090596,0.018724,0.773058,0.055364,0.631915,0.007353,0.005900,-0.016818,-25.758488,121.440468,32.681690,,,,,,
1466441575.38,2.256721,-0.054984,-1.738290,-0.003043,0.036445,0.018005,0.772664,0.054956,0.632432,-0.001149,-0.005594,0.007674,-25.859188,121.444130,32.588432,,,,,,
1466441575.39,2.257663,-0.054831,-1.738323,-0.009315,0.119286,0.011093,0.772075,0.054803,0.633165,0.011434,-0.003686,0.021422,-25.859188,121.444130,32.588432,,,,,,
1466441575.40,2.258628,-0.054626,-1.738411,-0.003014,0.076764,0.028397,0.771472,0.054599,0.633916,-0.045505,0.006100,0.027690,-25.850916,121.447861,32.581085,,,,,,
1466441575.41,2.261020,-0.054502,-1.738422,-0.017615,0.283885,0.004730,0.769958,0.054475,0.635765,0.116333,-0.005494,-0.061622,-25.850916,121.447861,32.581085,,,,,,
1466441575.42,2.261377,-0.054692,-1.738430,0.003179,-0.088863,0.024119,0.769724,0.054664,0.636032,-0.049631,0.008034,-0.024552,-25.850916,121.447861,32.581085,,,,,,
1466441575.43,2.262187,-0.054543,-1.738445,-0.025274,0.117191,0.004703,0.769215,0.054516,0.636661,0.043484,-0.022045,0.033429,-25.850916,121.447861,32.581085,,,,,,
1466441575.44,2.262128,-0.054306,-1.738512,0.008613,0.004564,0.026732,0.769262,0.054279,0.636624,-0.102148,-0.017582,0.085330,-25.961884,121.452759,32.474434,,,,,,
1466441575.45,2.265098,-0.054192,-1.738648,-0.010072,0.380464,0.020098,0.767373,0.054165,0.638910,0.063667,-0.013928,-0.015741,-25.961884,121.452759,32.474434,,,,,,
1466441575.46,2.263411,-0.053487,-1.738745,-0.033569,0.299788,0.006744,0.768478,0.053461,0.637638,0.112839,-0.011912,-0.119038,-26.008144,121.460899,32.406910,,,,,,
1466441575.47,2.261020,-0.053285,-1.738827,0.004936,-0.380896,0.029147,0.770009,0.053260,0.635806,-0.201421,-0.003562,0.128491,-26.008144,121.460899,32.406910,,,,,,
1466441575.48,2.261249,-0.053143,-1.739166,0.011081,0.282713,0.030313,0.769869,0.053118,0.635987,-0.079119,0.012845,0.170714,-26.008144,121.460899,32.406910,,,,,,
1466441575.49,2.269813,-0.052834,-1.738954,-0.050897,0.920943,0.006024,0.764407,0.052809,0.642567,0.074292,0.018754,-0.060109,-26.008144,121.460899,32.406910,,,,,,
1466441575.50,2.274566,-0.052567,-1.738859,-0.009119,0.291244,0.020660,0.761355,0.052542,0.646202,-0.057650,0.005380,-0.015663,-26.011049,121.472466,32.361179,,,,,,
1466441575.51,2.276817,-0.052460,-1.739018,0.000472,0.289130,0.015360,0.759903,0.052436,0.647919,-0.020843,0.001901,0.051712,-26.011049,121.472466,32.361179,,,,,,
1466441575.52,2.282659,-0.052238,-1.738868,-0.030994,0.656550,0.005573,0.756113,0.052214,0.652354,-0.001582,0.004487,0.022389,-26.197582,121.474762,32.201675,,,,,,
1466441575.53,2.288654,-0.051963,-1.738731,-0.026892,0.547156,0.015844,0.752200,0.051939,0.656885,-0.047183,0.005907,0.019232,-26.197582,121.474762,32.201675,,,,,,
1466441575.54,2.293836,-0.051918,-1.738672,-0.027011,0.468556,0.026980,0.748788,0.051894,0.660775,-0.004220,0.008790,0.009910,-26.197582,121.474762,32.201675,,,,,,
1466441575.55,2.298526,-0.051554,-1.738604,-0.028081,0.453709,0.020686,0.745695,0.051532,0.664292,0.006579,0.003095,0.006194,-26.197582,121.474762,32.201675,,,,,,
1466441575.56,2.302537,-0.051310,-1.738631,-0.013237,0.402738,0.019956,0.743033,0.051288,0.667286,-0.048347,-0.001437,0.048794,-26.840982,121.456696,31.736624,,,,,,
1466441575.57,2.307549,-0.050962,-1.738596,-0.031184,0.533334,0.024441,0.739693,0.050939,0.671014,-0.021904,0.002100,0.025901,-26.840982,121.456696,31.736624,,,,,,
1466441575.58,2.314251,-0.050565,-1.738500,-0.029123,0.497207,0.036378,0.735194,0.050544,0.675970,-0.055980,0.001016,0.021143,-27.073536,121.455711,31.542236,,,,,,
1466441575.59,2.319046,-0.050019,-1.738557,-0.034478,0.489748,0.047064,0.731965,0.049998,0.679506,-0.063248,0.012227,0.043761,-27.073536,121.455711,31.542236,,,,,,
1466441575.60,2.324631,-0.049357,-1.738625,-0.045021,0.586354,0.054963,0.728182,0.049337,0.683606,-0.052675,0.013972,0.031650,-27.073536,121.455711,31.542236,,,,,,
1466441575.61,2.330808,-0.048605,-1.738635,-0.049237,0.620334,0.054746,0.723972,0.048586,0.688117,-0.046344,0.004285,0.039224,-27.073536,121.455711,31.542236,,,,,,
1466441575.62,2.339222,-0.047960,-1.738554,-0.049175,0.661768,0.049163,0.718179,0.047941,0.694205,-0.032983,0.001634,0.032724,-27.589252,121.454285,31.097784,,,,,,
1466441575.63,2.346052,-0.047217,-1.738471,-0.059792,0.681954,0.046897,0.713446,0.047200,0.699119,-0.035010,-0.008534,0.025415,-27.589252,121.454285,31.097784,,,,,,
1466441575.64,2.352743,-0.046512,-1.738402,-0.051292,0.666025,0.045941,0.708776,0.046495,0.703900,-0.072438,-0.013215,0.063495,-27.953304,121.445389,30.805994,,,,,,
1466441575.65,2.360001,-0.045797,-1.738370,-0.056510,0.755211,0.048570,0.703671,0.045781,0.709049,-0.074765,-0.013402,0.073391,-27.953304,121.445389,30.805994,,,,,,
1466441575.66,2.368654,-0.045027,-1.738273,-0.056395,0.840169,0.043780,0.697535,0.045011,0.715136,-0.025934,-0.004972,0.042539,-27.953304,121.445389,30.805994,,,,,,
1466441575.67,2.376440,-0.044434,-1.738189,-0.046908,0.745696,0.032673,0.691964,0.044419,0.720565,-0.037011,-0.010377,0.026277,-27.953304,121.445389,30.805994,,,,,,
1466441575.68,2.383512,-0.043917,-1.738151,-0.037365,0.713837,0.032882,0.686866,0.043903,0.725457,-0.063621,-0.006274,0.056388,-28.666576,121.428741,30.210400,,,,,,
1466441575.70,2.399842,-0.042791,-1.737971,-0.045769,0.806217,0.033359,0.674961,0.042778,0.736612,-0.085591,-0.003456,0.047644,-28.666576,121.428741,30.210400,,,,,,
1466441575.69,2.391277,-0.043379,-1.738077,-0.047914,0.792415,0.032379,0.681229,0.043366,0.730785,-0.071487,-0.005036,0.048939,-28.666576,121.428741,30.210400,,,,,,
1466441575.71,2.408103,-0.042250,-1.737958,-0.042535,0.841249,0.035271,0.668869,0.042238,0.742180,-0.087066,-0.003312,0.053963,-29.034098,121.421997,29.884817,,,,,,
1466441575.72,2.417068,-0.041686,-1.737872,-0.048822,0.912411,0.028432,0.662204,0.041674,0.748164,-0.069690,0.000105,0.041418,-29.034098,121.421997,29.884817,,,,,,
1466441575.73,2.426294,-0.041191,-1.737744,-0.044535,0.924106,0.021976,0.655286,0.041179,0.754257,-0.097822,-0.004756,0.049820,-29.034098,121.421997,29.884817,,,,,,
1466441575.74,2.436399,-0.040748,-1.737615,-0.041226,1.012241,0.019298,0.647643,0.040737,0.760854,-0.126647,-0.004696,0.067866,-29.918365,121.403351,29.077463,,,,,,
1466441575.76,2.460288,-0.039635,-1.737163,-0.066507,1.227803,0.016856,0.629312,0.039625,0.776142,-0.108179,0.008135,0.020642,-29.918365,121.403351,29.077463,,,,,,
1466441575.75,2.447933,-0.040240,-1.737442,-0.053771,1.199122,0.019177,0.638838,0.040229,0.768289,-0.100310,0.004876,0.048819,-29.918365,121.403351,29.077463,,,,,,
1466441575.77,2.472812,-0.039047,-1.736919,-0.058992,1.280884,0.018659,0.619557,0.039037,0.783980,-0.150884,0.008632,0.058702,-30.494526,121.388481,28.535952,,,,,,
1466441575.78,2.487390,-0.038387,-1.736599,-0.077886,1.495381,0.016231,0.608079,0.038378,0.792949,-0.108185,0.015059,0.042043,-30.494526,121.388481,28.535952,,,,,,
1466441575.79,2.502712,-0.037642,-1.736233,-0.078918,1.519754,0.017145,0.595875,0.037633,0.802195,-0.120197,0.004160,0.021398,-30.494526,121.388481,28.535952,,,,,,
1466441575.80,2.518118,-0.036912,-1.735930,-0.076757,1.546295,0.018045,0.583462,0.036903,0.811302,-0.134167,-0.008797,0.038079,-31.939617,121.331276,27.165436,,,,,,
1466441575.81,2.534462,-0.036215,-1.735606,-0.073409,1.660983,0.012007,0.570139,0.036207,0.820750,-0.098444,-0.005262,0.033819,-31.939617,121.331276,27.165436,,,,,,
1466441575.82,2.551146,-0.035626,-1.735252,-0.068078,1.649330,0.001441,0.556379,0.035618,0.830165,-0.077253,-0.002461,0.000951,-31.939617,121.331276,27.165436,,,,,,
1466441575.83,2.566958,-0.035135,-1.734951,-0.055409,1.565438,0.003044,0.543193,0.035128,0.838873,-0.105907,-0.013216,-0.006475,-32.748890,121.300987,26.324181,,,,,,
1466441575.84,2.582533,-0.034703,-1.734701,-0.047976,1.547387,0.002100,0.530070,0.034697,0.847244,-0.105845,-0.007460,-0.012359,-32.748890,121.300987,26.324181,,,,,,
1466441575.85,2.598146,-0.034282,-1.734460,-0.050085,1.562256,0.000940,0.516786,0.034276,0.855428,-0.085099,-0.010060,-0.024801,-33.581726,121.270271,25.400143,,,,,,
1466441575.86,2.613152,-0.033847,-1.734241,-0.047009,1.470933,0.003645,0.503898,0.033841,0.863100,-0.096153,-0.007153,-0.053362,-33.581726,121.270271,25.400143,,,,,,
1466441575.87,2.627226,-0.033453,-1.734110,-0.040725,1.396589,0.009440,0.491708,0.033446,0.870118,-0.111642,0.005387,-0.059418,-33.581726,121.270271,25.400143,,,,,,
1466441575.88,2.640844,-0.032938,-1.733977,-0.052501,1.355167,0.016074,0.479822,0.032932,0.876747,-0.139414,0.000393,-0.070702,-35.038349,121.229614,23.560053,,,,,,
1466441575.89,2.654537,-0.032365,-1.733935,-0.053548,1.390172,0.028627,0.467781,0.032359,0.883252,-0.116508,-0.018916,-0.074262,-35.038349,121.229614,23.560053,,,,,,
1466441575.90,2.667070,-0.031686,-1.733823,-0.061231,1.240403,0.050848,0.456684,0.031681,0.889065,-0.256291,-0.009174,-0.107525,-35.038349,121.229614,23.560053,,,,,,
1466441575.92,2.693235,-0.029411,-1.733274,-0.131428,1.261742,0.026162,0.433299,0.029407,0.900770,-0.073878,-0.035739,-0.104597,-35.625591,121.218597,22.721146,,,,,,
1466441575.91,2.680472,-0.030759,-1.733620,-0.113243,1.327567,0.024702,0.444742,0.030754,0.895131,-0.110315,0.005623,-0.172444,-35.625591,121.218597,22.721146,,,,,,
1466441575.93,2.704313,-0.028849,-1.733167,-0.029460,1.083276,0.039092,0.423301,0.028845,0.905530,-0.233680,-0.014517,-0.044553,-35.625591,121.218597,22.721146,,,,,,
1466441575.94,2.717287,-0.028362,-1.733043,-0.071668,1.329735,0.001312,0.411523,0.028358,0.910958,-0.151589,0.012077,-0.124154,-36.615292,121.173500,21.346756,,,,,,
1466441575.95,2.730114,-0.027657,-1.733033,-0.050536,1.261663,0.040081,0.399812,0.027654,0.916180,-0.248598,-0.004415,-0.179195,-36.615292,121.173500,21.346756,,,,,,
1466441575.96,2.741911,-0.027038,-1.733354,-0.049637,1.156497,0.057772,0.388983,0.027035,0.920848,-0.211020,0.000416,-0.213039,-36.615292,121.173500,21.346756,,,,,,
1466441575.97,2.753542,-0.026208,-1.733559,-0.070907,1.160782,0.048144,0.378255,0.026205,0.925331,-0.106709,0.011469,-0.236274,-37.110901,121.163177,20.534012,,,,,,
1466441575.98,2.763823,-0.025533,-1.733844,-0.044518,0.984498,0.053534,0.368728,0.025530,0.929187,-0.122421,-0.021090,-0.236376,-37.110901,121.163177,20.534012,,,,,,
1466441575.99,2.773377,-0.025036,-1.734095,-0.039201,0.953747,0.037765,0.359839,0.025034,0.932679,-0.122244,-0.005503,-0.250687,-37.110901,121.163177,20.534012,,,,,,
1466441576.00,2.783108,-0.024471,-1.734300,-0.045565,0.978162,0.040799,0.350751,0.024469,0.936149,-0.153806,-0.014901,-0.272071,-37.730362,121.197136,19.158686,,,,,,
1466441576.01,2.793277,-0.024010,-1.734602,-0.030598,1.033357,0.044726,0.341217,0.024008,0.939678,-0.167526,-0.021582,-0.293102,-37.730362,121.197136,19.158686,,,,,,
1466441576.02,2.803918,-0.023400,-1.734897,-0.052915,1.073705,0.048708,0.331203,0.023398,0.943269,-0.159816,-0.005072,-0.351701,-37.730362,121.197136,19.158686,,,,,,
1466441576.03,2.814975,-0.022748,-1.735180,-0.051803,1.109809,0.047418,0.320758,0.022746,0.946888,-0.126331,0.000630,-0.376469,-38.004143,121.213997,18.499559,,,,,,
1466441576.04,2.826344,-0.021936,-1.735492,-0.076261,1.148022,0.055670,0.309978,0.021934,0.950491,-0.112422,-0.015938,-0.422598,-38.004143,121.213997,18.499559,,,,,,
1466441576.05,2.837835,-0.020988,-1.735846,-0.076286,1.144808,0.066335,0.299042,0.020987,0.954009,-0.076737,-0.006476,-0.465865,-38.004143,121.213997,18.499559,,,,,,
1466441576.06,2.849000,-0.020081,-1.736291,-0.076334,1.108703,0.067625,0.288377,0.020080,0.957306,-0.019075,-0.015761,-0.483551,-38.537514,121.252266,17.091764,,,,,,
1466441576.07,2.859700,-0.019064,-1.736643,-0.092365,1.047150,0.059480,0.278123,0.019063,0.960356,0.068267,0.005306,-0.530409,-38.537514,121.252266,17.091764,,,,,,
1466441576.08,2.869206,-0.018006,-1.737000,-0.089351,0.910164,0.064600,0.268987,0.018005,0.962975,0.140193,-0.005157,-0.565804,-38.537514,121.252266,17.091764,,,,,,
1466441576.09,2.876479,-0.017115,-1.737504,-0.068373,0.672284,0.075693,0.261980,0.017114,0.964921,0.194013,-0.020257,-0.589006,-38.744507,121.276176,16.441793,,,,,,
1466441576.10,2.881692,-0.016331,-1.738004,-0.057966,0.467374,0.068472,0.256950,0.016331,0.966287,0.281960,0.007336,-0.599496,-38.744507,121.276176,16.441793,,,,,,
1466441576.11,2.884461,-0.015566,-1.738622,-0.061502,0.213573,0.081770,0.254277,0.015565,0.967006,0.319088,-0.025102,-0.627102,-38.744507,121.276176,16.441793,,,,,,
1466441576.12,2.884978,-0.014929,-1.739311,-0.039418,-0.004111,0.084221,0.253779,0.014928,0.967147,0.398625,-0.012685,-0.621749,-43.519207,121.750816,10.180248,,,,,,
1466441576.13,2.883318,-0.014375,-1.740003,-0.037548,-0.216464,0.082362,0.255387,0.014375,0.966732,0.459854,-0.013673,-0.601040,-43.519207,121.750816,10.180248,,,,,,
1466441576.14,2.879422,-0.013801,-1.740752,-0.029328,-0.443711,0.090182,0.259153,0.013801,0.965738,0.505251,-0.018257,-0.608041,-43.519207,121.750816,10.180248,,,,,,
1466441576.15,2.873613,-0.013252,-1.741591,-0.039142,-0.623160,0.094491,0.264761,0.013251,0.964223,0.580729,0.011697,-0.562261,-43.308136,121.813759,10.326328,,,,,,
1466441576.16,2.865987,-0.012543,-1.742195,-0.056390,-0.824838,0.075514,0.272109,0.012542,0.962185,0.683000,0.080826,-0.565090,-43.308136,121.813759,10.326328,,,,,,
1466441576.17,2.855330,-0.011706,-1.743066,-0.056882,-1.147746,0.121181,0.282349,0.011706,0.959240,0.686187,-0.045077,-0.571621,-43.308136,121.813759,10.326328,,,,,,
1466441576.18,2.842334,-0.010880,-1.744254,-0.045433,-1.333608,0.137260,0.294794,0.010879,0.955499,0.745779,-0.040649,-0.461907,-42.552673,121.951965,11.739161,,,,,,
1466441576.19,2.828042,-0.009857,-1.745114,-0.078553,-1.474724,0.106179,0.308423,0.009857,0.951198,0.874347,0.022446,-0.424663,-42.552673,121.951965,11.739161,,,,,,
1466441576.20,2.810282,-0.008671,-1.746070,-0.085510,-1.877231,0.140630,0.325270,0.008671,0.945581,0.888872,-0.044514,-0.466852,-42.552673,121.951965,11.739161,,,,,,
1466441576.21,2.788837,-0.007206,-1.747196,-0.099786,-2.210654,0.151222,0.345477,0.007206,0.938400,0.933134,-0.043095,-0.377410,-41.909588,122.043274,13.032454,,,,,,
1466441576.22,2.765321,-0.005637,-1.747808,-0.132894,-2.379312,0.096896,0.367450,0.005637,0.930026,1.019269,0.056253,-0.241992,-41.909588,122.043274,13.032454,,,,,,
1466441576.23,2.739561,-0.003942,-1.748260,-0.143910,-2.644807,0.116645,0.391286,0.003942,0.920261,1.030925,-0.014776,-0.249942,-41.909588,122.043274,13.032454,,,,,,
1466441576.24,2.710674,-0.001955,-1.748896,-0.149676,-2.960224,0.142036,0.417705,0.001955,0.908580,1.022282,-0.053668,-0.166195,-39.958202,122.181755,17.198288,,,,,,
1466441576.25,2.680455,-0.000314,-1.749366,-0.121958,-3.003648,0.097629,0.444967,0.000314,0.895547,1.041849,0.031027,0.083747,-39.958202,122.181755,17.198288,,,,,,
1466441576.26,2.650891,0.001140,-1.749448,-0.126099,-2.953665,0.069635,0.471245,-0.001140,0.882002,1.073143,0.028515,0.120470,-39.958202,122.181755,17.198288,,,,,,
1466441576.27,2.620048,0.002401,-1.749361,-0.106050,-3.138359,0.045267,0.498219,-0.002401,0.867048,1.070568,-0.000986,0.148119,-38.554249,122.228279,19.865501,,,,,,
1466441576.28,2.588121,0.003098,-1.749106,-0.064471,-3.167984,-0.000277,0.525641,-0.003098,0.850701,1.026758,0.045746,0.302986,-38.554249,122.228279,19.865501,,,,,,
1466441576.29,2.558144,0.003474,-1.748464,-0.069420,-2.934273,-0.042197,0.550902,-0.003474,0.834563,0.999070,0.025935,0.366808,-38.554249,122.228279,19.865501,,,,,,
1466441576.30,2.530173,0.003677,-1.747580,-0.061686,-2.752636,-0.069940,0.574026,-0.003677,0.818829,0.946359,-0.000183,0.413334,-35.679501,122.185806,24.868053,,,,,,
1466441576.31,2.504119,0.003600,-1.746341,-0.069850,-2.546510,-0.119141,0.595163,-0.003600,0.803597,0.922202,0.013793,0.507423,-35.679501,122.185806,24.868053,,,,,,
1466441576.32,2.480721,0.003200,-1.744771,-0.059845,-2.267161,-0.157074,0.613802,-0.003200,0.789453,0.904356,0.021984,0.570761,-35.679501,122.185806,24.868053,,,,,,
1466441576.33,2.458778,0.002677,-1.743093,-0.065061,-2.194933,-0.166048,0.630977,-0.002677,0.775797,0.921605,-0.023263,0.557760,-34.483997,122.093117,26.924742,,,,,,
1466441576.34,2.435477,0.001947,-1.741497,-0.031214,-2.386054,-0.172267,0.648882,-0.001947,0.760887,0.917524,-0.011023,0.598610,-34.483997,122.093117,26.924742,,,,,,
1466441576.35,2.411366,0.000450,-1.740217,0.045517,-2.385995,-0.207317,0.667038,-0.000450,0.745023,0.857620,0.050331,0.742373,-34.483997,122.093117,26.924742,,,,,,
1466441576.36,2.387928,-0.001616,-1.738876,0.064806,-2.351916,-0.247961,0.684315,0.001616,0.729185,0.899273,0.062440,0.742083,-32.655117,121.825882,30.214504,,,,,,
1466441576.37,2.362114,-0.003965,-1.737582,0.088902,-2.684240,-0.257561,0.702903,0.003965,0.711274,0.903176,0.010516,0.680816,-32.655117,121.825882,30.214504,,,,,,
1466441576.38,2.332779,-0.006716,-1.736814,0.149189,-2.993275,-0.248112,0.723452,0.006716,0.690342,0.830350,0.022215,0.744091,-32.655117,121.825882,30.214504,,,,,,
1466441576.39,2.301900,-0.009436,-1.736233,0.137286,-3.124968,-0.234525,0.744405,0.009436,0.667662,0.816554,-0.010062,0.780916,-31.733877,121.710281,31.628910,,,,,,
1466441576.40,2.268938,-0.011935,-1.735794,0.127354,-3.368178,-0.210656,0.765983,0.011935,0.642750,0.780449,-0.036730,0.773037,-31.733877,121.710281,31.628910,,,,,,
1466441576.41,2.233234,-0.014112,-1.735569,0.120581,-3.618856,-0.173964,0.788417,0.014112,0.614980,0.690877,-0.028959,0.830516,-31.733877,121.710281,31.628910,,,,,,
1466441576.42,2.197829,-0.015985,-1.735545,0.101541,-3.481939,-0.151423,0.809669,0.015984,0.586670,0.595590,-0.031380,0.923050,-28.529081,121.615547,34.879383,,,,,,
1466441576.43,2.164139,-0.017599,-1.735234,0.060159,-3.356646,-0.144799,0.828948,0.017598,0.559049,0.609468,-0.012563,0.961001,-28.529081,121.615547,34.879383,,,,,,
1466441576.44,2.132148,-0.019061,-1.735198,0.084910,-3.102963,-0.118690,0.846382,0.019060,0.532235,0.405662,-0.008104,1.078544,-28.529081,121.615547,34.879383,,,,,,
1466441576.45,2.105951,-0.020446,-1.735149,0.050576,-2.460561,-0.120624,0.860010,0.020445,0.509868,0.411047,0.002367,1.158666,-26.427103,121.596054,36.562668,,,,,,
1466441576.46,2.083839,-0.021575,-1.734519,-0.004418,-2.177009,-0.130973,0.871052,0.021573,0.490717,0.475750,-0.038693,1.077749,-26.427103,121.596054,36.562668,,,,,,
1466441576.47,2.063760,-0.022860,-1.733983,0.015090,-1.910494,-0.136883,0.880704,0.022858,0.473115,0.361514,0.000366,1.137190,-26.427103,121.596054,36.562668,,,,,,
1466441576.48,2.049386,-0.023969,-1.733166,-0.032064,-1.285104,-0.128079,0.887390,0.023966,0.460396,0.290329,-0.005335,1.246102,-23.264391,121.530190,38.858730,,,,,,
1466441576.49,2.039988,-0.024820,-1.732134,-0.051792,-0.862535,-0.116911,0.891659,0.024817,0.452026,0.194843,-0.031333,1.255570,-23.264391,121.530190,38.858730,,,,,,
1466441576.50,2.031555,-0.025724,-1.731386,-0.026241,-0.856191,-0.111603,0.895419,0.025722,0.444480,0.196301,0.019856,1.236504,-23.264391,121.530190,38.858730,,,,,,
1466441576.51,2.023388,-0.026672,-1.730428,-0.041003,-0.787088,-0.140791,0.898997,0.026669,0.437143,0.131780,0.010746,1.231208,-25.370052,121.228012,41.455894,,,,,,
1466441576.52,2.017116,-0.027765,-1.729577,-0.041792,-0.558814,-0.136901,0.901694,0.027762,0.431482,0.040429,-0.010779,1.302969,-25.370052,121.228012,41.455894,,,,,,
1466441576.53,2.012520,-0.028695,-1.728614,-0.026775,-0.453733,-0.126901,0.903644,0.028691,0.427322,-0.055911,-0.012318,1.303787,-25.370052,121.228012,41.455894,,,,,,
1466441576.54,2.008638,-0.030084,-1.728489,0.051081,-0.366674,-0.138014,0.905259,0.030079,0.423794,-0.129975,0.045086,1.343830,-24.824488,121.040825,42.324028,,,,,,
1466441576.55,2.004337,-0.031437,-1.727881,-0.002267,-0.467498,-0.144886,0.907036,0.031432,0.419879,-0.122063,-0.011153,1.300931,-24.824488,121.040825,42.324028,,,,,,
1466441576.56,1.999482,-0.033093,-1.727815,0.083979,-0.477077,-0.152191,0.909015,0.033087,0.415449,-0.274280,0.013940,1.309603,-24.824488,121.040825,42.324028,,,,,,
1466441576.57,1.994751,-0.034929,-1.727893,0.081875,-0.477041,-0.164966,0.910913,0.034922,0.411117,-0.355326,0.026311,1.364930,-24.814766,120.992630,42.467289,,,,,,
1466441576.58,1.989936,-0.036895,-1.728218,0.115956,-0.474926,-0.168139,0.912818,0.036886,0.406698,-0.522773,-0.002340,1.327632,-24.814766,120.992630,42.467289,,,,,,
1466441576.59,1.985140,-0.038739,-1.728705,0.123361,-0.476056,-0.144707,0.914694,0.038729,0.402287,-0.673727,-0.009600,1.286754,-24.814766,120.992630,42.467289,,,,,,
1466441576.60,1.981169,-0.040665,-1.729525,0.158622,-0.367784,-0.140028,0.916214,0.040654,0.398621,-0.825211,-0.007786,1.259811,-23.367323,120.940392,46.208076,,,,,,
1466441576.61,1.978462,-0.042595,-1.730414,0.164121,-0.223390,-0.137735,0.917216,0.042582,0.396108,-0.958079,-0.037928,1.237116,-23.367323,120.940392,46.208076,,,,,,
1466441576.62,1.978669,-0.044604,-1.731420,0.167763,0.121714,-0.147347,0.917054,0.044589,0.396263,-1.149079,-0.074619,1.142799,-23.367323,120.940392,46.208076,,,,,,
1466441576.63,1.982665,-0.046661,-1.732321,0.170370,0.494420,-0.155004,0.915377,0.046644,0.399887,-1.284456,-0.094099,1.032486,-23.407766,121.016853,45.986870,,,,,,
1466441576.64,1.990678,-0.048726,-1.733138,0.146379,0.894726,-0.155410,0.912053,0.048706,0.407169,-1.406072,-0.108979,0.890363,-23.407766,121.016853,45.986870,,,,,,
1466441576.65,2.001439,-0.050477,-1.733750,0.133881,1.159048,-0.130469,0.907540,0.050455,0.416923,-1.486764,-0.109522,0.720971,-23.407766,121.016853,45.986870,,,,,,
1466441576.66,2.016807,-0.052259,-1.734677,0.155777,1.670771,-0.113432,0.900944,0.052236,0.430781,-1.590580,-0.082662,0.625845,-25.163904,121.158340,44.667984,,,,,,
1466441576.67,2.037866,-0.053776,-1.735396,0.134119,2.252611,-0.103265,0.891601,0.053750,0.449621,-1.666259,-0.104257,0.504313,-25.163904,121.158340,44.667984,,,,,,
1466441576.68,2.064228,-0.055183,-1.736111,0.118752,2.761176,-0.089438,0.879372,0.055155,0.472930,-1.685830,-0.116892,0.361237,-27.045069,121.227585,43.361656,,,,,,
1466441576.69,2.095690,-0.056183,-1.736675,0.094850,3.284560,-0.057618,0.864012,0.056154,0.500330,-1.708388,-0.103761,0.171026,-27.045069,121.227585,43.361656,,,,,,
1466441576.70,2.132899,-0.057021,-1.737183,0.079452,3.774006,-0.040478,0.844761,0.056990,0.532100,-1.667302,-0.075377,-0.080333,-27.045069,121.227585,43.361656,,,,,,
1466441576.71,2.171966,-0.057408,-1.737680,0.059339,3.952252,0.011606,0.823316,0.057377,0.564676,-1.555540,-0.067387,-0.344781,-27.045069,121.227585,43.361656,,,,,,
1466441576.72,2.214523,-0.057270,-1.738049,0.003374,4.372669,0.039783,0.798554,0.057239,0.599196,-1.531204,-0.029239,-0.561873,-32.811501,121.325684,38.875179,,,,,,
1466441576.73,2.260766,-0.056802,-1.738201,-0.017553,4.679517,0.046353,0.770021,0.056771,0.635487,-1.344561,0.014609,-0.766682,-32.811501,121.325684,38.875179,,,,,,
1466441576.74,2.308337,-0.056111,-1.738350,-0.046204,4.788842,0.065863,0.738960,0.056082,0.671412,-1.175788,0.024988,-0.943476,-36.033897,121.355072,35.809227,,,,,,
1466441576.75,2.355946,-0.055013,-1.738480,-0.067622,4.743104,0.099127,0.706212,0.054985,0.705862,-0.826528,0.001426,-1.249654,-36.033897,121.355072,35.809227,,,,,,
1466441576.76,2.403287,-0.053464,-1.738647,-0.115616,4.729237,0.131099,0.672074,0.053438,0.738553,-0.651017,-0.022188,-1.377088,-36.033897,121.355072,35.809227,,,,,,
1466441576.77,2.450409,-0.051417,-1.738827,-0.144424,4.710089,0.149286,0.636607,0.051394,0.769474,-0.446391,-0.047305,-1.410984,-39.097065,121.377884,32.351582,,,,,,
1466441576.78,2.497441,-0.049188,-1.739020,-0.171075,4.692037,0.154695,0.599794,0.049169,0.798642,-0.199205,-0.074742,-1.503339,-39.097065,121.377884,32.351582,,,,,,
1466441576.79,2.543485,-0.046779,-1.739219,-0.185112,4.546559,0.161980,0.562464,0.046762,0.825498,0.074728,-0.093698,-1.599363,-39.097065,121.377884,32.351582,,,,,,
1466441576.80,2.586096,-0.044273,-1.739581,-0.189853,4.165318,0.168628,0.526848,0.044259,0.848806,0.305595,-0.113473,-1.610876,-43.807167,121.450394,25.269146,,,,,,
1466441576.81,2.625272,-0.041887,-1.740095,-0.176403,3.842540,0.164279,0.493251,0.041875,0.868879,0.545278,-0.126149,-1.569837,-43.807167,121.450394,25.269146,,,,,,
1466441576.82,2.661524,-0.039677,-1.740706,-0.156515,3.554808,0.156523,0.461476,0.039667,0.886265,0.735911,-0.107919,-1.529698,-43.807167,121.450394,25.269146,,,,,,
1466441576.83,2.694757,-0.037614,-1.741317,-0.161149,3.246902,0.153127,0.431808,0.037605,0.901181,0.872589,-0.093345,-1.515759,-43.807167,121.450394,25.269146,,,,,,
1466441576.84,2.724872,-0.035663,-1.742115,-0.137061,2.937888,0.161476,0.404506,0.035655,0.913840,0.982090,-0.089427,-1.464468,-46.405483,121.585472,19.269140,,,,,,
1466441576.85,2.752728,-0.033489,-1.743009,-0.179908,2.737220,0.165885,0.378925,0.033483,0.924821,1.190365,-0.055257,-1.425157,-46.405483,121.585472,19.269140,,,,,,
1466441576.86,2.778230,-0.031113,-1.743890,-0.187694,2.480253,0.172811,0.355247,0.031108,0.934255,1.382149,-0.040645,-1.292073,-46.405483,121.585472,19.269140,,,,,,
1466441576.87,2.800867,-0.028564,-1.744731,-0.224222,2.205287,0.165984,0.334035,0.028560,0.942128,1.546245,-0.015620,-1.170644,-47.064522,121.680115,16.931494,,,,,,
1466441576.88,2.821285,-0.025655,-1.745308,-0.261716,1.984519,0.142849,0.314755,0.025652,0.948826,1.726169,0.011045,-0.985325,-47.064522,121.680115,16.931494,,,,,,
1466441576.89,2.839035,-0.022620,-1.745595,-0.288631,1.693692,0.110583,0.297886,0.022618,0.954333,1.920360,0.033900,-0.717319,-47.064522,121.680115,16.931494,,,,,,
1466441576.91,2.860275,-0.016690,-1.744851,-0.287823,0.507886,0.034994,0.277584,0.016690,0.960557,2.202153,-0.001721,-0.479447,-47.654972,121.825409,13.977478,,,,,,
1466441576.90,2.853030,-0.019613,-1.745333,-0.294347,1.278705,0.049313,0.284520,0.019611,0.958470,2.095668,0.058498,-0.581120,-47.654972,121.825409,13.977478,,,,,,
1466441576.92,2.857507,-0.014048,-1.744435,-0.257193,-0.556027,0.031053,0.280252,0.014047,0.959824,2.311377,0.035727,-0.279450,-47.654972,121.825409,13.977478,,,,,,
1466441576.94,2.817525,-0.010547,-1.743190,-0.140604,-2.787804,-0.024023,0.318407,0.010547,0.947895,2.221830,0.026532,0.200496,-47.827431,121.791351,13.682040,,,,,,
1466441576.93,2.843012,-0.011959,-1.743855,-0.200053,-1.754717,-0.002886,0.294143,0.011958,0.955687,2.312379,0.052708,-0.030851,-47.827431,121.791351,13.682040,,,,,,
1466441576.95,2.783778,-0.009545,-1.742710,-0.103261,-3.553421,-0.005347,0.350212,0.009544,0.936622,2.099388,-0.018150,0.377862,-47.827431,121.791351,13.682040,,,,,,
1466441576.96,2.743337,-0.008699,-1.742500,-0.082819,-4.204366,0.016852,0.387796,0.008699,0.921704,1.971853,-0.001252,0.569232,-46.580864,121.682442,18.204454,,,,,,
1466441576.97,2.698345,-0.008076,-1.742351,-0.055551,-4.555802,0.006310,0.428862,0.008076,0.903334,1.838274,0.028682,0.780748,-46.580864,121.682442,18.204454,,,,,,
1466441576.98,2.653174,-0.007409,-1.741969,-0.091622,-4.470807,-0.005968,0.469217,0.007409,0.883052,1.717016,-0.021035,0.946263,-46.580864,121.682442,18.204454,,,,,,
1466441576.99,2.610076,-0.006585,-1.741361,-0.097732,-4.252067,-0.009475,0.506831,0.006585,0.862020,1.525106,-0.052118,1.129206,-44.820332,121.663269,22.293077,,,,,,
1466441577.00,2.570465,-0.005659,-1.740744,-0.120654,-3.840096,-0.004631,0.540572,0.005659,0.841279,1.363145,-0.046262,1.315048,-44.820332,121.663269,22.293077,,,,,,
1466441577.01,2.537308,-0.004602,-1.739784,-0.142071,-3.124369,-0.031494,0.568167,0.004602,0.822900,1.320703,-0.011072,1.390326,-44.820332,121.663269,22.293077,,,,,,
1466441577.02,2.510957,-0.003707,-1.738246,-0.173121,-2.499864,-0.089729,0.589655,0.003707,0.807647,1.324225,0.012284,1.414887,-40.682346,121.530449,29.716845,,,,,,
1466441577.03,2.487692,-0.003137,-1.736221,-0.156807,-2.295885,-0.134634,0.608284,0.003137,0.793713,1.170845,0.011237,1.544818,-40.682346,121.530449,29.716845,,,,,,
1466441577.04,2.466711,-0.003273,-1.734217,-0.096753,-2.016553,-0.175711,0.624802,0.003273,0.780777,1.085342,0.052208,1.687958,-40.682346,121.530449,29.716845,,,,,,
1466441577.05,2.448954,-0.004044,-1.732285,-0.057996,-1.720253,-0.205206,0.638565,0.004044,0.769558,1.132584,0.004623,1.619267,-39.393238,121.348137,32.102951,,,,,,
1466441577.06,2.429385,-0.005101,-1.730085,-0.056267,-2.105574,-0.244301,0.653498,0.005101,0.756911,1.039221,0.030254,1.616395,-39.393238,121.348137,32.102951,,,,,,
1466441577.07,2.403657,-0.007105,-1.728491,0.084639,-2.685357,-0.252234,0.672745,0.007105,0.739840,0.792739,0.061849,1.769987,-39.393238,121.348137,32.102951,,,,,,
1466441577.08,2.375739,-0.009550,-1.727448,0.097230,-2.803276,-0.232321,0.693121,0.009550,0.720758,0.748071,-0.035566,1.735739,-37.574539,120.956932,35.572021,,,,,,
1466441577.09,2.344930,-0.011672,-1.726319,0.078552,-3.253489,-0.223130,0.714978,0.011671,0.699049,0.697253,-0.013655,1.671862,-37.574539,120.956932,35.572021,,,,,,
1466441577.10,2.306863,-0.014167,-1.726032,0.169199,-3.953321,-0.197361,0.741040,0.014167,0.671311,0.576052,0.025171,1.771453,-37.574539,120.956932,35.572021,,,,,,
1466441577.12,2.221865,-0.018897,-1.725759,0.135712,-4.320714,-0.185510,0.795295,0.018895,0.605929,0.265542,-0.010579,1.964430,-35.999466,120.847809,37.518539,,,,,,
1466441577.11,2.264961,-0.016641,-1.725922,0.137951,-4.242127,-0.191323,0.768482,0.016640,0.639655,0.447247,-0.045708,1.846108,-35.999466,120.847809,37.518539,,,,,,
1466441577.13,2.179176,-0.021296,-1.725968,0.154976,-4.230491,-0.178606,0.820389,0.021294,0.571409,0.082412,-0.020333,2.045290,-35.999466,120.847809,37.518539,,,,,,
1466441577.15,2.099449,-0.025506,-1.726036,0.129914,-3.822773,-0.171608,0.863207,0.025503,0.504206,-0.302492,-0.008520,2.113226,-30.738821,120.603798,43.012215,,,,,,
1466441577.14,2.138291,-0.023406,-1.725952,0.103043,-4.035102,-0.176690,0.843019,0.023404,0.537374,-0.093477,-0.053937,2.048304,-30.738821,120.603798,43.012215,,,,,,
1466441577.16,2.064034,-0.027783,-1.726400,0.141065,-3.432017,-0.180434,0.880465,0.027780,0.473297,-0.441622,-0.024713,2.133209,-30.738821,120.603798,43.012215,,,,,,
1466441577.17,2.033081,-0.029961,-1.726682,0.123526,-2.987107,-0.185371,0.894634,0.029956,0.445794,-0.552578,-0.052768,2.123206,-27.649952,120.603645,45.060429,,,,,,
1466441577.18,2.006104,-0.032313,-1.727032,0.138936,-2.605892,-0.200520,0.906267,0.032307,0.421469,-0.714754,-0.025914,2.139627,-27.649952,120.603645,45.060429,,,,,,
1466441577.19,1.983521,-0.034802,-1.727556,0.148084,-2.114264,-0.209981,0.915477,0.034795,0.400864,-0.950618,-0.041677,2.146728,-27.649952,120.603645,45.060429,,,,,,
1466441577.20,1.967490,-0.037340,-1.727944,0.138317,-1.421946,-0.220719,0.921701,0.037331,0.386102,-1.219186,-0.042473,2.097785,-23.208311,120.667908,47.337456,,,,,,
1466441577.21,1.959008,-0.040057,-1.728505,0.152071,-0.656370,-0.234022,0.924845,0.040046,0.378230,-1.440012,-0.051048,1.998647,-23.208311,120.667908,47.337456,,,,,,
1466441577.22,1.957405,-0.042682,-1.729056,0.158186,0.005078,-0.219005,0.925349,0.042669,0.376707,-1.675029,-0.063375,1.776553,-23.208311,120.667908,47.337456,,,,,,
1466441577.23,1.961912,-0.045282,-1.729765,0.154616,0.579471,-0.206644,0.923537,0.045267,0.380829,-1.796736,-0.090494,1.537674,-22.586365,120.704185,47.545326,,,,,,
1466441577.24,1.970510,-0.047495,-1.730470,0.160328,0.957353,-0.166430,0.920134,0.047477,0.388715,-1.961394,-0.054710,1.326357,-22.586365,120.704185,47.545326,,,,,,
1466441577.25,1.983408,-0.049487,-1.731457,0.160825,1.406404,-0.136248,0.914955,0.049467,0.400513,-2.029701,-0.067106,1.210648,-23.252199,120.753403,47.097282,,,,,,
1466441577.27,2.023948,-0.053155,-1.733776,0.182375,2.487259,-0.124910,0.897802,0.053130,0.437183,-2.172201,-0.136793,0.640271,-23.252199,120.753403,47.097282,,,,,,
1466441577.26,2.000594,-0.051256,-1.732468,0.180505,1.852290,-0.116671,0.907856,0.051233,0.416140,-2.201863,-0.064905,1.014494,-23.252199,120.753403,47.097282,,,,,,
1466441577.28,2.049688,-0.054740,-1.734702,0.170712,2.580610,-0.091444,0.886177,0.054712,0.460106,-2.243675,-0.130869,0.296989,-23.252199,120.753403,47.097282,,,,,,
1466441577.29,2.076325,-0.056445,-1.736266,0.215559,2.718560,-0.069911,0.873525,0.056415,0.483499,-2.252507,-0.116505,0.031409,-26.779543,120.930740,44.708107,,,,,,
1466441577.30,2.106742,-0.057958,-1.737534,0.184191,3.176213,-0.072813,0.858343,0.057926,0.509797,-2.179922,-0.135868,-0.270157,-26.779543,120.930740,44.708107,,,,,,
1466441577.31,2.140901,-0.059502,-1.738947,0.202629,3.483000,-0.051301,0.840355,0.059467,0.538765,-2.046486,-0.122699,-0.727318,-26.779543,120.930740,44.708107,,,,,,
1466441577.32,2.175927,-0.060924,-1.740214,0.177070,3.491484,-0.042864,0.820902,0.060886,0.567814,-1.817560,-0.118717,-1.130696,-32.134880,121.166077,40.327835,,,,,,
1466441577.33,2.210668,-0.062074,-1.741340,0.153630,3.504193,-0.027000,0.800627,0.062034,0.595943,-1.711486,-0.089241,-1.298579,-32.134880,121.166077,40.327835,,,,,,
1466441577.34,2.249969,-0.062920,-1.742126,0.095846,4.150814,-0.014082,0.776553,0.062879,0.626907,-1.671069,-0.075345,-1.351592,-32.134880,121.166077,40.327835,,,,,,
1466441577.35,2.301702,-0.063121,-1.742535,0.019787,5.572445,0.035471,0.743087,0.063079,0.666215,-1.460494,-0.054839,-1.358338,-34.950653,121.274284,37.565998,,,,,,
1466441577.36,2.360947,-0.062024,-1.742858,-0.077839,5.955596,0.108547,0.702385,0.061985,0.709093,-1.070824,0.001553,-1.775194,-34.950653,121.274284,37.565998,,,,,,
1466441577.37,2.416098,-0.060100,-1.743262,-0.125689,5.245121,0.168306,0.662308,0.060063,0.746820,-0.660599,-0.005300,-2.161875,-34.950653,121.274284,37.565998,,,,,,
1466441577.38,2.465218,-0.057613,-1.744427,-0.119865,4.930591,0.255440,0.624932,0.057581,0.778553,-0.148155,-0.072749,-2.263752,-41.549191,121.382713,29.666557,,,,,,
1466441577.39,2.511595,-0.054593,-1.744593,-0.234360,4.367021,0.189672,0.588265,0.054566,0.806825,0.745201,0.001403,-2.426012,-41.549191,121.382713,29.666557,,,,,,
1466441577.40,2.547254,-0.051979,-1.744749,-0.216298,3.415759,0.150949,0.559205,0.051955,0.827400,0.667358,-0.081145,-2.231391,-41.549191,121.382713,29.666557,,,,,,
1466441577.41,2.582132,-0.049166,-1.744707,-0.233182,3.553773,0.160711,0.530088,0.049146,0.846517,0.712939,-0.089720,-1.996023,-43.666294,121.477821,26.011427,,,,,,
1466441577.42,2.619303,-0.046130,-1.745207,-0.241562,3.752182,0.214809,0.498335,0.046114,0.865757,0.868715,-0.170290,-1.914097,-43.666294,121.477821,26.011427,,,,,,
1466441577.43,2.654447,-0.042558,-1.745847,-0.288922,3.362492,0.228915,0.467682,0.042545,0.882872,1.372330,-0.106068,-1.962004,-43.666294,121.477821,26.011427,,,,,,
1466441577.44,2.681858,-0.038953,-1.746684,-0.281427,2.555503,0.239306,0.443374,0.038943,0.895490,1.681336,-0.112826,-1.842390,-46.106670,121.588997,20.748337,,,,,,
1466441577.45,2.703297,-0.035526,-1.747548,-0.262865,2.040578,0.221265,0.424129,0.035518,0.904905,1.941701,-0.069057,-1.470472,-46.106670,121.588997,20.748337,,,,,,
1466441577.46,2.721644,-0.032207,-1.748133,-0.284410,1.773132,0.180343,0.407502,0.032201,0.912636,2.123672,-0.028661,-1.152459,-46.106670,121.588997,20.748337,,,,,,
1466441577.47,2.736385,-0.028979,-1.748472,-0.280618,1.358038,0.156339,0.394044,0.028975,0.918635,2.239012,-0.015166,-0.898356,-46.658279,121.149284,22.626427,,,,,,
1466441577.48,2.747121,-0.025935,-1.748510,-0.275631,1.001422,0.103229,0.384191,0.025932,0.922889,2.304759,0.037804,-0.582817,-46.658279,121.149284,22.626427,,,,,,
1466441577.49,2.755157,-0.023120,-1.747906,-0.287552,0.726609,0.036816,0.376788,0.023118,0.926011,2.361371,0.063582,-0.371842,-46.658279,121.149284,22.626427,,,,,,
1466441577.50,2.759250,-0.020431,-1.746945,-0.283785,0.281802,0.006611,0.373017,0.020430,0.927599,2.374282,0.026445,-0.221652,-47.161980,121.150024,21.552662,,,,,,
1466441577.51,2.757564,-0.017738,-1.745664,-0.301501,-0.320129,-0.026887,0.374600,0.017737,0.927017,2.401111,0.022775,-0.071945,-47.161980,121.150024,21.552662,,,,,,
1466441577.52,2.749482,-0.015001,-1.744065,-0.318265,-0.993233,-0.048229,0.382096,0.015001,0.924001,2.443221,0.027770,0.092814,-47.161980,121.150024,21.552662,,,,,,
1466441577.53,2.733361,-0.012092,-1.742504,-0.334240,-1.811934,-0.021822,0.396957,0.012091,0.917757,2.333633,-0.040427,0.359724,-47.220242,121.020042,22.147158,,,,,,
1466441577.54,2.710628,-0.008984,-1.741104,-0.337166,-2.409792,0.005343,0.417731,0.008984,0.908526,2.195322,-0.039471,0.709027,-47.220242,121.020042,22.147158,,,,,,
1466441577.55,2.683692,-0.005964,-1.739952,-0.319545,-2.758131,0.028834,0.442058,0.005964,0.896967,1.999714,-0.044721,1.032553,-47.220242,121.020042,22.147158,,,,,,
1466441577.56,2.655107,-0.003118,-1.738765,-0.299459,-2.886595,0.021144,0.467520,0.003118,0.883977,1.895411,-0.027563,1.263514,-45.445217,120.678764,27.156359,,,,,,
1466441577.57,2.625760,-0.000780,-1.737488,-0.251573,-2.960855,-0.011340,0.493259,0.000780,0.869882,1.811612,0.016935,1.377234,-45.445217,120.678764,27.156359,,,,,,
1466441577.58,2.594702,0.001138,-1.735974,-0.249617,-3.149769,-0.042087,0.520034,-0.001138,0.854145,1.655549,-0.050223,1.520580,-45.445217,120.678764,27.156359,,,,,,
1466441577.59,2.563647,0.002168,-1.734180,-0.139702,-3.071045,-0.116983,0.546303,-0.002168,0.837585,1.510475,0.072679,1.777527,-43.746563,120.524590,30.432880,,,,,,
1466441577.60,2.534600,0.001974,-1.732361,-0.090331,-2.856416,-0.180017,0.570398,-0.001974,0.821366,1.414251,0.028769,1.882217,-43.746563,120.524590,30.432880,,,,,,
1466441577.61,2.504244,0.001007,-1.730301,-0.002219,-3.153609,-0.234482,0.595066,-0.001007,0.803676,1.368221,0.059692,1.856419,-43.746563,120.524590,30.432880,,,,,,
1466441577.62,2.468513,-0.001460,-1.728838,0.123851,-3.740709,-0.281767,0.623397,0.001460,0.781904,1.245683,0.070684,1.925707,-40.302078,120.131149,36.198738,,,,,,
1466441577.63,2.428780,-0.004227,-1.727709,0.164066,-3.930800,-0.277342,0.653958,0.004227,0.756519,0.938495,0.020401,2.017682,-40.302078,120.131149,36.198738,,,,,,
1466441577.64,2.387307,-0.007808,-1.727070,0.214690,-4.314140,-0.273823,0.684748,0.007808,0.728739,1.032690,-0.010616,1.941336,-40.302078,120.131149,36.198738,,,,,,
1466441577.65,2.340235,-0.011005,-1.726284,0.192771,-4.834374,-0.284420,0.718258,0.011005,0.695690,0.847248,-0.020084,2.026356,-38.104446,120.016098,38.862400,,,,,,
1466441577.66,2.289253,-0.014556,-1.726569,0.247663,-5.122305,-0.226143,0.752743,0.014555,0.658154,0.464375,-0.055449,2.124286,-38.104446,120.016098,38.862400,,,,,,
1466441577.67,2.240646,-0.017051,-1.726395,0.141592,-4.745409,-0.193486,0.783801,0.017050,0.620778,0.307538,-0.045645,2.212078,-38.104446,120.016098,38.862400,,,,,,
1466441577.68,2.195574,-0.019307,-1.726513,0.122741,-4.449235,-0.166622,0.810942,0.019306,0.584808,0.223894,-0.081470,2.197144,-31.467512,119.992302,44.471825,,,,,,
1466441577.69,2.151656,-0.021094,-1.726051,0.067478,-4.376988,-0.173517,0.835805,0.021093,0.548621,0.115138,-0.044698,2.247110,-31.467512,119.992302,44.471825,,,,,,
1466441577.70,2.109933,-0.023194,-1.726020,0.110475,-4.069057,-0.186050,0.857921,0.023191,0.513257,-0.107021,-0.033369,2.359149,-31.467512,119.992302,44.471825,,,,,,
1466441577.71,2.073457,-0.025404,-1.725769,0.088870,-3.499864,-0.209866,0.876021,0.025401,0.481604,-0.290984,-0.026667,2.444498,-27.818644,119.984505,46.860870,,,,,,
1466441577.72,2.042873,-0.027931,-1.725829,0.130089,-2.911617,-0.224158,0.890278,0.027927,0.454560,-0.490529,-0.018909,2.435668,-27.818644,119.984505,46.860870,,,,,,
1466441577.73,2.017086,-0.030371,-1.725669,0.080584,-2.476264,-0.222680,0.901639,0.030367,0.431422,-0.692334,-0.057527,2.320577,-27.818644,119.984505,46.860870,,,,,,
1466441577.74,1.995917,-0.032826,-1.725703,0.121652,-1.984682,-0.221465,0.910498,0.032820,0.412208,-0.908057,-0.034438,2.295662,-22.303438,119.981361,49.730564,,,,,,
1466441577.75,1.980725,-0.035362,-1.725951,0.118180,-1.353975,-0.223295,0.916576,0.035355,0.398295,-1.096706,-0.032028,2.309820,-22.303438,119.981361,49.730564,,,,,,
1466441577.76,1.971915,-0.037947,-1.726211,0.134955,-0.717955,-0.230460,0.919962,0.037938,0.390167,-1.304392,-0.052983,2.244858,-22.303438,119.981361,49.730564,,,,,,
1466441577.77,1.969287,-0.040788,-1.726709,0.160217,-0.114840,-0.242733,0.920881,0.040777,0.387705,-1.539900,-0.058599,2.111639,-21.017075,120.001961,50.238541,,,,,,
1466441577.78,1.972197,-0.043635,-1.727293,0.167259,0.421341,-0.236509,0.919639,0.043621,0.390336,-1.789451,-0.064052,1.874969,-21.017075,120.001961,50.238541,,,,,,
1466441577.79,1.979702,-0.046304,-1.728113,0.182642,0.851226,-0.205123,0.916573,0.046287,0.397179,-2.004540,-0.060875,1.549461,-21.017075,120.001961,50.238541,,,,,,
1466441577.80,1.990494,-0.048586,-1.729098,0.183993,1.161131,-0.155972,0.912134,0.048567,0.407004,-2.150751,-0.035689,1.299692,-22.072332,120.120247,49.497837,,,,,,
1466441577.81,2.004750,-0.050536,-1.730414,0.202443,1.517753,-0.109225,0.906152,0.050514,0.419924,-2.271661,-0.030037,1.109434,-22.072332,120.120247,49.497837,,,,,,
1466441577.82,2.024286,-0.052201,-1.731819,0.196773,2.129287,-0.088584,0.897699,0.052177,0.437508,-2.424936,-0.053932,0.969108,-23.655821,120.240944,48.462513,,,,,,
1466441577.83,2.050381,-0.053733,-1.733254,0.200715,2.776897,-0.060708,0.885906,0.053708,0.460745,-2.499431,-0.053753,0.704401,-23.655821,120.240944,48.462513,,,,,,
1466441577.84,2.082963,-0.055186,-1.734694,0.185525,3.410781,-0.057248,0.870358,0.055158,0.489321,-2.516812,-0.133939,0.315596,-23.655821,120.240944,48.462513,,,,,,
1466441577.85,2.120073,-0.056535,-1.736098,0.195568,3.803599,-0.043735,0.851540,0.056504,0.521236,-2.408165,-0.156617,-0.206142,-26.032679,120.389313,46.848804,,,,,,
1466441577.86,2.158200,-0.057710,-1.737425,0.161421,3.787613,-0.015993,0.830997,0.057678,0.553279,-2.173343,-0.167984,-0.722072,-26.032679,120.389313,46.848804,,,,,,
1466441577.87,2.195189,-0.058529,-1.738654,0.150602,3.687744,0.008041,0.809929,0.058496,0.583603,-2.025048,-0.129770,-1.110657,-26.032679,120.389313,46.848804,,,,,,
1466441577.88,2.233229,-0.059145,-1.739946,0.132706,3.897908,0.036509,0.787120,0.059111,0.613961,-1.911143,-0.143141,-1.267053,-26.032679,120.389313,46.848804,,,,,,
1466441577.89,2.276821,-0.059338,-1.740912,0.073852,4.531801,0.044184,0.759608,0.059303,0.647672,-1.701747,-0.127266,-1.484159,-32.622456,120.667862,41.726978,,,,,,
1466441577.90,2.323730,-0.059050,-1.741616,0.017534,4.679320,0.079394,0.728414,0.059016,0.682591,-1.306524,-0.098505,-1.776753,-32.622456,120.667862,41.726978,,,,,,
1466441577.91,2.370175,-0.058183,-1.742282,-0.024090,4.667544,0.122004,0.695973,0.058150,0.715710,-1.114613,-0.062712,-2.008175,-32.622456,120.667862,41.726978,,,,,,
1466441577.92,2.418576,-0.056590,-1.742899,-0.090953,4.905307,0.161960,0.660591,0.056559,0.748613,-0.770942,-0.071315,-2.140199,-39.053471,120.859467,35.127140,,,,,,
1466441577.93,2.467432,-0.054328,-1.743460,-0.155030,4.812857,0.200796,0.623321,0.054301,0.780078,-0.225540,-0.030543,-2.321140,-39.053471,120.859467,35.127140,,,,,,
1466441577.95,2.551731,-0.048234,-1.744925,-0.235866,4.084407,0.239346,0.555599,0.048216,0.830051,0.414677,-0.109815,-2.342442,-41.879883,120.928131,31.441381,,,,,,
1466441577.94,2.511131,-0.051482,-1.744239,-0.183519,4.225597,0.239577,0.588736,0.051459,0.806685,0.171105,-0.073737,-2.441909,-41.879883,120.928131,31.441381,,,,,,
1466441577.96,2.593408,-0.044870,-1.745591,-0.252792,4.161944,0.232456,0.520614,0.044855,0.852613,0.823013,-0.122080,-2.172483,-41.879883,120.928131,31.441381,,,,,,
1466441577.97,2.630852,-0.041509,-1.746195,-0.254581,3.550406,0.215001,0.488402,0.041497,0.871631,1.258820,-0.134545,-2.136890,-41.879883,120.928131,31.441381,,,,,,
1466441577.98,2.660640,-0.038484,-1.747095,-0.220380,2.816662,0.227088,0.462281,0.038474,0.885898,1.534072,-0.133689,-2.097919,-46.315010,121.185165,27.721380,,,,,,
1466441577.99,2.684822,-0.035441,-1.748039,-0.229524,2.296418,0.217568,0.440776,0.035433,0.896918,1.855153,-0.108965,-1.818747,-46.315010,121.185165,27.721380,,,,,,
1466441578.00,2.704120,-0.032399,-1.748867,-0.239679,1.811229,0.202505,0.423429,0.032394,0.905350,2.069964,-0.063064,-1.596787,-46.315010,121.185165,27.721380,,,,,,
1466441578.01,2.717883,-0.029319,-1.749372,-0.264825,1.223114,0.165720,0.410968,0.029315,0.911178,2.299206,-0.001452,-1.296783,-47.219872,121.272789,25.740944,,,,,,
1466441578.02,2.726441,-0.026295,-1.749614,-0.268535,0.760258,0.136685,0.403189,0.026292,0.914739,2.357461,0.021392,-0.981420,-47.219872,121.272789,25.740944,,,,,,
1466441578.03,2.732618,-0.023470,-1.749382,-0.269696,0.587352,0.077095,0.397559,0.023468,0.917277,2.376336,0.048935,-0.642328,-47.219872,121.272789,25.740944,,,,,,
1466441578.04,2.737012,-0.020728,-1.748483,-0.290056,0.375189,0.010281,0.393549,0.020726,0.919070,2.429159,0.059993,-0.366549,-47.669960,121.308899,24.720999,,,,,,
1466441578.05,2.738236,-0.018198,-1.747189,-0.280832,0.028080,-0.025854,0.392443,0.018197,0.919596,2.436918,0.034965,-0.188548,-47.669960,121.308899,24.720999,,,,,,
1466441578.06,2.735267,-0.015664,-1.745665,-0.298364,-0.407183,-0.047624,0.395189,0.015663,0.918467,2.447387,-0.013374,-0.012491,-47.669960,121.308899,24.720999,,,,,,
1466441578.07,2.726963,-0.013078,-1.743795,-0.312888,-0.995338,-0.071625,0.402817,0.013077,0.915187,2.494629,-0.018632,0.207615,-47.800522,121.169838,25.147213,,,,,,
1466441578.08,2.711479,-0.010787,-1.742032,-0.270176,-1.739695,-0.062656,0.416949,0.010787,0.908866,2.431531,-0.016112,0.525445,-47.800522,121.169838,25.147213,,,,,,
1466441578.09,2.689129,-0.008685,-1.740464,-0.251830,-2.381054,-0.051165,0.437166,0.008685,0.899339,2.272978,-0.040301,0.849273,-47.800522,121.169838,25.147213,,,,,,
1466441578.10,2.661507,-0.007006,-1.739064,-0.197092,-2.887552,-0.051127,0.461844,0.007006,0.886933,2.141778,0.007704,1.081725,-46.734406,120.758057,28.858088,,,,,,
1466441578.11,2.628630,-0.005936,-1.737763,-0.143422,-3.427973,-0.071102,0.490752,0.005935,0.871279,2.065233,0.034317,1.233549,-46.734406,120.758057,28.858088,,,,,,
1466441578.12,2.589907,-0.005314,-1.736402,-0.116414,-4.003418,-0.090884,0.524116,0.005314,0.851630,1.976357,0.027355,1.345986,-46.734406,120.758057,28.858088,,,,,,
1466441578.13,2.548885,-0.005486,-1.735068,-0.037651,-4.094653,-0.133875,0.558601,0.005486,0.829419,1.751778,0.047584,1.597751,-45.024612,120.594383,32.080856,,,,,,
1466441578.14,2.509145,-0.006158,-1.733537,-0.038429,-3.934203,-0.177460,0.591109,0.006158,0.806568,1.592683,0.042502,1.764096,-45.024612,120.594383,32.080856,,,,,,
1466441578.15,2.469239,-0.007407,-1.731883,0.017947,-4.031823,-0.210854,0.622812,0.007407,0.782336,1.471182,0.043359,1.870191,-45.024612,120.594383,32.080856,,,,,,
1466441578.16,2.428610,-0.009207,-1.730578,0.066902,-4.058378,-0.215961,0.654065,0.009207,0.756382,1.180865,0.004786,2.050533,-40.025047,120.277512,39.124390,,,,,,
1466441578.17,2.389537,-0.011359,-1.729943,0.132080,-3.816422,-0.180158,0.683097,0.011359,0.730239,0.949517,0.036645,2.136033,-40.025047,120.277512,39.124390,,,,,,
1466441578.18,2.354146,-0.013590,-1.729310,0.095238,-3.531750,-0.214978,0.708489,0.013590,0.705591,1.004707,0.000784,2.097494,-40.025047,120.277512,39.124390,,,,,,
1466441578.19,2.311662,-0.015197,-1.728259,0.036456,-4.495943,-0.170669,0.737799,0.015196,0.674849,1.061502,-0.075041,1.905000,-37.277172,120.190796,41.999832,,,,,,
1466441578.20,2.267762,-0.017605,-1.728450,0.209248,-4.247576,-0.168861,0.766675,0.017604,0.641795,0.554599,0.055684,2.191900,-37.277172,120.190796,41.999832,,,,,,
1466441578.21,2.229013,-0.019107,-1.728039,-0.008503,-3.776127,-0.135844,0.790940,0.019106,0.611596,0.324417,-0.069261,2.225303,-37.277172,120.190796,41.999832,,,,,,
1466441578.22,2.192367,-0.020371,-1.727378,0.070423,-3.673163,-0.139604,0.812796,0.020370,0.582192,0.089532,0.049165,2.302436,-30.959850,120.120857,47.030510,,,,,,
1466441578.23,2.156342,-0.021973,-1.727493,0.078043,-3.516061,-0.125680,0.833210,0.021971,0.552521,-0.058383,-0.002089,2.389252,-30.959850,120.120857,47.030510,,,,,,
1466441578.24,2.126129,-0.023478,-1.727021,0.045928,-2.852336,-0.159679,0.849491,0.023476,0.527081,-0.212543,-0.063530,2.406864,-30.959850,120.120857,47.030510,,,,,,
1466441578.25,2.101267,-0.025133,-1.726503,0.033765,-2.376618,-0.171190,0.862297,0.025130,0.505779,-0.472694,-0.008422,2.433018,-27.785931,120.101959,49.019005,,,,,,
1466441578.26,2.081050,-0.026924,-1.726196,0.079071,-1.896726,-0.166704,0.872304,0.026921,0.488222,-0.779729,-0.010319,2.405775,-27.785931,120.101959,49.019005,,,,,,
1466441578.27,2.066899,-0.028755,-1.726080,0.067102,-1.240547,-0.163380,0.879081,0.028751,0.475805,-1.083381,-0.038441,2.310801,-25.431713,120.058098,50.385349,,,,,,
1466441578.29,2.060848,-0.032050,-1.725377,0.062377,0.100486,-0.162215,0.881855,0.032045,0.470430,-1.327992,0.013686,2.077391,-25.431713,120.058098,50.385349,,,,,,
1466441578.28,2.060796,-0.030342,-1.725655,0.036205,-0.397477,-0.162311,0.881927,0.030337,0.470409,-1.185852,-0.000400,2.206517,-25.431713,120.058098,50.385349,,,,,,
1466441578.30,2.063252,-0.033612,-1.725154,0.052962,0.268197,-0.141987,0.880677,0.033606,0.472524,-1.595704,0.005609,1.863536,-25.496143,120.749527,51.062073,,,,,,
1466441578.31,2.067601,-0.034996,-1.725447,0.104301,0.520764,-0.100942,0.878572,0.034989,0.476327,-1.825746,0.023468,1.685767,-25.496143,120.749527,51.062073,,,,,,
1466441578.32,2.075847,-0.036180,-1.726157,0.120693,0.932603,-0.055608,0.874577,0.036172,0.483535,-2.045063,0.009436,1.522492,-25.496143,120.749527,51.062073,,,,,,
1466441578.34,2.106598,-0.037413,-1.728537,0.137613,1.850776,0.039773,0.859258,0.037404,0.510173,-2.273397,-0.052602,0.836766,-26.149128,120.757545,50.711697,,,,,,
