timestamp,attitude_roll,attitude_pitch,attitude_yaw,rotation_rate_x,rotation_rate_y,rotation_rate_z,gravity_x,gravity_y,gravity_z,user_acc_x,user_acc_y,user_acc_z,magnetic_field_x,magnetic_field_y,magnetic_field_z,latitude(degree),longitude(degree),altitude(meter),speed(m/s),course(degree),timestamp
1465828315.35,2.521110,-0.769701,0.603741,0.002015,-0.200935,0.004535,0.417534,0.695921,0.584260,-0.510445,-0.686353,-1.586289,29.624899,42.576904,-59.395073,,,,,,
1465828315.36,2.507161,-0.781515,0.595115,0.002158,-0.155322,0.004242,0.420740,0.704356,0.571717,-0.536875,-0.691599,-1.560166,29.624899,42.576904,-59.395073,,,,,,
1465828315.37,2.493733,-0.793508,0.586419,0.004429,-0.113955,0.002913,0.423251,0.712818,0.559240,-0.549930,-0.702686,-1.545293,27.424601,39.553699,-62.462776,,,,,,
,,,,,,,,,,,,,,,,29.719993,-95.398995,10.973465,-1.000000,-1.000000,1465830457.19
,,,,,,,,,,,,,,,,29.720013,-95.398962,11.048320,-1.000000,-1.000000,1465830663.92
1465828315.38,2.478044,-0.804795,0.576229,0.001252,-0.171334,0.003264,0.426990,0.720688,0.546158,-0.527286,-0.710755,-1.542282,27.424601,39.553699,-62.462776,,,,,,
1465828315.39,2.460033,-0.815632,0.564905,0.001220,-0.266945,0.005988,0.431810,0.728159,0.532282,-0.513613,-0.713877,-1.533884,26.299006,37.969967,-63.912796,,,,,,
1465828315.40,2.440695,-0.826241,0.553070,0.000166,-0.333878,0.005337,0.437016,0.735390,0.517899,-0.519581,-0.725914,-1.523743,26.299006,37.969967,-63.912796,,,,,,
,,,,,,,,,,,,,,,,29.719993,-95.398995,10.973465,-1.000000,-1.000000,1465830457.19
1465828315.41,2.420854,-0.837120,0.541071,0.000205,-0.374274,0.006650,0.441898,0.742718,0.503086,-0.533970,-0.728939,-1.499607,26.299006,37.969967,-63.912796,,,,,,
1465828315.42,2.400780,-0.848087,0.529064,-0.000822,-0.415732,0.007967,0.446383,0.750017,0.488075,-0.553973,-0.740633,-1.485008,24.929565,36.276726,-65.427193,,,,,,
1465828315.43,2.378507,-0.858447,0.515921,-0.002980,-0.513461,0.008573,0.451748,0.756829,0.472371,-0.543453,-0.744912,-1.471990,24.929565,36.276726,-65.427193,,,,,,
1465828315.44,2.355139,-0.867863,0.502642,-0.004093,-0.617568,0.012413,0.457597,0.762949,0.456632,-0.544298,-0.752466,-1.460355,24.929565,36.276726,-65.427193,,,,,,
1465828315.46,2.290745,-0.897389,0.463087,-0.003913,-0.686716,0.011764,0.468887,0.781701,0.411204,-0.597351,-0.767877,-1.402979,21.609718,32.797150,-68.378128,,,,,,
1465828315.45,2.315889,-0.886941,0.477429,-0.005035,-0.655878,0.012641,0.464379,0.775142,0.428376,-0.585625,-0.764583,-1.418779,21.609718,32.797150,-68.378128,,,,,,
1465828315.47,2.267000,-0.905799,0.450139,-0.004971,-0.741975,0.014234,0.473457,0.786918,0.395725,-0.599022,-0.775489,-1.389362,21.609718,32.797150,-68.378128,,,,,,
1465828315.48,2.246165,-0.912205,0.439947,-0.006064,-0.814208,0.014681,0.477654,0.790855,0.382615,-0.612817,-0.776497,-1.375733,19.125212,30.215809,-70.281097,,,,,,
1465828315.49,2.221475,-0.920379,0.427164,-0.009255,-0.871586,0.016096,0.481794,0.795831,0.366779,-0.634886,-0.785257,-1.354404,19.125212,30.215809,-70.281097,,,,,,
1465828315.50,2.212537,-0.920193,0.427113,-0.008217,-0.891764,0.017288,0.485173,0.795718,0.362546,-0.658039,-0.781512,-1.341596,19.125212,30.215809,-70.281097,,,,,,
1465828315.51,2.203554,-0.920000,0.427047,-0.008217,-0.891764,0.017288,0.488533,0.795602,0.358264,-0.676308,-0.782281,-1.335345,15.467286,28.036264,-72.062004,,,,,,
1465828315.52,2.194672,-0.919817,0.426994,-0.008203,-0.882205,0.016164,0.491814,0.795491,0.353996,-0.686516,-0.784779,-1.329582,15.467286,28.036264,-72.062004,,,,,,
1465828315.53,2.185755,-0.919631,0.426963,-0.009281,-0.892822,0.016230,0.495072,0.795378,0.349682,-0.689896,-0.783827,-1.327068,15.467286,28.036264,-72.062004,,,,,,
1465828315.54,2.176607,-0.919438,0.426949,-0.011445,-0.920428,0.016400,0.498377,0.795261,0.345226,-0.707422,-0.783222,-1.323009,14.194108,28.042999,-72.320953,,,,,,
1465828315.55,2.167364,-0.919227,0.426929,-0.010380,-0.918308,0.017453,0.501685,0.795133,0.340699,-0.724966,-0.779844,-1.306809,14.194108,28.042999,-72.320953,,,,,,
1465828315.56,2.158238,-0.919028,0.426904,-0.009306,-0.910876,0.017407,0.504905,0.795012,0.336194,-0.719169,-0.780089,-1.304181,14.194108,28.042999,-72.320953,,,,,,
1465828315.57,2.148684,-0.918827,0.426860,-0.008320,-0.972464,0.018859,0.508227,0.794891,0.331442,-0.709765,-0.778076,-1.307043,11.574802,28.063572,-72.778175,,,,,,
1465828315.58,2.138046,-0.918597,0.426843,-0.011669,-1.093511,0.020679,0.511879,0.794751,0.326116,-0.720131,-0.782589,-1.304204,11.574802,28.063572,-72.778175,,,,,,
1465828315.59,2.126452,-0.918348,0.426825,-0.013897,-1.171024,0.022227,0.515793,0.794600,0.320263,-0.758850,-0.780241,-1.283154,11.574802,28.063572,-72.778175,,,,,,
,,,,,,,,,,,,,,,,29.721479,-95.401355,10.973465,-1.000000,-1.000000,1465830664.08
,,,,,,,,,,,,,,,,29.721540,-95.401452,10.973465,-1.000000,-1.000000,1465830664.10
1465828315.60,2.114703,-0.918085,0.426832,-0.013276,-1.173007,0.022252,0.519699,0.794440,0.314290,-0.784134,-0.784354,-1.268055,10.117313,28.074345,-72.990906,,,,,,
1465828315.61,2.103004,-0.917803,0.426861,-0.016478,-1.177255,0.023340,0.523534,0.794269,0.308302,-0.792409,-0.779544,-1.264860,10.117313,28.074345,-72.990906,,,,,,
1465828315.62,2.090879,-0.917506,0.426841,-0.013347,-1.222923,0.026823,0.527437,0.794088,0.302049,-0.836794,-0.776526,-1.252213,10.117313,28.074345,-72.990906,,,,,,
1465828315.63,2.079304,-0.917226,0.426932,-0.016419,-1.132657,0.021996,0.531092,0.793918,0.296032,-0.864756,-0.778232,-1.226574,6.691279,28.107698,-73.371559,,,,,,
1465828315.64,2.068873,-0.916973,0.426939,-0.012020,-1.016928,0.023403,0.534328,0.793764,0.290572,-0.910839,-0.775911,-1.210402,6.691279,28.107698,-73.371559,,,,,,
1465828315.65,2.059775,-0.916728,0.426974,-0.013962,-0.871454,0.020360,0.537121,0.793615,0.285790,-0.894620,-0.780157,-1.210412,6.691279,28.107698,-73.371559,,,,,,
1465828315.66,2.051601,-0.916529,0.426961,-0.009625,-0.814110,0.016811,0.539579,0.793494,0.281463,-0.885160,-0.771918,-1.211776,5.081805,28.128036,-73.492790,,,,,,
1465828315.67,2.043248,-0.916327,0.427017,-0.012846,-0.837466,0.015890,0.542054,0.793371,0.277019,-0.888795,-0.776830,-1.212764,5.081805,28.128036,-73.492790,,,,,,
1465828315.68,2.035261,-0.916136,0.427046,-0.008527,-0.789687,0.015595,0.544385,0.793255,0.272748,-0.908566,-0.772030,-1.192441,5.081805,28.128036,-73.492790,,,,,,
1465828315.69,2.027716,-0.915961,0.427097,-0.011662,-0.744025,0.014241,0.546552,0.793148,0.268695,-0.920224,-0.776852,-1.190830,2.623154,28.158012,-73.610107,,,,,,
1465828315.70,2.020671,-0.915798,0.427101,-0.007347,-0.697310,0.015017,0.548548,0.793049,0.264894,-0.921137,-0.771488,-1.183015,2.623154,28.158012,-73.610107,,,,,,
1465828315.71,2.013623,-0.915633,0.427096,-0.007363,-0.710052,0.015097,0.550520,0.792948,0.261077,-0.902921,-0.781321,-1.182815,2.623154,28.158012,-73.610107,,,,,,
1465828315.72,2.006042,-0.915445,0.427115,-0.006388,-0.780134,0.016602,0.552618,0.792834,0.256959,-0.900823,-0.766116,-1.182359,1.553876,28.170645,-73.635605,,,,,,
1465828315.73,1.997652,-0.915258,0.427157,-0.011811,-0.860826,0.016038,0.554889,0.792720,0.252375,-0.899875,-0.775706,-1.179926,1.553876,28.170645,-73.635605,,,,,,
,,,,,,,,,,,,,,,,29.720000,-95.399060,10.224887,-1.000000,-1.000000,1465830664.29
1465828315.74,1.988478,-0.915042,0.427183,-0.009789,-0.941533,0.019739,0.557338,0.792588,0.247344,-0.900096,-0.767045,-1.169768,1.553876,28.170645,-73.635605,,,,,,
1465828315.75,1.978166,-0.914814,0.427226,-0.012078,-1.068948,0.020536,0.560024,0.792449,0.241654,-0.908535,-0.777068,-1.170014,-0.802920,28.197145,-73.637482,,,,,,
1465828315.76,1.966691,-0.914561,0.427276,-0.013280,-1.175133,0.023330,0.562945,0.792295,0.235290,-0.929767,-0.774183,-1.145629,-0.802920,28.197145,-73.637482,,,,,,
1465828315.77,1.954403,-0.914279,0.427380,-0.017641,-1.254769,0.024889,0.566001,0.792123,0.228439,-0.950813,-0.775979,-1.131683,-0.802920,28.197145,-73.637482,,,,,,
1465828315.78,1.941333,-0.913981,0.427461,-0.013488,-1.337595,0.026477,0.569158,0.791941,0.221107,-0.948095,-0.769877,-1.117912,-2.400505,28.215651,-73.595634,,,,,,
1465828315.79,1.926986,-0.913652,0.427607,-0.021124,-1.481999,0.028440,0.572517,0.791740,0.213010,-0.960456,-0.773643,-1.121320,-2.400505,28.215651,-73.595634,,,,,,
1465828315.80,1.911549,-0.913300,0.427777,-0.020181,-1.577565,0.030104,0.575998,0.791525,0.204240,-0.986490,-0.768484,-1.087663,-2.400505,28.215651,-73.595634,,,,,,
1465828315.81,1.895333,-0.912919,0.427949,-0.022412,-1.652961,0.033768,0.579520,0.791292,0.194969,-1.004310,-0.772310,-1.062874,-6.451344,28.274677,-73.328873,,,,,,
1465828315.82,1.877926,-0.912522,0.428152,-0.022604,-1.807981,0.033676,0.583126,0.791049,0.184947,-0.980282,-0.758151,-1.069957,-6.451344,28.274677,-73.328873,,,,,,
1465828315.83,1.858432,-0.912084,0.428377,-0.031380,-2.008666,0.038119,0.586952,0.790781,0.173644,-1.014412,-0.780054,-1.055984,-6.451344,28.274677,-73.328873,,,,,,
1465828315.84,1.837692,-0.911594,0.428657,-0.030469,-2.126535,0.042053,0.590801,0.790481,0.161536,-1.023006,-0.770553,-1.012870,-8.915488,28.313843,-73.055061,,,,,,
1465828315.85,1.815133,-0.911060,0.428974,-0.035010,-2.344215,0.047671,0.594704,0.790154,0.148270,-1.028328,-0.784005,-0.989808,-8.915488,28.313843,-73.055061,,,,,,
1465828315.86,1.789864,-0.910459,0.429423,-0.040709,-2.635160,0.054812,0.598724,0.789785,0.133300,-1.038070,-0.769049,-0.959304,-8.915488,28.313843,-73.055061,,,,,,
1465828315.87,1.761861,-0.909792,0.429941,-0.046383,-2.908053,0.060776,0.602738,0.789376,0.116584,-1.051926,-0.768746,-0.935371,-15.325960,28.429058,-71.938210,,,,,,
1465828315.89,1.698920,-0.908524,0.431004,-0.051196,-3.347643,0.065657,0.609870,0.788597,0.078569,-1.127830,-0.757210,-0.837419,-15.325960,28.429058,-71.938210,,,,,,
1465828315.88,1.731618,-0.909121,0.430535,-0.045574,-3.117219,0.058895,0.606511,0.788964,0.098390,-1.080052,-0.753945,-0.865404,-15.325960,28.429058,-71.938210,,,,,,
1465828315.90,1.664081,-0.907824,0.431649,-0.048328,-3.608845,0.066234,0.612787,0.788166,0.057330,-1.138086,-0.746845,-0.791354,-19.515427,28.515635,-70.881653,,,,,,
1465828315.91,1.626981,-0.907167,0.432360,-0.064527,-3.782988,0.072632,0.615008,0.787762,0.034591,-1.195940,-0.778515,-0.745605,-19.515427,28.515635,-70.881653,,,,,,
1465828315.92,1.588794,-0.906578,0.432995,-0.058260,-3.879619,0.074308,0.616344,0.787399,0.011094,-1.276455,-0.766738,-0.672211,-19.515427,28.515635,-70.881653,,,,,,
1465828315.93,1.551178,-0.905795,0.434053,-0.062464,-3.828662,0.078242,0.616942,0.786916,-0.012105,-1.313460,-0.769841,-0.568416,-29.464592,28.694714,-67.280403,,,,,,
1465828315.94,1.512630,-0.905167,0.434884,-0.063680,-3.945469,0.082166,0.616510,0.786529,-0.035900,-1.339654,-0.760070,-0.551761,-29.464592,28.694714,-67.280403,,,,,,
1465828315.95,1.473959,-0.904521,0.435871,-0.059387,-3.921047,0.080953,0.615167,0.786129,-0.059758,-1.361367,-0.745266,-0.461772,-29.464592,28.694714,-67.280403,,,,,,
1465828315.96,1.431921,-0.906789,0.433953,-0.065701,-3.882822,0.077507,0.610344,0.787529,-0.085311,-1.456337,-0.744057,-0.438966,-34.552410,28.815748,-64.760986,,,,,,
1465828315.97,1.396852,-0.906385,0.434885,-0.053397,-3.426227,0.065075,0.607291,0.787280,-0.106713,-1.622215,-0.713351,-0.304710,-34.552410,28.815748,-64.760986,,,,,,
1465828315.98,1.368765,-0.905920,0.435810,-0.045025,-2.704188,0.054168,0.604414,0.786993,-0.123799,-1.667570,-0.755346,-0.275508,-34.552410,28.815748,-64.760986,,,,,,
1465828315.99,1.345773,-0.905536,0.436428,-0.022099,-2.262472,0.045034,0.601702,0.786756,-0.137730,-1.592638,-0.752103,-0.300014,-43.541206,28.830688,-59.086014,,,,,,
1465828316.00,1.324276,-0.905150,0.437105,-0.035878,-2.204080,0.049977,0.598897,0.786518,-0.150706,-1.523488,-0.786670,-0.300878,-43.541206,28.830688,-59.086014,,,,,,
1465828316.01,1.302847,-0.904737,0.437882,-0.034817,-2.204087,0.052107,0.595843,0.786263,-0.163590,-1.462176,-0.768395,-0.268249,-43.541206,28.830688,-59.086014,,,,,,
1465828316.02,1.280367,-0.904299,0.438727,-0.040358,-2.373978,0.055295,0.592346,0.785992,-0.177041,-1.378921,-0.751202,-0.238014,-46.156895,28.907658,-57.027103,,,,,,
1465828316.03,1.254520,-0.903877,0.439694,-0.048303,-2.762600,0.059854,0.587888,0.785731,-0.192393,-1.353772,-0.737879,-0.249669,-46.156895,28.907658,-57.027103,,,,,,
1465828316.04,1.226461,-0.903469,0.440684,-0.044209,-2.899566,0.057523,0.582560,0.785478,-0.208919,-1.398082,-0.705110,-0.139637,-46.156895,28.907658,-57.027103,,,,,,
1465828316.05,1.197256,-0.903132,0.441690,-0.045444,-3.045015,0.052048,0.576458,0.785270,-0.225938,-1.396236,-0.717780,-0.152877,-51.584614,29.106760,-52.057907,,,,,,
1465828316.06,1.166848,-0.902798,0.442678,-0.044484,-3.126777,0.053626,0.569563,0.785063,-0.243463,-1.461134,-0.736845,-0.069816,-51.584614,29.106760,-52.057907,,,,,,
1465828316.07,1.136204,-0.902443,0.443758,-0.047744,-3.163965,0.063436,0.562089,0.784843,-0.260916,-1.471772,-0.769615,-0.017495,-51.584614,29.106760,-52.057907,,,,,,
1465828316.08,1.104852,-0.902380,0.444559,-0.046702,-3.180962,0.065672,0.553678,0.784804,-0.278430,-1.484998,-0.768279,0.046741,-54.638783,29.209478,-48.781265,,,,,,
1465828316.10,1.043703,-0.903143,0.445510,-0.046326,-2.886851,0.064888,0.535110,0.785277,-0.311444,-1.545822,-0.725890,0.159955,-54.638783,29.209478,-48.781265,,,,,,
1465828316.09,1.072320,-0.903480,0.444324,-0.056233,-3.138505,0.070714,0.543570,0.785485,-0.295879,-1.534522,-0.749902,0.108745,-54.638783,29.209478,-48.781265,,,,,,
1465828316.11,1.016746,-0.902890,0.446545,-0.037639,-2.772146,0.051404,0.526690,0.785120,-0.325859,-1.483401,-0.702769,0.207130,-60.292473,29.314970,-41.516895,,,,,,
1465828316.12,0.988543,-0.902670,0.447650,-0.046403,-2.963275,0.055787,0.517436,0.784984,-0.340677,-1.410197,-0.733653,0.169229,-60.292473,29.314970,-41.516895,,,,,,
1465828316.13,0.957734,-0.902450,0.448750,-0.047822,-3.244655,0.058615,0.506837,0.784847,-0.356553,-1.342927,-0.717160,0.247484,-60.292473,29.314970,-41.516895,,,,,,
1465828316.14,0.923386,-0.902232,0.450097,-0.055791,-3.643909,0.068562,0.494431,0.784712,-0.373852,-1.320969,-0.754118,0.263561,-62.520611,29.417450,-37.999844,,,,,,
1465828316.15,0.885943,-0.901980,0.451643,-0.061492,-3.929558,0.079928,0.480242,0.784556,-0.392223,-1.307253,-0.757243,0.335476,-62.520611,29.417450,-37.999844,,,,,,
1465828316.16,0.845348,-0.901749,0.453394,-0.071540,-4.285283,0.091729,0.464064,0.784413,-0.411510,-1.308729,-0.751408,0.404324,-62.520611,29.417450,-37.999844,,,,,,
1465828316.17,0.802465,-0.901519,0.455256,-0.068589,-4.474294,0.096110,0.446126,0.784270,-0.431152,-1.290364,-0.740462,0.500320,-67.341881,29.681419,-28.324669,,,,,,
1465828316.18,0.757422,-0.901317,0.457235,-0.075297,-4.722764,0.101920,0.426368,0.784145,-0.450918,-1.273033,-0.732601,0.587087,-67.341881,29.681419,-28.324669,,,,,,
1465828316.19,0.709473,-0.901203,0.459347,-0.079962,-5.046612,0.103946,0.404324,0.784074,-0.470903,-1.200299,-0.730058,0.623796,-67.341881,29.681419,-28.324669,,,,,,
1465828316.20,0.658081,-0.901168,0.461585,-0.087856,-5.394886,0.108251,0.379616,0.784053,-0.491073,-1.173012,-0.711833,0.716095,-69.575424,29.851866,-22.052866,,,,,,
1465828316.21,0.603428,-0.901246,0.463953,-0.096810,-5.735731,0.114638,0.352190,0.784101,-0.511026,-1.135057,-0.723371,0.793619,-69.575424,29.851866,-22.052866,,,,,,
1465828316.22,0.546207,-0.901421,0.466410,-0.096041,-5.966151,0.119277,0.322317,0.784210,-0.530214,-1.119741,-0.740463,0.886766,-71.403694,30.033749,-14.754248,,,,,,
1465828316.23,0.487105,-0.901662,0.469007,-0.101639,-6.167921,0.131181,0.290347,0.784359,-0.548160,-1.075137,-0.747357,1.018619,-71.403694,30.033749,-14.754248,,,,,,
1465828316.24,0.425567,-0.901977,0.471701,-0.103021,-6.411090,0.139092,0.255984,0.784555,-0.564753,-1.042437,-0.735208,1.076411,-71.403694,30.033749,-14.754248,,,,,,
1465828316.25,0.364399,-0.902441,0.474398,-0.106023,-6.264548,0.133912,0.220852,0.784842,-0.579005,-1.092968,-0.720755,1.214397,-72.699982,30.417416,2.774002,,,,,,
1465828316.26,0.305456,-0.902949,0.476872,-0.097209,-6.038371,0.126116,0.186240,0.785157,-0.590630,-1.068900,-0.704560,1.248314,-72.699982,30.417416,2.774002,,,,,,
1465828316.27,0.249814,-0.903581,0.479151,-0.099870,-5.627428,0.115020,0.152982,0.785548,-0.599592,-1.089277,-0.712886,1.332884,-72.699982,30.417416,2.774002,,,,,,
1465828316.28,0.198704,-0.904234,0.481129,-0.088596,-5.144285,0.101357,0.122050,0.785952,-0.606121,-1.052851,-0.705248,1.389965,-72.699982,30.417416,2.774002,,,,,,
1465828316.29,0.151329,-0.904860,0.482912,-0.078576,-4.802377,0.094965,0.093134,0.786339,-0.610735,-0.973184,-0.722878,1.403094,-69.908546,30.721979,19.676317,,,,,,
1465828316.30,0.107100,-0.905488,0.484596,-0.072832,-4.460491,0.097084,0.065986,0.786727,-0.613765,-0.936821,-0.734175,1.417415,-69.908546,30.721979,19.676317,,,,,,
1465828316.31,0.066536,-0.906064,0.486132,-0.064908,-4.095217,0.088414,0.041012,0.787082,-0.615484,-0.851056,-0.740603,1.446066,-69.908546,30.721979,19.676317,,,,,,
1465828316.32,0.027589,-0.906634,0.487550,-0.060512,-3.994334,0.082464,0.017004,0.787433,-0.616165,-0.732199,-0.723636,1.441147,-67.682961,30.818642,26.218882,,,,,,
1465828316.33,-0.010801,-0.907199,0.488918,-0.054018,-3.908334,0.082995,-0.006653,0.787782,-0.615919,-0.682220,-0.720841,1.439970,-67.682961,30.818642,26.218882,,,,,,
1465828316.34,-0.046645,-0.907806,0.490128,-0.059994,-3.589773,0.074605,-0.028699,0.788155,-0.614807,-0.678607,-0.713662,1.500427,-67.682961,30.818642,26.218882,,,,,,
1465828316.35,-0.078837,-0.908328,0.491200,-0.047797,-3.211762,0.066924,-0.048440,0.788476,-0.613155,-0.655066,-0.719079,1.491786,-62.602123,30.960533,36.614491,,,,,,
1465828316.36,-0.107950,-0.908879,0.492116,-0.049526,-2.899580,0.060706,-0.066221,0.788815,-0.611053,-0.617602,-0.713193,1.527648,-62.602123,30.960533,36.614491,,,,,,
1465828316.37,-0.133523,-0.909325,0.492969,-0.035239,-2.549183,0.055330,-0.081777,0.789090,-0.608810,-0.552562,-0.727764,1.516510,-62.602123,30.960533,36.614491,,,,,,
1465828316.38,-0.158237,-0.909750,0.493733,-0.036310,-2.557671,0.053253,-0.096743,0.789350,-0.606273,-0.415235,-0.724638,1.511012,-60.136635,31.002850,40.504456,,,,,,
1465828316.39,-0.184303,-0.910261,0.494552,-0.039698,-2.705271,0.058433,-0.112438,0.789664,-0.603149,-0.355076,-0.739692,1.468063,-60.136635,31.002850,40.504456,,,,,,
1465828316.40,-0.212237,-0.910790,0.495366,-0.047412,-2.910202,0.061840,-0.129152,0.789989,-0.599364,-0.248030,-0.721873,1.498428,-60.136635,31.002850,40.504456,,,,,,
1465828316.41,-0.242378,-0.911401,0.496189,-0.046616,-3.122566,0.064237,-0.147040,0.790363,-0.594731,-0.216851,-0.729069,1.483495,-55.400841,31.065870,46.731789,,,,,,
1465828316.42,-0.272868,-0.912030,0.496993,-0.049783,-3.101328,0.064100,-0.164969,0.790748,-0.589494,-0.209711,-0.731040,1.538377,-55.400841,31.065870,46.731789,,,,,,
1465828316.43,-0.303620,-0.912687,0.497781,-0.047725,-3.156546,0.065513,-0.182861,0.791150,-0.583647,-0.167863,-0.726804,1.521666,-55.400841,31.065870,46.731789,,,,,,
1465828316.44,-0.335038,-0.913374,0.498552,-0.052049,-3.206451,0.066886,-0.200926,0.791570,-0.577101,-0.118120,-0.728185,1.542570,-52.362808,31.087408,50.099010,,,,,,
1465828316.45,-0.366273,-0.914084,0.499300,-0.049892,-3.186275,0.065697,-0.218649,0.792004,-0.570020,-0.073084,-0.735851,1.550077,-52.362808,31.087408,50.099010,,,,,,
1465828316.46,-0.399191,-0.914806,0.500039,-0.052315,-3.413511,0.071378,-0.237069,0.792444,-0.561988,0.037499,-0.733698,1.535743,-52.362808,31.087408,50.099010,,,,,,
1465828316.47,-0.433958,-0.915659,0.500772,-0.058904,-3.568540,0.075537,-0.256176,0.792964,-0.552794,0.068737,-0.733226,1.527846,-45.410847,31.111187,56.463715,,,,,,
1465828316.48,-0.470677,-0.916527,0.501446,-0.064489,-3.776651,0.076837,-0.275984,0.793493,-0.542403,0.157973,-0.718115,1.545119,-45.410847,31.111187,56.463715,,,,,,
1465828316.49,-0.509440,-0.917541,0.502106,-0.069018,-3.980535,0.085562,-0.296405,0.794110,-0.530598,0.180499,-0.730847,1.532047,-45.410847,31.111187,56.463715,,,,,,
1465828316.50,-0.549368,-0.918608,0.502698,-0.076552,-4.045301,0.085961,-0.316906,0.794757,-0.517621,0.218136,-0.737155,1.561246,-41.147423,31.106550,59.644566,,,,,,
1465828316.51,-0.590744,-0.919658,0.503363,-0.062983,-4.252378,0.093660,-0.337581,0.795394,-0.503375,0.322536,-0.761001,1.544025,-41.147423,31.106550,59.644566,,,,,,
1465828316.52,-0.633673,-0.920706,0.503953,-0.062048,-4.363853,0.089037,-0.358379,0.796029,-0.487753,0.381679,-0.760171,1.558431,-41.147423,31.106550,59.644566,,,,,,
1465828316.53,-0.678213,-0.922113,0.504218,-0.066475,-4.495521,0.091986,-0.379038,0.796880,-0.470439,0.432627,-0.754186,1.531581,-30.677502,31.058714,65.669235,,,,,,
1465828316.54,-0.723537,-0.923559,0.504374,-0.067581,-4.526320,0.094306,-0.399200,0.797753,-0.451918,0.459868,-0.742074,1.518477,-30.677502,31.058714,65.669235,,,,,,
1465828316.55,-0.769200,-0.925001,0.504449,-0.078278,-4.567723,0.093490,-0.418612,0.798621,-0.432398,0.509936,-0.735511,1.517969,-30.677502,31.058714,65.669235,,,,,,
1465828316.56,-0.813973,-0.926450,0.504291,-0.075918,-4.388274,0.090237,-0.436704,0.799492,-0.412434,0.512983,-0.719521,1.485264,-24.572952,30.975552,68.226730,,,,,,
1465828316.57,-0.856006,-0.927802,0.504001,-0.076602,-4.090961,0.085178,-0.452832,0.800304,-0.393010,0.510159,-0.720989,1.492848,-24.572952,30.975552,68.226730,,,,,,
1465828316.58,-0.894447,-0.929036,0.503715,-0.064410,-3.705539,0.084901,-0.466831,0.801043,-0.374698,0.510792,-0.747454,1.481189,-24.572952,30.975552,68.226730,,,,,,
1465828316.59,-0.928885,-0.930121,0.503359,-0.054289,-3.298837,0.068522,-0.478759,0.801692,-0.357881,0.547225,-0.758693,1.460161,-12.524417,30.759075,71.520760,,,,,,
1465828316.60,-0.958921,-0.931039,0.502917,-0.033820,-2.816663,0.055950,-0.488689,0.802240,-0.342919,0.590114,-0.784296,1.407022,-12.524417,30.759075,71.520760,,,,,,
1465828316.61,-0.983145,-0.931768,0.502395,-0.026627,-2.196539,0.039294,-0.496364,0.802676,-0.330658,0.557552,-0.753848,1.400497,-12.524417,30.759075,71.520760,,,,,,
1465828316.62,-1.001538,-0.932333,0.501907,-0.022739,-1.653943,0.029507,-0.501980,0.803012,-0.321228,0.583416,-0.739734,1.386917,-7.894585,30.658606,72.221375,,,,,,
1465828316.63,-1.016135,-0.933234,0.500364,-0.019945,-1.128352,0.025147,-0.506000,0.803549,-0.313485,0.570178,-0.718390,1.332177,-7.894585,30.658606,72.221375,,,,,,
1465828316.64,-1.022663,-0.933484,0.500272,-0.015931,-0.483825,0.015787,-0.507864,0.803698,-0.310071,0.588293,-0.719103,1.328840,-7.894585,30.658606,72.221375,,,,,,
1465828316.65,-1.023055,-0.933534,0.500262,-0.003464,0.101251,0.001485,-0.507951,0.803728,-0.309851,0.606462,-0.743974,1.334219,-3.393730,30.472593,72.650574,,,,,,
1465828316.66,-1.017901,-0.933396,0.500367,0.022782,0.636416,-0.012489,-0.506442,0.803646,-0.312523,0.623416,-0.760189,1.314934,-3.393730,30.472593,72.650574,,,,,,
1465828316.67,-1.008011,-0.933096,0.500491,0.021252,1.099389,-0.024975,-0.503530,0.803467,-0.317645,0.639577,-0.777512,1.357303,-3.393730,30.472593,72.650574,,,,,,
1465828316.68,-0.993019,-0.932606,0.500758,0.041062,1.601633,-0.035556,-0.499041,0.803175,-0.325373,0.630786,-0.768553,1.351191,-3.735503,30.479244,72.631012,,,,,,
1465828316.69,-0.973464,-0.932024,0.500955,0.045884,2.042293,-0.043637,-0.492970,0.802828,-0.335332,0.630849,-0.748843,1.361592,-3.735503,30.479244,72.631012,,,,,,
1465828316.70,-0.950146,-0.931365,0.501130,0.044214,2.403316,-0.049096,-0.485447,0.802435,-0.347042,0.630558,-0.728674,1.355648,-3.735503,30.479244,72.631012,,,,,,
1465828316.71,-0.923425,-0.930686,0.501198,0.043610,2.765400,-0.054561,-0.476436,0.802030,-0.360217,0.626583,-0.726621,1.393069,-8.642388,30.579233,72.169395,,,,,,
1465828316.72,-0.893392,-0.929917,0.501251,0.049291,3.045722,-0.059507,-0.465885,0.801570,-0.374748,0.631947,-0.738948,1.394965,-8.642388,30.579233,72.169395,,,,,,
1465828316.73,-0.862127,-0.929128,0.501171,0.048396,3.174212,-0.064571,-0.454423,0.801098,-0.389540,0.586046,-0.760479,1.451704,-8.642388,30.579233,72.169395,,,,,,
1465828316.74,-0.828660,-0.928237,0.501128,0.058273,3.406745,-0.067084,-0.441660,0.800565,-0.405009,0.571970,-0.767499,1.484125,-12.748408,30.634388,71.534706,,,,,,
1465828316.75,-0.793791,-0.927244,0.501119,0.066911,3.495944,-0.071893,-0.427839,0.799969,-0.420717,0.580686,-0.757062,1.452898,-12.748408,30.634388,71.534706,,,,,,
1465828316.76,-0.759263,-0.926269,0.501016,0.067921,3.447109,-0.074779,-0.413597,0.799384,-0.435801,0.560082,-0.744391,1.484538,-12.748408,30.634388,71.534706,,,,,,
1465828316.77,-0.725673,-0.925332,0.500829,0.059277,3.345183,-0.075213,-0.399225,0.798820,-0.450006,0.541498,-0.741051,1.465036,-22.293232,30.752537,69.104958,,,,,,
1465828316.78,-0.693586,-0.924459,0.500594,0.055867,3.182711,-0.067811,-0.385028,0.798295,-0.463118,0.496951,-0.732637,1.474104,-22.293232,30.752537,69.104958,,,,,,
1465828316.79,-0.663315,-0.923663,0.500300,0.049254,3.008570,-0.063532,-0.371226,0.797815,-0.475060,0.454844,-0.751428,1.484673,-22.293232,30.752537,69.104958,,,,,,
1465828316.80,-0.634393,-0.922918,0.499992,0.049084,2.880080,-0.058468,-0.357685,0.797366,-0.486075,0.439823,-0.752338,1.493368,-26.844870,30.799204,67.446014,,,,,,
1465828316.81,-0.607741,-0.922205,0.499747,0.045532,2.605058,-0.050360,-0.344929,0.796936,-0.495900,0.413869,-0.754287,1.493230,-26.844870,30.799204,67.446014,,,,,,
1465828316.82,-0.583966,-0.921539,0.499503,0.046230,2.320479,-0.043252,-0.333336,0.796533,-0.504403,0.407722,-0.760492,1.484460,-26.844870,30.799204,67.446014,,,,,,
1465828316.83,-0.563703,-0.920921,0.499305,0.041493,1.946715,-0.036655,-0.323310,0.796159,-0.511470,0.376319,-0.753724,1.490794,-34.184635,30.858366,64.010735,,,,,,
1465828316.84,-0.546814,-0.920426,0.499129,0.035743,1.618601,-0.027152,-0.314831,0.795860,-0.517193,0.376492,-0.757362,1.478176,-34.184635,30.858366,64.010735,,,,,,
1465828316.85,-0.534195,-0.919999,0.499020,0.026633,1.146103,-0.024198,-0.308453,0.795601,-0.521417,0.383328,-0.743721,1.463601,-34.184635,30.858366,64.010735,,,,,,
1465828316.86,-0.526608,-0.919728,0.498987,0.022773,0.632163,-0.010334,-0.304596,0.795437,-0.523929,0.357636,-0.747494,1.455768,-36.581150,30.882328,62.660217,,,,,,
1465828316.87,-0.523852,-0.919576,0.499009,0.007277,0.167092,-0.004239,-0.303212,0.795345,-0.524871,0.352238,-0.758586,1.442443,-36.581150,30.882328,62.660217,,,,,,
1465828316.88,-0.525022,-0.919492,0.499155,0.009945,-0.240662,0.005772,-0.303859,0.795294,-0.524574,0.346996,-0.742834,1.445594,-36.581150,30.882328,62.660217,,,,,,
1465828316.89,-0.530599,-0.919558,0.499322,-0.001252,-0.672822,0.012729,-0.306753,0.795334,-0.522825,0.357992,-0.752212,1.456557,-37.950600,30.915552,61.823799,,,,,,
1465828316.90,-0.540295,-0.919720,0.499599,-0.010322,-1.102865,0.021803,-0.311742,0.795432,-0.519716,0.362218,-0.720252,1.432360,-37.950600,30.915552,61.823799,,,,,,
1465828316.91,-0.553818,-0.919980,0.499864,-0.015031,-1.456452,0.027210,-0.318632,0.795590,-0.515277,0.357832,-0.740277,1.473911,-37.950600,30.915552,61.823799,,,,,,
1465828316.92,-0.570626,-0.920403,0.500151,-0.026097,-1.777134,0.037725,-0.327066,0.795846,-0.509566,0.339517,-0.726052,1.436827,-36.969193,30.924862,62.411007,,,,,,
1465828316.93,-0.589338,-0.920862,0.500435,-0.032669,-1.926840,0.036529,-0.336340,0.796123,-0.503054,0.353888,-0.726284,1.505556,-36.969193,30.924862,62.411007,,,,,,
1465828316.94,-0.610256,-0.921469,0.500643,-0.038322,-2.180622,0.043437,-0.346512,0.796490,-0.495512,0.372864,-0.723492,1.445235,-36.969193,30.924862,62.411007,,,,,,
1465828316.95,-0.633389,-0.922089,0.500875,-0.047082,-2.368566,0.047800,-0.357588,0.796865,-0.486966,0.374098,-0.733389,1.495877,-32.415119,30.904737,64.902695,,,,,,
1465828316.96,-0.657512,-0.922775,0.501085,-0.039747,-2.454590,0.053669,-0.368896,0.797280,-0.477766,0.401184,-0.752205,1.487593,-32.415119,30.904737,64.902695,,,,,,
1465828316.97,-0.682547,-0.923463,0.501304,-0.046228,-2.529972,0.053071,-0.380394,0.797695,-0.467957,0.410912,-0.756328,1.504883,-32.415119,30.904737,64.902695,,,,,,
1465828316.98,-0.707567,-0.924100,0.501568,-0.033430,-2.512990,0.052978,-0.391651,0.798079,-0.457907,0.440067,-0.760176,1.514395,-29.258375,30.876518,66.398727,,,,,,
1465828316.99,-0.732657,-0.924727,0.501804,-0.036650,-2.534224,0.053108,-0.402681,0.798456,-0.447566,0.463091,-0.744684,1.468638,-29.258375,30.876518,66.398727,,,,,,
1465828317.00,-0.757823,-0.925372,0.501990,-0.044084,-2.520414,0.051949,-0.413462,0.798845,-0.436917,0.481821,-0.733980,1.459561,-29.258375,30.876518,66.398727,,,,,,
1465828317.02,-0.806296,-0.926739,0.502153,-0.048123,-2.342035,0.052955,-0.433358,0.799666,-0.415614,0.506966,-0.764083,1.449808,-22.344788,30.821049,69.057770,,,,,,
1465828317.01,-0.782544,-0.926056,0.502110,-0.044015,-2.462021,0.053712,-0.423750,0.799256,-0.426176,0.488737,-0.727051,1.454924,-22.344788,30.821049,69.057770,,,,,,
1465828317.03,-0.828462,-0.927318,0.502266,-0.035142,-2.189124,0.045622,-0.442122,0.800014,-0.405593,0.519148,-0.762294,1.444503,-22.344788,30.821049,69.057770,,,,,,
1465828317.05,-0.865170,-0.928141,0.502491,-0.022685,-1.615722,0.029265,-0.456208,0.800507,-0.388668,0.512910,-0.738144,1.402034,-18.930895,30.779652,70.088776,,,,,,
1465828317.04,-0.848378,-0.927782,0.502357,-0.017754,-1.921535,0.035446,-0.449834,0.800292,-0.396463,0.513829,-0.788497,1.456812,-18.930895,30.779652,70.088776,,,,,,
1465828317.06,-0.878528,-0.928382,0.502702,-0.004144,-1.269574,0.023919,-0.461211,0.800651,-0.382416,0.531203,-0.734306,1.413132,-18.930895,30.779652,70.088776,,,,,,
1465828317.07,-0.889015,-0.928668,0.502711,-0.016543,-0.971196,0.019907,-0.465017,0.800823,-0.377414,0.540991,-0.712932,1.366519,-13.746611,30.743313,71.302750,,,,,,
1465828317.08,-0.896124,-0.928885,0.502735,-0.017181,-0.634598,0.015666,-0.467553,0.800953,-0.373990,0.556115,-0.721851,1.370511,-13.746611,30.743313,71.302750,,,,,,
1465828317.09,-0.900196,-0.929044,0.502711,-0.006149,-0.336222,0.008484,-0.468972,0.801048,-0.372004,0.567071,-0.754677,1.392481,-13.746611,30.743313,71.302750,,,,,,
1465828317.10,-0.901393,-0.929092,0.502717,-0.000458,-0.048468,0.003491,-0.469387,0.801077,-0.371419,0.574856,-0.762853,1.405888,-12.475554,30.727013,71.543083,,,,,,
1465828317.11,-0.899529,-0.928988,0.502792,0.013789,0.262654,-0.005897,-0.468760,0.801014,-0.372345,0.578928,-0.774113,1.405044,-12.475554,30.727013,71.543083,,,,,,
1465828317.12,-0.894708,-0.928788,0.502872,0.016284,0.544048,-0.014046,-0.467084,0.800895,-0.374700,0.576260,-0.744453,1.389013,-12.475554,30.727013,71.543083,,,,,,
1465828317.13,-0.887121,-0.928504,0.503038,0.029401,0.811622,-0.017840,-0.464404,0.800725,-0.378377,0.568820,-0.749547,1.415196,-12.569687,30.735615,71.522911,,,,,,
1465828317.14,-0.877297,-0.928215,0.503074,0.021177,1.043105,-0.021429,-0.460842,0.800551,-0.383069,0.560315,-0.733580,1.381665,-12.569687,30.735615,71.522911,,,,,,
1465828317.15,-0.864788,-0.927816,0.503179,0.027908,1.307505,-0.028402,-0.456257,0.800313,-0.389010,0.559437,-0.746968,1.407748,-12.569687,30.735615,71.522911,,,,,,
1465828317.16,-0.849823,-0.927371,0.503228,0.037802,1.552783,-0.032060,-0.450652,0.800046,-0.396029,0.544189,-0.754514,1.420642,-13.812725,30.763338,71.281326,,,,,,
1465828317.17,-0.832664,-0.926840,0.503299,0.037000,1.758779,-0.035481,-0.444105,0.799727,-0.403989,0.538465,-0.753615,1.432508,-15.774479,30.798698,70.857658,,,,,,
1465828317.18,-0.813919,-0.926262,0.503347,0.042514,1.903193,-0.040639,-0.436791,0.799380,-0.412560,0.549401,-0.745913,1.423363,-15.774479,30.798698,70.857658,,,,,,
1465828317.19,-0.794251,-0.925682,0.503327,0.036224,1.981769,-0.041138,-0.428924,0.799031,-0.421396,0.546493,-0.733616,1.417962,-15.774479,30.798698,70.857658,,,,,,
1465828317.20,-0.774293,-0.925107,0.503299,0.037316,2.001946,-0.042328,-0.420749,0.798685,-0.430200,0.537509,-0.732798,1.433923,-18.324537,30.841953,70.222404,,,,,,
1465828317.21,-0.754481,-0.924607,0.503173,0.029843,1.986023,-0.042236,-0.412418,0.798384,-0.438742,0.523319,-0.731566,1.432943,-18.324537,30.841953,70.222404,,,,,,
1465828317.22,-0.735012,-0.924086,0.503044,0.029785,1.939303,-0.041943,-0.404077,0.798070,-0.446996,0.519556,-0.737249,1.450307,-18.324537,30.841953,70.222404,,,,,,
1465828317.23,-0.716376,-0.923610,0.502870,0.031802,1.853290,-0.039273,-0.395927,0.797784,-0.454735,0.502418,-0.744713,1.455803,-23.868603,30.906195,68.507652,,,,,,
1465828317.24,-0.698855,-0.923166,0.502654,0.024202,1.737555,-0.037490,-0.388127,0.797516,-0.461873,0.489476,-0.743622,1.453389,-23.868603,30.906195,68.507652,,,,,,
1465828317.25,-0.693308,-0.930843,0.494040,0.022934,1.581433,-0.033333,-0.381635,0.802124,-0.459296,0.461026,-0.751327,1.452002,-23.868603,30.906195,68.507652,,,,,,
1465828317.27,-0.677197,-0.939580,0.483465,0.022648,1.359475,-0.028764,-0.369780,0.807310,-0.459905,0.432677,-0.763106,1.450231,-26.374376,30.923260,67.574745,,,,,,
1465828317.26,-0.686093,-0.936149,0.487632,0.021756,1.491161,-0.032777,-0.375609,0.805281,-0.458738,0.436599,-0.758970,1.460081,-26.374376,30.923260,67.574745,,,,,,
1465828317.28,-0.665148,-0.939252,0.483349,0.021330,1.164092,-0.023282,-0.364375,0.807117,-0.464535,0.421123,-0.773410,1.455838,-26.374376,30.923260,67.574745,,,,,,
1465828317.29,-0.655179,-0.938939,0.483294,0.023180,0.946413,-0.018721,-0.359880,0.806932,-0.468345,0.425813,-0.771349,1.452765,-26.374376,30.923260,67.574745,,,,,,
1465828317.30,-0.647400,-0.938669,0.483290,0.020763,0.720244,-0.015176,-0.356358,0.806772,-0.471304,0.416599,-0.764231,1.445883,-26.374376,30.923260,67.574745,,,,,,
1465828317.31,-0.641843,-0.938452,0.483335,0.018348,0.499378,-0.009536,-0.353838,0.806644,-0.473417,0.398699,-0.755588,1.444670,-30.839323,29.647064,66.243408,,,,,,
1465828317.32,-0.638278,-0.938295,0.483373,0.012775,0.304004,-0.006187,-0.352224,0.806551,-0.474777,0.387395,-0.752047,1.444168,-30.839323,29.647064,66.243408,,,,,,
1465828317.33,-0.636750,-0.938204,0.483387,0.006134,0.104385,-0.003878,-0.351541,0.806498,-0.475374,0.385461,-0.750528,1.436785,-31.443321,29.663023,65.951683,,,,,,
1465828317.34,-0.637062,-0.938161,0.483457,0.003761,-0.083565,0.001557,-0.351710,0.806472,-0.475292,0.384913,-0.751571,1.444287,-31.443321,29.663023,65.951683,,,,,,
1465828317.35,-0.639265,-0.938172,0.483539,0.001385,-0.274697,0.005946,-0.352751,0.806479,-0.474509,0.380522,-0.756781,1.444907,-31.443321,29.663023,65.951683,,,,,,
1465828317.36,-0.643299,-0.938224,0.483617,-0.003098,-0.452019,0.008118,-0.354637,0.806510,-0.473048,0.381691,-0.751288,1.443950,-31.443321,29.663023,65.951683,,,,,,
1465828317.37,-0.648872,-0.938328,0.483728,-0.004360,-0.603865,0.012263,-0.357217,0.806571,-0.470998,0.384042,-0.756537,1.446645,-31.096611,29.674744,66.110603,,,,,,
1465828317.38,-0.656038,-0.938481,0.483853,-0.007764,-0.768448,0.015421,-0.360508,0.806661,-0.468328,0.392750,-0.749304,1.443456,-31.096611,29.674744,66.110603,,,,,,
1465828317.39,-0.664948,-0.938678,0.483988,-0.012253,-0.947897,0.018670,-0.364568,0.806778,-0.464973,0.399953,-0.752853,1.442207,-30.231339,29.674942,66.510635,,,,,,
1465828317.40,-0.675374,-0.938924,0.484133,-0.013494,-1.083815,0.022715,-0.369272,0.806923,-0.460992,0.400888,-0.756111,1.445397,-30.231339,29.674942,66.510635,,,,,,
1465828317.41,-0.686594,-0.939186,0.484287,-0.014642,-1.148588,0.024184,-0.374287,0.807078,-0.456656,0.398640,-0.759715,1.453192,-30.231339,29.674942,66.510635,,,,,,
1465828317.42,-0.698394,-0.939456,0.484447,-0.013652,-1.208049,0.024558,-0.379510,0.807237,-0.452041,0.409585,-0.758851,1.448135,-30.231339,29.674942,66.510635,,,,,,
1465828317.43,-0.710710,-0.939739,0.484626,-0.014778,-1.253712,0.026972,-0.384898,0.807404,-0.447160,0.410716,-0.753815,1.442475,-27.328892,29.664188,67.759644,,,,,,
1465828317.44,-0.727819,-0.943132,0.480886,-0.015824,-1.238855,0.025809,-0.390668,0.809401,-0.438461,0.428128,-0.756438,1.445007,-27.328892,29.664188,67.759644,,,,,,
1465828317.45,-0.772080,-0.963567,0.455211,-0.016966,-1.288837,0.027151,-0.398062,0.821232,-0.408809,0.453909,-0.763035,1.404781,-25.494865,29.402733,68.583473,,,,,,
1465828317.46,-0.846261,-0.997831,0.404775,-0.021335,-1.359046,0.027528,-0.405948,0.840297,-0.359314,0.467838,-0.785533,1.356034,-25.494865,29.402733,68.583473,,,,,,
1465828317.47,-0.863674,-1.000109,0.401448,-0.017042,-1.329329,0.028406,-0.410687,0.841530,-0.350947,0.468807,-0.789025,1.359919,-21.365326,24.750475,71.757500,,,,,,
1465828317.48,-0.881715,-1.002788,0.397336,-0.018083,-1.309164,0.028275,-0.415210,0.842974,-0.342047,0.485827,-0.791811,1.348059,-21.365326,24.750475,71.757500,,,,,,
1465828317.49,-0.899736,-1.005396,0.393025,-0.019109,-1.278378,0.027011,-0.419583,0.844374,-0.333141,0.484677,-0.794997,1.339626,-21.365326,24.750475,71.757500,,,,,,
1465828317.50,-0.915337,-1.007174,0.390090,-0.014726,-1.183877,0.023227,-0.423538,0.845325,-0.325639,0.491104,-0.795872,1.337266,-21.365326,24.750475,71.757500,,,,,,
1465828317.51,-0.930271,-1.009055,0.386817,-0.013531,-1.080888,0.021514,-0.427077,0.846329,-0.318327,0.502120,-0.795136,1.328093,-21.365326,24.750475,71.757500,,,,,,
1465828317.52,-0.940297,-1.009308,0.386840,-0.013397,-0.975766,0.019791,-0.430075,0.846463,-0.313903,0.505789,-0.794324,1.325881,-17.203403,23.919586,73.144363,,,,,,
1465828317.53,-0.949192,-1.009503,0.386884,-0.008996,-0.865335,0.016974,-0.432716,0.846567,-0.309969,0.512153,-0.791925,1.319872,-17.203403,23.919586,73.144363,,,,,,
1465828317.54,-0.956850,-1.009677,0.386900,-0.008823,-0.731542,0.014006,-0.434956,0.846660,-0.306561,0.516713,-0.789867,1.317913,-15.558006,23.734921,73.571770,,,,,,
1465828317.55,-0.962956,-1.009821,0.386951,-0.004366,-0.573336,0.013018,-0.436720,0.846736,-0.303830,0.516005,-0.792156,1.309018,-15.558006,23.734921,73.571770,,,,,,
1465828317.56,-0.967300,-1.009923,0.386988,-0.004135,-0.393882,0.008699,-0.437965,0.846791,-0.301881,0.518409,-0.795796,1.317277,-15.558006,23.734921,73.571770,,,,,,
1465828317.57,-1.059027,-1.039803,0.310799,0.000331,-0.213517,0.003247,-0.441511,0.862305,-0.247990,0.519804,-0.814438,1.259571,-13.543629,23.721340,73.973442,,,,,,
1465828317.58,-1.160706,-1.066344,0.223002,0.004812,-0.015111,-0.000191,-0.443253,0.875439,-0.192699,0.521195,-0.827084,1.206157,-13.543629,23.721340,73.973442,,,,,,
1465828317.59,-1.266132,-1.087688,0.129064,0.010346,0.170562,-0.005674,-0.443141,0.885555,-0.139348,0.523387,-0.835995,1.155721,-9.452375,16.281685,76.575195,,,,,,
1465828317.60,-1.373065,-1.103845,0.031394,0.011584,0.331814,-0.008876,-0.441395,0.892945,-0.088433,0.522327,-0.837952,1.094750,-9.452375,16.281685,76.575195,,,,,,
1465828317.61,-1.478385,-1.115049,-0.066907,0.013875,0.486695,-0.009904,-0.438255,0.897932,-0.040615,0.524376,-0.840666,1.049878,-9.452375,16.281685,76.575195,,,,,,
1465828317.63,-1.647419,-1.124253,-0.230416,0.019110,0.713854,-0.015624,-0.430584,0.901945,0.033057,0.531551,-0.851500,0.974999,-6.031853,8.884659,78.120941,,,,,,
1465828317.62,-1.577893,-1.121851,-0.161580,0.015808,0.612006,-0.012825,-0.434004,0.900906,0.003080,0.529082,-0.845303,0.999117,-6.031853,8.884659,78.120941,,,,,,
1465828317.64,-1.693671,-1.124882,-0.278953,0.020245,0.781748,-0.017137,-0.428031,0.902217,0.052861,0.534110,-0.853175,0.949062,-6.031853,8.884659,78.120941,,,,,,
1465828317.65,-1.713450,-1.124812,-0.304119,0.019234,0.832681,-0.017470,-0.426964,0.902187,0.061325,0.536111,-0.856364,0.942459,-6.031853,8.884659,78.120941,,,,,,
1465828317.66,-1.735524,-1.124558,-0.331663,0.024591,0.866622,-0.018756,-0.425733,0.902077,0.070771,0.531751,-0.851418,0.927657,-6.031853,8.884659,78.120941,,,,,,
1465828317.67,-1.747578,-1.124209,-0.350409,0.020353,0.887838,-0.019967,-0.425159,0.901926,0.075953,0.528614,-0.848520,0.923711,-3.170584,-3.583729,78.710266,,,,,,
1465828317.68,-1.764397,-1.123675,-0.373499,0.020343,0.887806,-0.019977,-0.424294,0.901695,0.083185,0.524926,-0.848366,0.914373,-3.170584,-3.583729,78.710266,,,,,,
1465828317.69,-1.829711,-1.121318,-0.440304,0.021382,0.894082,-0.018982,-0.420013,0.900674,0.111245,0.515899,-0.847741,0.883216,-3.877573,-4.986528,78.602165,,,,,,
1465828317.70,-1.844575,-1.120038,-0.461532,0.021353,0.877066,-0.019949,-0.419423,0.900117,0.117787,0.514867,-0.851228,0.880458,-3.877573,-4.986528,78.602165,,,,,,
1465828317.71,-1.870280,-1.118172,-0.492155,0.021275,0.831360,-0.017548,-0.417861,0.899303,0.129023,0.517287,-0.850169,0.867330,-3.877573,-4.986528,78.602165,,,,,,
1465828317.72,-1.895058,-1.116226,-0.521275,0.019036,0.754872,-0.018147,-0.416194,0.898450,0.139894,0.519619,-0.849332,0.849990,-3.844475,-7.948685,78.359688,,,,,,
1465828317.73,-1.920482,-1.113869,-0.550256,0.016787,0.677310,-0.014483,-0.414492,0.897412,0.151154,0.508593,-0.845181,0.836258,-3.844475,-7.948685,78.359688,,,,,,
1465828317.74,-1.973102,-1.108594,-0.602927,0.015604,0.606096,-0.015124,-0.410318,0.895073,0.174596,0.497858,-0.841072,0.815379,-3.844475,-7.948685,78.359688,,,,,,
1465828317.75,-2.029481,-1.101659,-0.658018,0.013314,0.509382,-0.011351,-0.405384,0.891959,0.200183,0.493244,-0.840018,0.786404,-3.824768,-12.793339,77.716820,,,,,,
1465828317.76,-2.094920,-1.092123,-0.719906,0.012054,0.388238,-0.009555,-0.398773,0.887607,0.230510,0.489791,-0.836352,0.753025,-3.824768,-12.793339,77.716820,,,,,,
1465828317.78,-2.233181,-1.064910,-0.846006,0.008470,0.157607,-0.003913,-0.382107,0.874746,0.298018,0.469479,-0.822194,0.682054,-2.603661,-17.001015,76.957054,,,,,,
1465828317.77,-2.165894,-1.079548,-0.785313,0.007599,0.271329,-0.006727,-0.390634,0.881745,0.264445,0.483530,-0.831971,0.719991,-2.603661,-17.001015,76.957054,,,,,,
1465828317.79,-2.295588,-1.048627,-0.901005,0.006165,0.053453,-0.003290,-0.373392,0.866739,0.330669,0.456629,-0.815286,0.649647,-2.603661,-17.001015,76.957054,,,,,,
1465828317.81,-2.405442,-1.012806,-0.993911,0.003679,-0.154849,0.001154,-0.355516,0.848321,0.392378,0.431276,-0.796181,0.591799,-2.603661,-17.001015,76.957054,,,,,,
1465828317.80,-2.352822,-1.031059,-0.950134,0.003855,-0.052822,-0.001589,-0.364614,0.857843,0.362162,0.442998,-0.808512,0.622945,-2.603661,-17.001015,76.957054,,,,,,
1465828317.82,-2.454098,-0.994115,-1.033026,0.000308,-0.255811,0.004953,-0.346014,0.838277,0.421386,0.422643,-0.787801,0.562516,1.241558,-26.521118,74.251541,,,,,,
1465828317.83,-2.499134,-0.975269,-1.067858,-0.001980,-0.347207,0.006565,-0.336099,0.827853,0.449107,0.413324,-0.774920,0.535467,1.241558,-26.521118,74.251541,,,,,,
1465828317.84,-2.540609,-0.956340,-1.098687,-0.004250,-0.424795,0.008092,-0.325992,0.817087,0.475497,0.402408,-0.764811,0.511457,3.294526,-30.712769,72.553932,,,,,,
1465828317.85,-2.578218,-0.937567,-1.125478,-0.005419,-0.477950,0.007339,-0.316020,0.806121,0.500301,0.387553,-0.753630,0.487263,3.294526,-30.712769,72.553932,,,,,,
1465828317.86,-2.612146,-0.919014,-1.148733,-0.005488,-0.499254,0.009581,-0.306369,0.795004,0.523552,0.371295,-0.741949,0.466667,3.294526,-30.712769,72.553932,,,,,,
1465828317.87,-2.643723,-0.899971,-1.169760,-0.004464,-0.502496,0.008518,-0.296864,0.783309,0.546168,0.357395,-0.734023,0.452840,7.369585,-37.827797,68.796425,,,,,,
1465828317.89,-2.699454,-0.863420,-1.205155,-0.004545,-0.506854,0.009573,-0.278050,0.760070,0.587352,0.341664,-0.708144,0.414784,7.369585,-37.827797,68.796425,,,,,,
1465828317.88,-2.673093,-0.881069,-1.188755,-0.004496,-0.499364,0.007415,-0.287332,0.771420,0.567760,0.347727,-0.719357,0.430058,7.369585,-37.827797,68.796425,,,,,,
1465828317.90,-2.725388,-0.845495,-1.220944,-0.005652,-0.511154,0.009582,-0.268191,0.748300,0.606730,0.339816,-0.695657,0.387884,9.229938,-40.924248,66.769867,,,,,,
1465828317.91,-2.749407,-0.828137,-1.235057,-0.004621,-0.509081,0.009554,-0.258469,0.736673,0.624906,0.331299,-0.682809,0.373202,9.229938,-40.924248,66.769867,,,,,,
1465828317.92,-2.771311,-0.811310,-1.247545,-0.004621,-0.482579,0.008308,-0.249171,0.725190,0.641883,0.321803,-0.674729,0.357659,9.229938,-40.924248,66.769867,,,,,,
1465828317.93,-2.791536,-0.794554,-1.258931,-0.003528,-0.433778,0.006924,-0.240273,0.713551,0.658114,0.310066,-0.661687,0.340879,12.423882,-46.157890,62.716011,,,,,,
1465828317.94,-2.809929,-0.778127,-1.269182,-0.001370,-0.383916,0.006599,-0.231914,0.701946,0.673414,0.300426,-0.652783,0.327760,12.423882,-46.157890,62.716011,,,,,,
1465828317.96,-2.842316,-0.746159,-1.287274,-0.001295,-0.272500,0.003744,-0.216494,0.678823,0.701662,0.286120,-0.625631,0.301069,13.720310,-48.439362,60.692535,,,,,,
1465828317.95,-2.826813,-0.761925,-1.278588,-0.001333,-0.328740,0.005174,-0.224003,0.690315,0.687959,0.291432,-0.638695,0.312896,13.720310,-48.439362,60.692535,,,,,,
1465828317.97,-2.856437,-0.730753,-1.295277,0.000878,-0.210955,0.003347,-0.209482,0.667431,0.714600,0.278955,-0.612987,0.285888,13.720310,-48.439362,60.692535,,,,,,
1465828317.98,-2.869279,-0.715772,-1.302715,-0.000139,-0.148342,0.001877,-0.202954,0.656200,0.726781,0.275921,-0.603344,0.278300,13.720310,-48.439362,60.692535,,,,,,
1465828317.99,-2.890730,-0.687027,-1.315912,0.003072,-0.083641,0.000387,-0.191923,0.634241,0.748935,0.268141,-0.583475,0.252560,15.617854,-52.440487,56.782742,,,,,,
1465828318.00,-2.900446,-0.673376,-1.321831,0.004199,-0.010409,-0.001146,-0.186688,0.623628,0.759102,0.261761,-0.572786,0.244805,15.617854,-52.440487,56.782742,,,,,,
1465828318.01,-2.909109,-0.660187,-1.327403,0.004244,0.052201,-0.000484,-0.181984,0.613265,0.768627,0.258110,-0.560256,0.231617,15.617854,-52.440487,56.782742,,,,,,
1465828318.02,-2.916837,-0.647433,-1.332668,0.006421,0.111634,-0.002992,-0.177767,0.603141,0.777573,0.255770,-0.548469,0.222244,16.482178,-54.975910,54.075768,,,,,,
1465828318.03,-2.923646,-0.635037,-1.337583,0.008580,0.158323,-0.004356,-0.174072,0.593207,0.786005,0.250656,-0.539298,0.213201,16.482178,-54.975910,54.075768,,,,,,
1465828318.04,-2.929762,-0.622976,-1.342279,0.006482,0.206075,-0.005731,-0.170753,0.583455,0.793992,0.250832,-0.531941,0.207747,16.482178,-54.975910,54.075768,,,,,,
1465828318.05,-2.935317,-0.611286,-1.346772,0.007561,0.240023,-0.007015,-0.167726,0.573921,0.801550,0.249452,-0.522697,0.195734,17.114187,-57.821007,50.813751,,,,,,
1465828318.06,-2.940353,-0.599898,-1.351071,0.007565,0.267598,-0.007195,-0.164983,0.564558,0.808737,0.248525,-0.515638,0.191035,17.114187,-57.821007,50.813751,,,,,,
1465828318.07,-2.945043,-0.588901,-1.355197,0.009688,0.285615,-0.007313,-0.162391,0.555448,0.815541,0.247276,-0.504346,0.180721,17.114187,-57.821007,50.813751,,,,,,
1465828318.08,-2.949400,-0.578215,-1.359136,0.009671,0.294081,-0.008437,-0.159960,0.546530,0.822021,0.244555,-0.494513,0.172578,17.256557,-59.065548,49.312012,,,,,,
1465828318.09,-2.953797,-0.567899,-1.363022,0.009630,0.288734,-0.006280,-0.157389,0.537862,0.828211,0.247462,-0.484853,0.165411,17.256557,-59.065548,49.312012,,,,,,
1465828318.10,-2.958132,-0.557860,-1.366722,0.008510,0.267466,-0.006154,-0.154774,0.529372,0.834153,0.243413,-0.475768,0.158996,17.256557,-59.065548,49.312012,,,,,,
1465828318.11,-2.962611,-0.548114,-1.370297,0.008445,0.238766,-0.005979,-0.151948,0.521078,0.839875,0.242418,-0.467154,0.151428,17.256557,-59.065548,49.312012,,,,,,
1465828318.12,-2.967271,-0.538568,-1.373770,0.007307,0.204754,-0.004707,-0.148889,0.512907,0.845434,0.241327,-0.460920,0.146830,17.407793,-61.246635,46.519035,,,,,,
1465828318.13,-2.972187,-0.529240,-1.377095,0.005098,0.162255,-0.005512,-0.145531,0.504878,0.850834,0.239083,-0.454310,0.139690,17.407793,-61.246635,46.519035,,,,,,
1465828318.14,-2.977306,-0.520116,-1.380273,0.006075,0.117623,-0.003106,-0.141921,0.496981,0.856077,0.234359,-0.447130,0.135042,17.504915,-62.209614,45.185654,,,,,,
1465828318.15,-2.982753,-0.511185,-1.383330,0.004925,0.071936,-0.002825,-0.137953,0.489211,0.861186,0.232176,-0.440749,0.129887,17.504915,-62.209614,45.185654,,,,,,
1465828318.16,-2.988439,-0.502513,-1.386238,0.005901,0.023064,-0.002521,-0.133696,0.481630,0.866117,0.227339,-0.429384,0.127017,17.504915,-62.209614,45.185654,,,,,,
1465828318.17,-2.994387,-0.494037,-1.388976,0.002610,-0.030056,-0.001130,-0.129136,0.474184,0.870904,0.220094,-0.421251,0.119025,17.859037,-63.932766,42.565926,,,,,,
1465828318.19,-3.007030,-0.477644,-1.394068,-0.002878,-0.117177,0.000469,-0.119142,0.459688,0.880052,0.208788,-0.405107,0.112288,17.859037,-63.932766,42.565926,,,,,,
1465828318.18,-3.000637,-0.485779,-1.391597,0.001453,-0.078931,0.001301,-0.124236,0.466898,0.875541,0.215484,-0.412103,0.112038,17.859037,-63.932766,42.565926,,,,,,
1465828318.20,-3.013418,-0.469598,-1.396345,0.000245,-0.151183,0.001746,-0.113987,0.452528,0.884435,0.199055,-0.402525,0.107050,18.121431,-64.695618,41.283085,,,,,,
1465828318.21,-3.019768,-0.461687,-1.398466,0.000195,-0.170318,0.001863,-0.108800,0.445459,0.888667,0.192007,-0.396128,0.107107,18.121431,-64.695618,41.283085,,,,,,
1465828318.22,-3.025982,-0.453932,-1.400450,-0.000910,-0.179899,0.002984,-0.103671,0.438503,0.892730,0.184832,-0.389110,0.102738,18.121431,-64.695618,41.283085,,,,,,
1465828318.23,-3.031989,-0.446425,-1.402276,0.001191,-0.184165,0.001946,-0.098664,0.431743,0.896584,0.176789,-0.378246,0.098075,18.729874,-66.069481,38.758446,,,,,,
1465828318.24,-3.037746,-0.439071,-1.404000,0.002241,-0.175691,0.001892,-0.093828,0.425099,0.900271,0.172228,-0.372212,0.099119,18.729874,-66.069481,38.758446,,,,,,
1465828318.25,-3.043152,-0.431852,-1.405607,-0.002026,-0.160845,0.002856,-0.089259,0.418554,0.903795,0.165003,-0.364537,0.092115,18.729874,-66.069481,38.758446,,,,,,
1465828318.26,-3.048109,-0.424765,-1.407082,0.000110,-0.139622,0.000594,-0.085052,0.412107,0.907157,0.157699,-0.358762,0.089883,19.016970,-66.675926,37.561649,,,,,,
1465828318.27,-3.052704,-0.417823,-1.408494,0.002251,-0.108851,0.001466,-0.081135,0.405772,0.910366,0.155674,-0.354350,0.088215,19.016970,-66.675926,37.561649,,,,,,
1465828318.28,-3.056784,-0.410984,-1.409794,0.001208,-0.075945,-0.000873,-0.077653,0.399512,0.913433,0.150346,-0.349676,0.087162,19.016970,-66.675926,37.561649,,,,,,
1465828318.29,-3.060367,-0.404318,-1.411011,0.001230,-0.038798,-0.001107,-0.074595,0.393392,0.916340,0.145838,-0.342610,0.082119,19.448360,-67.763420,35.328201,,,,,,
1465828318.30,-3.063567,-0.397868,-1.412179,0.003380,-0.005896,-0.002378,-0.071858,0.387454,0.919084,0.144261,-0.334200,0.080641,19.448360,-67.763420,35.328201,,,,,,
1465828318.31,-3.066337,-0.391585,-1.413305,0.004465,0.029128,-0.002598,-0.069494,0.381654,0.921689,0.142049,-0.327303,0.078754,19.448360,-67.763420,35.328201,,,,,,
1465828318.32,-3.068822,-0.385435,-1.414406,0.004474,0.054595,-0.002759,-0.067372,0.375962,0.924183,0.142399,-0.322526,0.073773,19.575748,-68.246674,34.313007,,,,,,
1465828318.34,-3.072956,-0.373398,-1.416472,0.004483,0.095978,-0.004086,-0.063857,0.364782,0.928901,0.140700,-0.315496,0.069192,19.575748,-68.246674,34.313007,,,,,,
1465828318.33,-3.070988,-0.379360,-1.415451,0.001291,0.080068,-0.003988,-0.065531,0.370326,0.926587,0.140573,-0.318950,0.069125,19.575748,-68.246674,34.313007,,,,,,
1465828318.35,-3.074800,-0.367615,-1.417489,0.005539,0.108700,-0.003101,-0.062284,0.359391,0.931106,0.141202,-0.308777,0.065949,19.686020,-69.113937,32.464233,,,,,,
1465828318.36,-3.076549,-0.361941,-1.418478,0.006596,0.117184,-0.005283,-0.060786,0.354090,0.933234,0.142177,-0.304591,0.064569,19.686020,-69.113937,32.464233,,,,,,
1465828318.37,-3.078318,-0.356450,-1.419465,0.005505,0.115042,-0.004207,-0.059258,0.348950,0.935266,0.142876,-0.296597,0.060294,19.686020,-69.113937,32.464233,,,,,,
1465828318.38,-3.080169,-0.351084,-1.420434,0.004399,0.101221,-0.003058,-0.057641,0.343916,0.937230,0.141472,-0.290846,0.054317,19.701572,-69.505890,31.606670,,,,,,
1465828318.39,-3.082154,-0.345777,-1.421393,0.002226,0.085276,-0.001897,-0.055887,0.338928,0.939151,0.141123,-0.287781,0.055371,19.701572,-69.505890,31.606670,,,,,,
1465828318.40,-3.084389,-0.340619,-1.422337,0.004303,0.058717,-0.002793,-0.053888,0.334071,0.941006,0.141489,-0.282160,0.050693,19.701572,-69.505890,31.606670,,,,,,
1465828318.41,-3.086795,-0.335552,-1.423256,0.001062,0.037466,-0.002663,-0.051716,0.329291,0.942811,0.139316,-0.276526,0.049834,19.740435,-70.213669,29.975960,,,,,,
1465828318.42,-3.089437,-0.330569,-1.424154,0.003136,0.009843,-0.002489,-0.049310,0.324581,0.944572,0.138543,-0.273906,0.046807,19.740435,-70.213669,29.975960,,,,,,
1465828318.43,-3.092224,-0.325692,-1.425007,0.002023,-0.012470,-0.002350,-0.046754,0.319965,0.946275,0.135148,-0.267917,0.046279,19.740435,-70.213669,29.975960,,,,,,
1465828318.44,-3.095172,-0.320893,-1.425828,0.001970,-0.036909,-0.001133,-0.044035,0.315414,0.947932,0.131682,-0.264236,0.043508,19.790146,-70.536255,29.175146,,,,,,
1465828318.45,-3.098221,-0.316179,-1.426605,0.000858,-0.058159,-0.001001,-0.041209,0.310937,0.949537,0.126643,-0.259210,0.042391,19.790146,-70.536255,29.175146,,,,,,
1465828318.46,-3.101355,-0.311525,-1.427341,0.000815,-0.077285,-0.000881,-0.038291,0.306511,0.951097,0.122077,-0.256172,0.043898,19.861494,-70.838577,28.383440,,,,,,
1465828318.47,-3.104498,-0.307017,-1.428041,0.000776,-0.088983,0.001321,-0.035352,0.302217,0.952583,0.116315,-0.248231,0.040031,19.861494,-70.838577,28.383440,,,,,,
1465828318.48,-3.107631,-0.302550,-1.428699,-0.000315,-0.096425,0.000302,-0.032413,0.297955,0.954029,0.113086,-0.245801,0.042186,19.861494,-70.838577,28.383440,,,,,,
1465828318.50,-3.113418,-0.293802,-1.429882,0.000733,-0.079459,0.000196,-0.026963,0.289594,0.956770,0.104249,-0.238752,0.040056,20.039408,-71.387505,26.841173,,,,,,
1465828318.49,-3.110620,-0.298130,-1.429305,0.001802,-0.091128,0.000271,-0.029601,0.293733,0.955429,0.107970,-0.243822,0.041397,20.039408,-71.387505,26.841173,,,,,,
1465828318.51,-3.116010,-0.289544,-1.430426,0.000729,-0.067790,0.000123,-0.024515,0.285516,0.958060,0.100748,-0.234887,0.039468,20.039408,-71.387505,26.841173,,,,,,
1465828318.52,-3.118365,-0.285396,-1.430924,0.000734,-0.050809,-0.001048,-0.022286,0.281537,0.959291,0.096779,-0.229947,0.038359,20.039408,-71.387505,26.841173,,,,,,
1465828318.53,-3.120505,-0.281351,-1.431407,-0.000331,-0.034894,-0.000084,-0.020257,0.277653,0.960468,0.094491,-0.224171,0.035031,20.185629,-71.870003,25.405615,,,,,,
1465828318.54,-3.122512,-0.277409,-1.431869,0.002863,-0.022161,-0.001225,-0.018350,0.273864,0.961593,0.094262,-0.220199,0.035096,20.185629,-71.870003,25.405615,,,,,,
1465828318.55,-3.124249,-0.273527,-1.432304,0.003932,-0.005182,-0.001330,-0.016698,0.270129,0.962679,0.090307,-0.216983,0.034757,20.229872,-72.085670,24.750969,,,,,,
1465828318.56,-3.125832,-0.269688,-1.432728,0.002882,0.017112,-0.003600,-0.015190,0.266430,0.963734,0.092690,-0.215466,0.033626,20.229872,-72.085670,24.750969,,,,,,
1465828318.57,-3.127170,-0.265922,-1.433126,0.006076,0.030905,-0.003683,-0.013915,0.262799,0.964750,0.089629,-0.212506,0.032900,20.229872,-72.085670,24.750969,,,,,,
1465828318.58,-3.128389,-0.262236,-1.433535,0.003945,0.046817,-0.001656,-0.012752,0.259241,0.965728,0.090999,-0.208292,0.034195,20.229872,-72.085670,24.750969,,,,,,
1465828318.59,-3.129477,-0.258657,-1.433924,0.005004,0.054243,-0.002766,-0.011712,0.255782,0.966663,0.089165,-0.203109,0.031093,20.262682,-72.480171,23.542511,,,,,,
1465828318.60,-3.130567,-0.255158,-1.434311,0.000730,0.055297,-0.002776,-0.010668,0.252399,0.967565,0.090411,-0.198138,0.027461,20.262682,-72.480171,23.542511,,,,,,
1465828318.61,-3.131654,-0.251694,-1.434683,0.002842,0.053166,-0.003825,-0.009626,0.249045,0.968444,0.090146,-0.196783,0.029313,20.262682,-72.480171,23.542511,,,,,,
1465828318.62,-3.132817,-0.248276,-1.435073,0.002816,0.048903,-0.001669,-0.008506,0.245733,0.969300,0.091163,-0.194830,0.025909,20.260584,-72.658493,22.988129,,,,,,
1465828318.63,-3.134074,-0.244930,-1.435457,0.004917,0.037215,-0.002658,-0.007295,0.242488,0.970127,0.090745,-0.192562,0.021954,20.260584,-72.658493,22.988129,,,,,,
1465828318.64,-3.135386,-0.241687,-1.435814,0.003712,0.028006,-0.004625,-0.006026,0.239341,0.970917,0.090621,-0.188194,0.024185,20.260584,-72.658493,22.988129,,,,,,
1465828318.65,-3.136803,-0.238510,-1.436160,0.002614,0.016312,-0.002424,-0.004654,0.236255,0.971680,0.089157,-0.184649,0.022842,20.262840,-72.988388,21.916073,,,,,,
1465828318.66,-3.138340,-0.235384,-1.436519,0.001511,-0.000688,-0.001253,-0.003163,0.233217,0.972420,0.087788,-0.180879,0.022133,20.262840,-72.988388,21.916073,,,,,,
1465828318.67,-3.139993,-0.232339,-1.436870,0.000412,-0.015564,-0.000096,-0.001557,0.230255,0.973129,0.085038,-0.175933,0.017914,20.275282,-73.138252,21.398846,,,,,,
1465828318.68,3.141419,-0.229329,-1.437205,0.002507,-0.031501,0.000006,0.000169,0.227324,0.973819,0.082701,-0.174468,0.019024,20.275282,-73.138252,21.398846,,,,,,
1465828318.69,3.139538,-0.226340,-1.437527,-0.000715,-0.044246,-0.000981,0.002002,0.224412,0.974492,0.081600,-0.172624,0.020472,20.275282,-73.138252,21.398846,,,,,,
1465828318.70,3.137629,-0.223394,-1.437822,0.002460,-0.050623,-0.002002,0.003865,0.221541,0.975143,0.079082,-0.171095,0.019302,20.275282,-73.138252,21.398846,,,,,,
1465828318.71,3.135731,-0.220496,-1.438117,0.000313,-0.051695,-0.000932,0.005720,0.218713,0.975772,0.077365,-0.167825,0.019040,20.326557,-73.414551,20.379784,,,,,,
1465828318.72,3.133904,-0.217662,-1.438392,0.000300,-0.051702,-0.000932,0.007507,0.215947,0.976376,0.073441,-0.163731,0.018146,20.326557,-73.414551,20.379784,,,,,,
1465828318.74,3.130564,-0.212143,-1.438892,0.001348,-0.044284,-0.000976,0.010781,0.210555,0.977523,0.065711,-0.158431,0.015168,20.355762,-73.541885,19.885565,,,,,,
1465828318.73,3.132176,-0.214875,-1.438652,0.003483,-0.049587,-0.000941,0.009200,0.213225,0.976960,0.070039,-0.162017,0.020034,20.355762,-73.541885,19.885565,,,,,,
1465828318.75,3.129031,-0.209466,-1.439120,0.000278,-0.037919,-0.001017,0.012287,0.207937,0.978065,0.065075,-0.154776,0.019616,20.355762,-73.541885,19.885565,,,,,,
1465828318.76,3.127665,-0.206832,-1.439336,-0.000787,-0.026247,-0.000026,0.013630,0.205361,0.978591,0.061825,-0.151360,0.017884,20.355762,-73.541885,19.885565,,,,,,
1465828318.77,3.126424,-0.204244,-1.439532,0.000282,-0.016692,-0.002213,0.014853,0.202827,0.979102,0.060373,-0.149619,0.014871,20.355762,-73.541885,19.885565,,,,,,
1465828318.78,3.125307,-0.201665,-1.439728,0.001352,-0.001833,-0.002305,0.015955,0.200301,0.979605,0.061804,-0.149535,0.021647,20.396496,-73.773247,18.965591,,,,,,
1465828318.79,3.124340,-0.199129,-1.439929,0.002418,0.010899,-0.001318,0.016910,0.197816,0.980093,0.060696,-0.148057,0.015161,20.396496,-73.773247,18.965591,,,,,,
1465828318.80,3.123506,-0.196683,-1.440111,0.003485,0.020452,-0.002441,0.017737,0.195417,0.980560,0.059564,-0.143583,0.016312,20.405088,-73.879448,18.538103,,,,,,
1465828318.81,3.122792,-0.194249,-1.440285,-0.001841,0.030002,-0.001441,0.018446,0.193030,0.981019,0.058321,-0.140952,0.016539,20.405088,-73.879448,18.538103,,,,,,
1465828318.82,3.122045,-0.191918,-1.440458,0.003469,0.027870,-0.001422,0.019187,0.190742,0.981453,0.059716,-0.137031,0.013603,20.402658,-73.980087,18.135075,,,,,,
1465828318.83,3.121289,-0.189609,-1.440636,0.003459,0.027867,-0.002486,0.019938,0.188475,0.981876,0.060323,-0.135573,0.012448,20.402658,-73.980087,18.135075,,,,,,
1465828318.84,3.120501,-0.187336,-1.440817,0.001311,0.023612,-0.001396,0.020721,0.186242,0.982285,0.060135,-0.133340,0.011504,20.402658,-73.980087,18.135075,,,,,,
1465828318.85,3.119728,-0.185062,-1.440995,0.001301,0.024667,-0.001402,0.021490,0.184007,0.982690,0.059824,-0.133089,0.012656,20.402658,-73.980087,18.135075,,,,,,
1465828318.86,3.118919,-0.182832,-1.441164,0.002348,0.018293,-0.002425,0.022294,0.181816,0.983080,0.059417,-0.130882,0.012648,20.388708,-74.163681,17.385384,,,,,,
1465828318.87,3.118036,-0.180673,-1.441329,0.003392,0.010854,-0.002377,0.023171,0.179692,0.983450,0.058632,-0.127507,0.011835,20.388708,-74.163681,17.385384,,,,,,
1465828318.88,3.117044,-0.178559,-1.441513,0.002300,0.001286,-0.000188,0.024156,0.177612,0.983804,0.059645,-0.125030,0.011954,20.388708,-74.163681,17.385384,,,,,,
1465828318.89,3.115955,-0.176501,-1.441683,0.001216,-0.009331,-0.002251,0.025237,0.175586,0.984141,0.058733,-0.120761,0.008230,20.379793,-74.330833,16.667122,,,,,,
1465828318.90,3.114790,-0.174415,-1.441843,0.002252,-0.022082,-0.001105,0.026393,0.173532,0.984474,0.056493,-0.122171,0.010093,20.379793,-74.330833,16.667122,,,,,,
1465828318.91,3.113586,-0.172357,-1.441996,-0.000956,-0.026330,-0.002146,0.027588,0.171505,0.984797,0.054566,-0.120510,0.010473,20.383940,-74.407799,16.314911,,,,,,
1465828318.92,3.112387,-0.170312,-1.442133,0.002221,-0.031646,-0.002108,0.028779,0.169490,0.985112,0.051848,-0.120296,0.009990,20.383940,-74.407799,16.314911,,,,,,
1465828318.93,3.111204,-0.168325,-1.442277,0.000080,-0.030592,-0.001052,0.029955,0.167532,0.985412,0.051374,-0.115698,0.010163,20.383940,-74.407799,16.314911,,,,,,
1465828318.94,3.110007,-0.166379,-1.442415,0.002193,-0.033786,0.000035,0.031144,0.165613,0.985699,0.049529,-0.115167,0.010181,20.383940,-74.407799,16.314911,,,,,,
1465828318.95,3.108816,-0.164498,-1.442557,0.002184,-0.032729,0.000029,0.032328,0.163757,0.985971,0.049154,-0.111587,0.007697,20.399309,-74.552086,15.622338,,,,,,
1465828318.96,3.107722,-0.162651,-1.442680,0.001113,-0.031669,-0.001042,0.033417,0.161934,0.986236,0.045684,-0.108757,0.010102,20.399309,-74.552086,15.622338,,,,,,
1465828318.97,3.106689,-0.160828,-1.442794,0.000042,-0.027428,-0.000005,0.034446,0.160135,0.986494,0.043206,-0.106882,0.005846,20.405407,-74.617386,15.299269,,,,,,
1465828318.98,3.105751,-0.158998,-1.442905,0.001108,-0.018939,-0.000057,0.035382,0.158329,0.986752,0.042881,-0.107364,0.010532,20.405407,-74.617386,15.299269,,,,,,
1465828318.99,3.104925,-0.157202,-1.442997,0.001110,-0.012566,-0.002225,0.036207,0.156556,0.987005,0.040621,-0.105729,0.008936,20.405407,-74.617386,15.299269,,,,,,
1465828319.00,3.104174,-0.155449,-1.443094,0.002175,-0.003018,-0.001218,0.036959,0.154823,0.987251,0.041441,-0.103340,0.009591,20.405407,-74.617386,15.299269,,,,,,
1465828319.01,3.103525,-0.153733,-1.443180,0.002176,0.003352,-0.002322,0.037609,0.153128,0.987490,0.039844,-0.101095,0.010572,20.407915,-74.738670,14.691824,,,,,,
1465828319.02,3.102962,-0.152067,-1.443260,0.002173,0.009716,-0.001297,0.038176,0.151482,0.987723,0.037752,-0.099312,0.006159,20.407915,-74.738670,14.691824,,,,,,
1465828319.04,3.101902,-0.148820,-1.443420,0.002158,0.011832,-0.001309,0.039242,0.148272,0.988168,0.038120,-0.094515,0.007636,20.403360,-74.793732,14.415400,,,,,,
1465828319.03,3.102413,-0.150414,-1.443342,0.002167,0.010777,-0.002368,0.038728,0.149848,0.987950,0.039260,-0.098151,0.009425,20.403360,-74.793732,14.415400,,,,,,
1465828319.05,3.101369,-0.147219,-1.443500,0.003217,0.012892,-0.002379,0.039778,0.146688,0.988383,0.039186,-0.095418,0.005605,20.403360,-74.793732,14.415400,,,,,,
1465828319.06,3.100830,-0.145640,-1.443592,0.002141,0.012886,-0.001315,0.040320,0.145126,0.988591,0.039926,-0.093994,0.008662,20.403360,-74.793732,14.415400,,,,,,
1465828319.07,3.100265,-0.144084,-1.443673,0.001070,0.012885,-0.002379,0.040887,0.143586,0.988793,0.040533,-0.091966,0.005256,20.389208,-74.896317,13.893270,,,,,,
1465828319.08,3.099679,-0.142543,-1.443759,0.003185,0.009692,-0.001292,0.041477,0.142061,0.988989,0.040341,-0.092287,0.006693,20.389208,-74.896317,13.893270,,,,,,
1465828319.09,3.099052,-0.141040,-1.443843,0.002101,0.001194,-0.001239,0.042106,0.140572,0.989175,0.039513,-0.089471,0.006156,20.382711,-74.944817,13.638958,,,,,,
1465828319.10,3.098348,-0.139625,-1.443924,0.001018,-0.005184,-0.000136,0.042811,0.139172,0.989342,0.038747,-0.084362,0.004783,20.382711,-74.944817,13.638958,,,,,,
1465828319.11,3.097603,-0.138191,-1.443996,0.001003,-0.012617,-0.001153,0.043556,0.137752,0.989509,0.037621,-0.084437,0.006417,20.382711,-74.944817,13.638958,,,,,,
1465828319.12,3.096814,-0.136761,-1.444061,0.000991,-0.016865,-0.002190,0.044345,0.136335,0.989670,0.036938,-0.084348,0.004105,20.378853,-74.989983,13.394258,,,,,,
1465828319.13,3.095998,-0.135374,-1.444119,0.002044,-0.020055,-0.002168,0.045162,0.134961,0.989821,0.036381,-0.082471,0.003984,20.378853,-74.989983,13.394258,,,,,,
1465828319.14,3.095209,-0.133964,-1.444193,0.002033,-0.021124,-0.001097,0.045952,0.133564,0.989974,0.034630,-0.082996,0.005677,20.378853,-74.989983,13.394258,,,,,,
1465828319.15,3.094408,-0.132599,-1.444264,0.003087,-0.023251,-0.001082,0.046753,0.132210,0.990118,0.033569,-0.081566,0.007364,20.380680,-75.074783,12.907611,,,,,,
1465828319.16,3.093671,-0.131261,-1.444330,0.002018,-0.020069,-0.001102,0.047491,0.130884,0.990260,0.031595,-0.079706,0.004858,20.380680,-75.074783,12.907611,,,,,,
1465828319.17,3.092878,-0.129993,-1.444396,0.004133,-0.026444,-0.001059,0.048284,0.129627,0.990386,0.031840,-0.075703,0.003922,20.380680,-75.074783,12.907611,,,,,,
1465828319.18,3.092156,-0.128705,-1.444451,0.000938,-0.021136,-0.001095,0.049007,0.128350,0.990517,0.030003,-0.076409,0.006431,20.380356,-75.114609,12.674352,,,,,,
1465828319.19,3.091504,-0.127418,-1.444500,0.003064,-0.017955,-0.001113,0.049661,0.127074,0.990649,0.027396,-0.076750,0.003461,20.380356,-75.114609,12.674352,,,,,,
1465828319.20,3.090915,-0.126167,-1.444540,0.000936,-0.012645,-0.002212,0.050253,0.125833,0.990778,0.026468,-0.074243,0.005621,20.380356,-75.114609,12.674352,,,,,,
1465828319.21,3.090362,-0.124910,-1.444578,0.003064,-0.007339,-0.002242,0.050809,0.124585,0.990907,0.028293,-0.074903,0.007567,20.379801,-75.187218,12.237176,,,,,,
1465828319.22,3.089886,-0.123686,-1.444612,0.000934,-0.002032,-0.002277,0.051289,0.123371,0.991034,0.026866,-0.073002,0.005929,20.379801,-75.187218,12.237176,,,,,,
1465828319.24,3.088987,-0.121333,-1.444690,0.001987,0.001144,-0.001231,0.052195,0.121036,0.991275,0.026555,-0.069049,0.005368,20.377325,-75.221260,12.030317,,,,,,
1465828319.23,3.089412,-0.122489,-1.444647,0.001996,0.001150,-0.002296,0.051766,0.122183,0.991157,0.028007,-0.071265,0.004052,20.377325,-75.221260,12.030317,,,,,,
1465828319.25,3.088567,-0.120195,-1.444739,0.001982,0.004324,-0.000186,0.052618,0.119906,0.991390,0.027155,-0.067828,0.003071,20.377325,-75.221260,12.030317,,,,,,
1465828319.26,3.088169,-0.119079,-1.444779,0.001975,0.002200,-0.001236,0.053020,0.118797,0.991502,0.025792,-0.066460,0.004546,20.372873,-75.253334,11.835705,,,,,,
1465828319.27,3.087795,-0.118003,-1.444807,0.000911,0.006448,-0.002328,0.053398,0.117730,0.991609,0.025841,-0.064019,0.005889,20.372873,-75.253334,11.835705,,,,,,
1465828319.28,3.086951,-0.115829,-1.444900,0.001960,0.005377,-0.001255,0.054249,0.115570,0.991817,0.026668,-0.063873,0.003255,20.372873,-75.253334,11.835705,,,,,,
1465828319.29,3.086584,-0.114746,-1.444935,0.000884,0.002190,-0.001235,0.054619,0.114495,0.991921,0.024711,-0.064705,0.002692,20.372873,-75.253334,11.835705,,,,,,
1465828319.30,3.086154,-0.113736,-1.444972,0.000874,-0.000998,-0.001215,0.055052,0.113491,0.992013,0.025331,-0.060970,0.004203,20.358324,-75.327271,11.381727,,,,,,
1465828319.31,3.085700,-0.112755,-1.445007,0.004055,-0.007373,-0.001171,0.055509,0.112516,0.992098,0.024050,-0.060316,0.001539,20.358324,-75.327271,11.381727,,,,,,
1465828319.32,3.085229,-0.111771,-1.445035,0.001918,-0.008436,-0.001166,0.055982,0.111538,0.992182,0.023989,-0.059353,0.004232,20.358324,-75.327271,11.381727,,,,,,
1465828319.33,3.084720,-0.110821,-1.445073,-0.001285,-0.010561,-0.001155,0.056493,0.110594,0.992259,0.023569,-0.056685,0.003606,20.350388,-75.379913,11.042273,,,,,,
1465828319.34,3.084143,-0.109868,-1.445111,0.000835,-0.013750,-0.001133,0.057071,0.109647,0.992331,0.026089,-0.057309,0.001993,20.350388,-75.379913,11.042273,,,,,,
1465828319.35,3.083611,-0.108898,-1.445142,0.000828,-0.015873,-0.002183,0.057606,0.108683,0.992406,0.022960,-0.057947,0.001460,20.350388,-75.379913,11.042273,,,,,,
1465828319.36,3.083090,-0.107954,-1.445161,0.000825,-0.013752,-0.002196,0.058129,0.107744,0.992478,0.022529,-0.056612,0.003769,20.348404,-75.404419,10.877415,,,,,,
1465828319.37,3.082597,-0.107026,-1.445194,-0.001308,-0.010571,-0.001153,0.058624,0.106822,0.992548,0.022172,-0.054728,0.002416,20.348404,-75.404419,10.877415,,,,,,
1465828319.38,3.082104,-0.106136,-1.445208,0.001876,-0.015881,-0.002181,0.059119,0.105936,0.992614,0.019387,-0.054301,0.003709,20.348404,-75.404419,10.877415,,,,,,
1465828319.39,3.081620,-0.105287,-1.445221,0.002933,-0.018007,-0.002166,0.059605,0.105093,0.992675,0.018993,-0.051855,0.002885,20.346432,-75.450684,10.555529,,,,,,
1465828319.40,3.081160,-0.104413,-1.445248,-0.000263,-0.013763,-0.001131,0.060067,0.104223,0.992738,0.018790,-0.052038,0.002913,20.346432,-75.450684,10.555529,,,,,,
1465828319.41,3.080739,-0.103555,-1.445262,0.001864,-0.012701,-0.002199,0.060491,0.103370,0.992802,0.017680,-0.051627,0.005001,20.346432,-75.450684,10.555529,,,,,,
1465828319.42,3.080349,-0.102669,-1.445276,0.000797,-0.008458,-0.001162,0.060883,0.102489,0.992869,0.017913,-0.053371,0.003102,20.345499,-75.471581,10.406837,,,,,,
1465828319.43,3.079999,-0.101854,-1.445297,0.002927,-0.004214,-0.001186,0.061235,0.101678,0.992931,0.018324,-0.049737,0.003651,20.345499,-75.471581,10.406837,,,,,,
1465828319.44,3.079721,-0.101040,-1.445303,0.001863,-0.001027,-0.002271,0.061517,0.100868,0.992996,0.016837,-0.049079,0.004501,20.345499,-75.471581,10.406837,,,,,,
1465828319.45,3.079472,-0.100242,-1.445307,-0.000266,0.003219,-0.002300,0.061769,0.100074,0.993061,0.015685,-0.047920,0.000408,20.340519,-75.511421,10.123744,,,,,,
1465828319.46,3.079169,-0.099450,-1.445318,-0.000280,-0.002094,-0.001201,0.062075,0.099287,0.993121,0.017026,-0.047529,0.001172,20.340519,-75.511421,10.123744,,,,,,
1465828319.47,3.078840,-0.098690,-1.445332,0.000783,-0.001032,-0.002271,0.062406,0.098530,0.993175,0.018801,-0.045933,0.002339,20.340519,-75.511421,10.123744,,,,,,
1465828319.48,3.078549,-0.097919,-1.445354,0.000776,-0.001037,-0.001206,0.062701,0.097763,0.993233,0.016889,-0.046219,0.001351,20.337454,-75.529686,9.992833,,,,,,
1465828319.49,3.078267,-0.097141,-1.445364,-0.000288,0.001088,-0.002285,0.062985,0.096988,0.993291,0.016788,-0.046482,-0.000661,20.337454,-75.529686,9.992833,,,,,,
1465828319.50,3.078006,-0.096381,-1.445373,0.000770,0.000024,-0.002276,0.063249,0.096232,0.993347,0.016127,-0.045268,0.001648,20.337454,-75.529686,9.992833,,,,,,
1465828319.51,3.077728,-0.095657,-1.445376,-0.000300,-0.001039,-0.002270,0.063530,0.095511,0.993399,0.016457,-0.043189,0.001413,20.330170,-75.564903,9.738144,,,,,,
1465828319.52,3.077413,-0.094986,-1.445380,0.001818,-0.006351,-0.002235,0.063846,0.094843,0.993443,0.015622,-0.040675,0.000240,20.330170,-75.564903,9.738144,,,,,,
1465828319.54,3.076732,-0.093572,-1.445414,0.000737,-0.010604,-0.001144,0.064532,0.093436,0.993532,0.014677,-0.042792,0.003432,20.328629,-75.580330,9.620942,,,,,,
1465828319.53,3.077075,-0.094294,-1.445398,0.000741,-0.010602,-0.001144,0.064187,0.094154,0.993486,0.014854,-0.041527,0.001158,20.328629,-75.580330,9.620942,,,,,,
1465828319.55,3.076346,-0.092877,-1.445427,0.001792,-0.014853,-0.001116,0.064919,0.092743,0.993571,0.014762,-0.042404,0.000401,20.328629,-75.580330,9.620942,,,,,,
1465828319.56,3.075953,-0.092201,-1.445436,0.001790,-0.012731,-0.001129,0.065314,0.092071,0.993608,0.015374,-0.041091,0.002531,20.328629,-75.580330,9.620942,,,,,,
1465828319.57,3.075596,-0.091537,-1.445446,0.001787,-0.011671,-0.001135,0.065673,0.091409,0.993645,0.013734,-0.039850,0.000632,20.324602,-75.611504,9.381541,,,,,,
1465828319.58,3.075268,-0.090891,-1.445456,-0.000344,-0.009548,-0.001150,0.066003,0.090765,0.993683,0.013602,-0.039114,0.000916,20.324602,-75.611504,9.381541,,,,,,
1465828319.59,3.074941,-0.090280,-1.445466,0.002845,-0.010613,-0.001140,0.066331,0.090158,0.993716,0.013274,-0.037530,0.002133,20.324602,-75.611504,9.381541,,,,,,
1465828319.60,3.074585,-0.089667,-1.445472,0.001775,-0.012734,-0.002192,0.066688,0.089547,0.993747,0.014046,-0.037117,0.001812,20.322901,-75.625854,9.268853,,,,,,
1465828319.61,3.074273,-0.089071,-1.445472,0.000707,-0.012735,-0.002192,0.067003,0.088953,0.993780,0.010726,-0.036173,-0.000463,20.322901,-75.625854,9.268853,,,,,,
1465828319.62,3.073979,-0.088422,-1.445473,0.001767,-0.011678,-0.001133,0.067298,0.088306,0.993817,0.011697,-0.038563,0.001986,20.322901,-75.625854,9.268853,,,,,,
1465828319.63,3.073696,-0.087789,-1.445473,0.000700,-0.009555,-0.001147,0.067584,0.087676,0.993854,0.010923,-0.037994,-0.000262,20.320963,-75.652107,9.056456,,,,,,
1465828319.64,3.073448,-0.087197,-1.445473,0.000702,-0.005309,-0.001173,0.067834,0.087087,0.993889,0.011558,-0.035466,0.002480,20.320963,-75.652107,9.056456,,,,,,
1465828319.65,3.073231,-0.086617,-1.445467,0.001765,-0.003187,-0.001185,0.068052,0.086509,0.993924,0.011202,-0.035285,0.005130,20.320963,-75.652107,9.056456,,,,,,
1465828319.66,3.073005,-0.086085,-1.445467,0.001709,-0.006001,-0.002127,0.068280,0.085979,0.993954,0.011111,-0.032299,0.000400,20.319466,-75.664795,8.953224,,,,,,
1465828319.67,3.072788,-0.085548,-1.445469,-0.000415,0.000369,-0.002169,0.068499,0.085444,0.993986,0.012021,-0.032267,0.000994,20.319466,-75.664795,8.953224,,,,,,
1465828319.68,3.072591,-0.085002,-1.445468,0.001702,-0.004945,-0.001069,0.068698,0.084900,0.994018,0.009809,-0.033416,0.000641,20.319466,-75.664795,8.953224,,,,,,
1465828319.69,3.072348,-0.084465,-1.445484,-0.000432,-0.003886,-0.000013,0.068943,0.084364,0.994047,0.011288,-0.032164,0.001314,20.316034,-75.687164,8.770060,,,,,,
1465828319.70,3.072148,-0.083923,-1.445488,0.000633,-0.002823,-0.001083,0.069145,0.083824,0.994079,0.010552,-0.032372,0.003373,20.316034,-75.687164,8.770060,,,,,,
1465828319.71,3.071924,-0.083407,-1.445489,0.002757,-0.004949,-0.001067,0.069370,0.083310,0.994106,0.010433,-0.031979,0.000126,20.316034,-75.687164,8.770060,,,,,,
1465828319.72,3.071732,-0.082860,-1.445488,0.002757,-0.001764,-0.001087,0.069565,0.082765,0.994138,0.010864,-0.032915,0.005023,20.312696,-75.698479,8.679699,,,,,,
1465828319.73,3.071528,-0.082403,-1.445496,0.002744,-0.008139,0.000018,0.069770,0.082310,0.994162,0.008386,-0.028828,-0.001760,20.312696,-75.698479,8.679699,,,,,,
1465828319.74,3.071324,-0.081941,-1.445491,0.000616,-0.008133,-0.002113,0.069976,0.081849,0.994185,0.007463,-0.028123,0.000886,20.312696,-75.698479,8.679699,,,,,,
1465828319.75,3.071073,-0.081457,-1.445488,0.002737,-0.012382,-0.002084,0.070227,0.081367,0.994207,0.008233,-0.029701,0.000376,20.309072,-75.718346,8.513288,,,,,,
1465828319.76,3.070797,-0.081027,-1.445488,0.001670,-0.010262,-0.001033,0.070505,0.080939,0.994222,0.010092,-0.026480,0.000956,20.309072,-75.718346,8.513288,,,,,,
1465828319.77,3.070554,-0.080522,-1.445489,-0.002589,-0.008137,-0.001051,0.070749,0.080435,0.994246,0.009100,-0.029303,0.001421,20.309072,-75.718346,8.513288,,,,,,
1465828319.78,3.070305,-0.080051,-1.445491,0.001664,-0.010264,-0.001033,0.070999,0.079966,0.994266,0.008682,-0.028635,0.000088,20.308952,-75.727287,8.433580,,,,,,
1465828319.79,3.070094,-0.079555,-1.445487,0.000602,-0.006017,-0.001060,0.071212,0.079471,0.994290,0.008897,-0.029422,0.002048,20.308952,-75.727287,8.433580,,,,,,
1465828319.80,3.069862,-0.079117,-1.445488,0.001658,-0.010265,-0.001032,0.071445,0.079035,0.994308,0.008068,-0.026926,0.000534,20.308952,-75.727287,8.433580,,,,,,
1465828319.81,3.069633,-0.078697,-1.445491,0.002724,-0.007082,-0.001051,0.071675,0.078616,0.994325,0.008799,-0.026217,0.000426,20.306402,-75.745987,8.270289,,,,,,
1465828319.82,3.069423,-0.078282,-1.445480,0.001655,-0.010264,-0.002096,0.071886,0.078202,0.994342,0.006682,-0.025391,-0.000568,20.306402,-75.745987,8.270289,,,,,,
1465828319.83,3.069229,-0.077891,-1.445479,0.001652,-0.009206,-0.001038,0.072081,0.077812,0.994359,0.006197,-0.024422,0.001475,20.306402,-75.745987,8.270289,,,,,,
1465828319.84,3.069060,-0.077457,-1.445471,-0.000478,-0.007082,-0.001053,0.072252,0.077380,0.994380,0.006254,-0.025805,-0.000087,20.306107,-75.753891,8.198223,,,,,,
1465828319.85,3.068908,-0.077042,-1.445474,0.000586,-0.006021,-0.001059,0.072406,0.076965,0.994401,0.005689,-0.025162,0.002471,20.306107,-75.753891,8.198223,,,,,,
1465828319.86,3.068765,-0.076605,-1.445466,0.001652,-0.003896,-0.002135,0.072550,0.076530,0.994424,0.006338,-0.025947,0.000769,20.306107,-75.753891,8.198223,,,,,,
1465828319.87,3.068598,-0.076222,-1.445456,0.002715,-0.004956,-0.003192,0.072718,0.076148,0.994441,0.007971,-0.023734,0.000416,20.303303,-75.769684,8.058013,,,,,,
1465828319.88,3.068451,-0.075853,-1.445454,0.001644,-0.004962,-0.001064,0.072867,0.075781,0.994458,0.005976,-0.022451,0.001544,20.303303,-75.769684,8.058013,,,,,,
1465828319.89,3.068337,-0.075491,-1.445450,0.001643,-0.003901,-0.001070,0.072982,0.075419,0.994478,0.004579,-0.022441,0.000960,20.303303,-75.769684,8.058013,,,,,,
1465828319.90,3.068227,-0.075086,-1.445445,0.000576,-0.003901,-0.001071,0.073093,0.075015,0.994500,0.004818,-0.023944,0.002601,20.302603,-75.776573,7.994785,,,,,,
1465828319.91,3.068066,-0.074705,-1.445432,-0.000491,-0.004960,-0.002129,0.073255,0.074636,0.994517,0.006609,-0.022389,-0.000910,20.302603,-75.776573,7.994785,,,,,,
1465828319.92,3.067934,-0.074336,-1.445422,0.001635,-0.006023,-0.002120,0.073389,0.074267,0.994534,0.004858,-0.022464,0.002002,20.302603,-75.776573,7.994785,,,,,,
1465828319.93,3.067787,-0.073972,-1.445410,0.002696,-0.007086,-0.002113,0.073537,0.073904,0.994550,0.005580,-0.023215,-0.000089,20.300667,-75.790222,7.869352,,,,,,
1465828319.94,3.067618,-0.073658,-1.445397,0.001631,-0.006025,-0.002120,0.073707,0.073592,0.994561,0.006005,-0.019728,-0.003152,20.300667,-75.790222,7.869352,,,,,,
1465828319.95,3.067451,-0.073314,-1.445384,0.002690,-0.008149,-0.002105,0.073874,0.073248,0.994574,0.005105,-0.022177,0.003793,20.300667,-75.790222,7.869352,,,,,,
1465828319.96,3.067283,-0.072984,-1.445381,0.001620,-0.007093,0.000016,0.074044,0.072919,0.994585,0.005225,-0.020414,0.000211,20.301283,-75.796036,7.811553,,,,,,
1465828319.97,3.067102,-0.072648,-1.445373,0.000553,-0.009214,-0.001036,0.074226,0.072584,0.994596,0.005852,-0.020719,0.002611,20.301283,-75.796036,7.811553,,,,,,
1465828319.98,3.066954,-0.072313,-1.445362,0.000551,-0.009215,-0.001036,0.074375,0.072250,0.994610,0.004101,-0.020370,0.001438,20.301342,-75.801964,7.753683,,,,,,
1465828319.99,3.066817,-0.071976,-1.445357,0.001616,-0.007092,-0.001048,0.074512,0.071914,0.994624,0.003231,-0.020996,0.003011,20.301342,-75.801964,7.753683,,,,,,
1465828320.00,3.066690,-0.071652,-1.445346,0.001616,-0.007089,-0.002112,0.074640,0.071591,0.994637,0.003561,-0.020001,0.002204,20.301342,-75.801964,7.753683,,,,,,
1465828320.01,3.066514,-0.071337,-1.445332,0.002673,-0.011338,-0.002084,0.074817,0.071276,0.994647,0.004971,-0.019946,-0.000827,20.301342,-75.801964,7.753683,,,,,,
1465828320.02,3.066380,-0.071021,-1.445321,0.000545,-0.007093,-0.001048,0.074953,0.070962,0.994659,0.003508,-0.019585,-0.000045,20.301025,-75.813522,7.640699,,,,,,
1465828320.03,3.066248,-0.070727,-1.445311,0.000544,-0.006031,-0.001055,0.075085,0.070668,0.994670,0.004230,-0.017675,-0.000773,20.301025,-75.813522,7.640699,,,,,,
1465828320.04,3.066106,-0.070436,-1.445306,0.001604,-0.008156,-0.001040,0.075228,0.070378,0.994680,0.003690,-0.018345,0.001017,20.301025,-75.813522,7.640699,,,,,,
1465828320.05,3.065949,-0.070130,-1.445290,0.000538,-0.009215,-0.002099,0.075385,0.070072,0.994689,0.003930,-0.018986,0.001053,20.301571,-75.823792,7.536623,,,,,,
1465828320.06,3.065830,-0.069839,-1.445285,0.001604,-0.004971,-0.001060,0.075506,0.069782,0.994701,0.003642,-0.018284,0.001180,20.301571,-75.823792,7.536623,,,,,,
1465828320.07,3.065722,-0.069548,-1.445282,0.002670,-0.002849,-0.001072,0.075615,0.069492,0.994713,0.004936,-0.018954,0.002068,20.301798,-75.828773,7.485740,,,,,,
1465828320.08,3.065589,-0.069285,-1.445274,0.001601,-0.006031,-0.002117,0.075748,0.069230,0.994721,0.005154,-0.016800,-0.001969,20.301798,-75.828773,7.485740,,,,,,
1465828320.09,3.065521,-0.069051,-1.445255,0.001602,-0.003908,-0.002130,0.075818,0.068996,0.994732,0.001148,-0.015377,-0.000469,20.301798,-75.828773,7.485740,,,,,,
1465828320.10,3.065421,-0.068810,-1.445244,0.001598,-0.006032,-0.002117,0.075918,0.068756,0.994741,0.003016,-0.015060,0.000376,20.301292,-75.833527,7.438864,,,,,,
1465828320.11,3.065342,-0.068519,-1.445235,-0.000533,-0.003910,-0.001068,0.075998,0.068465,0.994755,0.002676,-0.016616,0.002911,20.301292,-75.833527,7.438864,,,,,,
1465828320.12,3.065223,-0.068277,-1.445219,0.001594,-0.006032,-0.002117,0.076118,0.068223,0.994762,0.003365,-0.015703,0.001957,20.301292,-75.833527,7.438864,,,,,,
1465828320.13,3.065106,-0.068014,-1.445215,0.002654,-0.007098,-0.001044,0.076235,0.067961,0.994771,0.002622,-0.017806,0.002772,20.302299,-75.841454,7.354783,,,,,,
1465828320.15,3.064943,-0.067465,-1.445182,-0.000538,-0.003908,-0.002131,0.076400,0.067414,0.994796,0.002274,-0.016419,0.004136,20.302299,-75.841454,7.354783,,,,,,
1465828320.14,3.065014,-0.067743,-1.445201,-0.000539,-0.006032,-0.002118,0.076329,0.067691,0.994782,0.001918,-0.016544,-0.000428,20.302299,-75.841454,7.354783,,,,,,
1465828320.16,3.064821,-0.067207,-1.445185,0.000515,-0.008162,0.000025,0.076523,0.067157,0.994804,0.002838,-0.015094,-0.001624,20.302105,-75.845825,7.310050,,,,,,
1465828320.17,3.064695,-0.066973,-1.445169,0.001584,-0.007096,-0.002109,0.076649,0.066923,0.994810,0.003398,-0.014646,0.001208,20.302105,-75.845825,7.310050,,,,,,
1465828320.18,3.064578,-0.066756,-1.445151,-0.000548,-0.008156,-0.002104,0.076768,0.066707,0.994815,0.001525,-0.013621,-0.000156,20.302105,-75.845825,7.310050,,,,,,
1465828320.19,3.064437,-0.066524,-1.445150,0.001577,-0.008161,-0.001038,0.076908,0.066475,0.994820,0.002300,-0.015313,0.001823,20.302105,-75.845825,7.310050,,,,,,
1465828320.20,3.064272,-0.066321,-1.445142,0.003706,-0.009221,-0.002093,0.077074,0.066272,0.994820,0.004195,-0.014285,0.002525,20.303387,-75.853523,7.226213,,,,,,
1465828320.21,3.064061,-0.066244,-1.445134,-0.005908,-0.030458,0.000159,0.077284,0.066196,0.994809,-0.001738,-0.002964,-0.005475,20.303387,-75.853523,7.226213,,,,,,
1465828320.22,3.063781,-0.066535,-1.445154,-0.008049,-0.012069,0.001203,0.077561,0.066486,0.994768,0.001357,0.020474,-0.024111,20.303688,-75.857162,7.187020,,,,,,
1465828320.23,3.064041,-0.065871,-1.445145,-0.001601,0.035714,-0.001219,0.077306,0.065824,0.994832,0.006602,-0.037244,0.023402,20.303688,-75.857162,7.187020,,,,,,
1465828320.24,3.064197,-0.065556,-1.445121,0.007971,0.025097,-0.003272,0.077153,0.065509,0.994865,0.002742,-0.019290,-0.008964,20.303688,-75.857162,7.187020,,,,,,
1465828320.25,3.064282,-0.064775,-1.445086,0.006869,-0.000386,-0.003112,0.077072,0.064729,0.994922,0.002381,-0.051973,0.033551,20.301319,-75.863411,7.127490,,,,,,
1465828320.26,3.064004,-0.064239,-1.445066,0.013200,-0.043919,-0.003897,0.077351,0.064195,0.994935,-0.000935,-0.040635,0.024642,20.301319,-75.863411,7.127490,,,,,,
1465828320.27,3.063543,-0.064677,-1.445052,0.001503,-0.029058,-0.000809,0.077808,0.064632,0.994871,0.000302,0.022694,-0.034422,20.301319,-75.863411,7.127490,,,,,,
1465828320.28,3.063385,-0.064856,-1.445059,-0.001675,-0.015256,0.000166,0.077963,0.064811,0.994847,0.001733,0.008523,-0.003316,20.299147,-75.873680,7.023577,,,,,,
1465828320.29,3.063186,-0.064585,-1.445055,0.011099,-0.017383,-0.000872,0.078163,0.064540,0.994849,0.002220,-0.018673,0.006463,20.299147,-75.873680,7.023577,,,,,,
1465828320.30,3.062976,-0.064109,-1.445036,0.001510,-0.023743,-0.002971,0.078374,0.064065,0.994863,-0.003484,-0.030694,0.006540,20.299147,-75.873680,7.023577,,,,,,
1465828320.31,3.062890,-0.064254,-1.445017,0.001548,0.005987,-0.003157,0.078459,0.064210,0.994847,0.003206,0.006270,-0.005559,20.307869,-75.874214,6.992624,,,,,,
1465828320.32,3.063061,-0.064506,-1.445009,-0.005882,0.026159,-0.001162,0.078288,0.064462,0.994845,0.000844,0.016273,-0.023729,20.307869,-75.874214,6.992624,,,,,,
1465828320.33,3.063296,-0.064434,-1.445008,-0.009091,0.017660,0.001017,0.078054,0.064389,0.994868,0.000666,0.000110,-0.006296,20.307869,-75.874214,6.992624,,,,,,
1465828320.34,3.063191,-0.064039,-1.445011,-0.003803,-0.011008,0.000137,0.078161,0.063995,0.994885,0.000788,-0.020035,0.002430,20.307869,-75.874214,6.992624,,,,,,
1465828320.35,3.063124,-0.064050,-1.445003,0.002592,-0.006761,-0.000947,0.078228,0.064006,0.994879,0.000966,-0.041530,0.027475,20.307810,-75.874321,6.991546,,,,,,
1465828320.36,3.063090,-0.064137,-1.444968,0.010055,-0.004632,-0.004147,0.078260,0.064093,0.994871,0.002657,-0.039237,0.019778,20.307810,-75.874321,6.991546,,,,,,
1465828320.37,3.062960,-0.064202,-1.444953,0.005776,-0.015257,-0.000891,0.078390,0.064158,0.994856,0.002009,-0.010721,0.000307,20.312407,-75.872627,6.996622,,,,,,
1465828320.38,3.062738,-0.064159,-1.444950,0.001486,-0.023538,-0.000787,0.078611,0.064115,0.994841,0.000124,-0.005735,-0.004866,20.312407,-75.872627,6.996622,,,,,,
1465828320.39,3.062566,-0.064137,-1.444945,0.000435,-0.010799,0.000196,0.078782,0.064093,0.994829,0.001891,0.014535,-0.025316,20.312407,-75.872627,6.996622,,,,,,
1465828320.40,3.062629,-0.064126,-1.444940,-0.003801,0.006195,-0.000979,0.078720,0.064082,0.994835,0.002197,-0.011409,-0.000069,20.316372,-75.872086,6.990983,,,,,,
1465828320.41,3.062675,-0.064116,-1.444929,0.002587,0.005130,-0.000966,0.078674,0.064072,0.994839,0.001588,-0.006409,-0.003201,20.316372,-75.872086,6.990983,,,,,,
1465828320.42,3.062658,-0.063672,-1.444919,-0.002754,-0.006547,-0.000898,0.078693,0.063629,0.994866,0.000439,-0.023178,0.012321,20.316372,-75.872086,6.990983,,,,,,
1465828320.43,3.062678,-0.063715,-1.444902,0.005776,0.001946,-0.002007,0.078673,0.063672,0.994865,0.002535,-0.016584,0.006722,20.316370,-75.875641,6.952291,,,,,,
1465828320.45,3.062407,-0.063471,-1.444890,-0.000639,-0.015045,0.000222,0.078944,0.063428,0.994859,-0.000071,-0.012418,0.002425,20.316370,-75.875641,6.952291,,,,,,
1465828320.44,3.062549,-0.063699,-1.444892,-0.000639,-0.016107,0.000229,0.078801,0.063656,0.994856,-0.000477,-0.007153,-0.005934,20.316370,-75.875641,6.952291,,,,,,
1465828320.46,3.062272,-0.063145,-1.444881,0.003620,-0.015044,-0.000838,0.079080,0.063103,0.994869,-0.000909,-0.017617,0.003529,20.319307,-75.874886,6.951944,,,,,,
1465828320.47,3.062193,-0.062819,-1.444870,0.002571,-0.002299,-0.001983,0.079160,0.062778,0.994883,0.001574,-0.018680,0.007116,20.319307,-75.874886,6.951944,,,,,,
1465828320.48,3.062156,-0.062605,-1.444850,0.006825,-0.006546,-0.003016,0.079198,0.062564,0.994894,-0.000096,-0.014896,0.006647,20.319307,-75.874886,6.951944,,,,,,
1465828320.49,3.062098,-0.062618,-1.444825,0.000438,-0.005481,-0.003029,0.079255,0.062577,0.994888,-0.001023,-0.000153,-0.007584,20.318655,-75.883354,6.860873,,,,,,
1465828320.50,3.062090,-0.062722,-1.444812,-0.004886,-0.003360,-0.000919,0.079263,0.062681,0.994881,-0.001916,0.006609,-0.014733,20.318655,-75.883354,6.860873,,,,,,
1465828320.51,3.062092,-0.062679,-1.444802,-0.002763,-0.006549,0.000167,0.079261,0.062638,0.994884,-0.003181,-0.000565,-0.005001,20.318655,-75.883354,6.860873,,,,,,
1465828320.52,3.062009,-0.062390,-1.444791,-0.000637,-0.009733,-0.000875,0.079345,0.062350,0.994895,-0.000686,-0.014712,0.005486,20.322704,-75.881615,6.868113,,,,,,
1465828320.53,3.062020,-0.061910,-1.444763,0.004699,0.000886,-0.002000,0.079336,0.061870,0.994926,0.000727,-0.027416,0.012673,20.322704,-75.881615,6.868113,,,,,,
1465828320.54,3.061893,-0.061343,-1.444726,0.004665,-0.027773,-0.005014,0.079465,0.061305,0.994951,-0.004270,-0.033229,0.018614,20.322704,-75.881615,6.868113,,,,,,
1465828320.56,3.061705,-0.061380,-1.444704,-0.001680,0.028708,-0.001062,0.079653,0.061342,0.994933,0.002485,-0.000017,-0.003143,20.322243,-75.891510,6.759197,,,,,,
1465828320.55,3.061729,-0.061225,-1.444708,0.005709,-0.024380,-0.002851,0.079629,0.061187,0.994945,-0.004418,-0.009796,-0.002315,20.322243,-75.891510,6.759197,,,,,,
1465828320.57,3.062053,-0.061719,-1.444697,-0.000614,0.026586,-0.002113,0.079305,0.061679,0.994940,0.001460,0.016201,-0.018073,20.322243,-75.891510,6.759197,,,,,,
1465828320.58,3.062122,-0.061219,-1.444682,-0.001727,-0.004214,0.001273,0.079238,0.061181,0.994977,-0.003692,-0.022652,0.025409,20.322243,-75.891510,6.759197,,,,,,
1465828320.59,3.061779,-0.061000,-1.444684,-0.010277,-0.032873,-0.000685,0.079580,0.060962,0.994963,0.004541,-0.011066,-0.009687,20.323303,-75.891685,6.754109,,,,,,
1465828320.60,3.061950,-0.060651,-1.444665,0.011080,0.020204,0.000068,0.079412,0.060614,0.994997,-0.004156,-0.020331,0.025770,20.323303,-75.891685,6.754109,,,,,,
1465828320.61,3.061580,-0.060691,-1.444657,-0.008161,-0.045610,-0.002731,0.079780,0.060654,0.994965,0.002754,0.001541,-0.030747,20.323303,-75.891685,6.754109,,,,,,
1465828320.62,3.061421,-0.060799,-1.444638,0.005728,-0.004212,-0.000848,0.079938,0.060762,0.994946,-0.000684,0.006255,0.021381,20.322321,-75.896072,6.707521,,,,,,
1465828320.63,3.061365,-0.060130,-1.444627,-0.008127,-0.012699,-0.000809,0.079997,0.060094,0.994982,-0.000713,-0.033071,0.007185,20.322321,-75.896072,6.707521,,,,,,
1465828320.64,3.061126,-0.059755,-1.444649,0.003553,-0.027584,0.004619,0.080236,0.059720,0.994985,-0.003683,-0.021741,0.009394,20.328835,-75.894302,6.707785,,,,,,
1465828320.65,3.061140,-0.058923,-1.444624,0.007883,0.020218,-0.004192,0.080226,0.058889,0.995036,0.006032,-0.052190,0.035665,20.328835,-75.894302,6.707785,,,,,,
1465828320.66,3.061344,-0.059042,-1.444597,0.012124,0.007471,-0.003043,0.080023,0.059007,0.995045,-0.002905,0.026305,-0.043247,20.328835,-75.894302,6.707785,,,,,,
1465828320.67,3.061602,-0.059157,-1.444548,0.011104,0.038273,-0.006431,0.079765,0.059122,0.995059,0.000679,0.019460,0.008390,20.321735,-75.908005,6.572953,,,,,,
1465828320.68,3.061535,-0.059034,-1.444535,-0.018807,-0.030747,0.000359,0.079833,0.058999,0.995061,-0.005706,0.064353,-0.070561,20.321735,-75.908005,6.572953,,,,,,
1465828320.69,3.061281,-0.058603,-1.444541,-0.011337,-0.016944,-0.000784,0.080087,0.058570,0.995066,0.000403,-0.014579,0.028875,20.321735,-75.908005,6.572953,,,,,,
1465828320.70,3.061102,-0.058446,-1.444543,-0.009218,-0.012542,-0.000762,0.080267,0.058413,0.995060,0.002894,-0.048281,0.032955,20.325163,-75.906845,6.575761,,,,,,
1465828320.71,3.061067,-0.058483,-1.444532,-0.001757,-0.008295,-0.001846,0.080301,0.058450,0.995055,-0.000345,-0.043801,0.019807,20.325163,-75.906845,6.575761,,,,,,
1465828320.72,3.060873,-0.058568,-1.444521,0.014194,-0.022110,-0.000679,0.080494,0.058534,0.995035,-0.003177,-0.025804,0.005133,20.325163,-75.906845,6.575761,,,,,,
1465828320.73,3.060866,-0.058925,-1.444489,0.001446,-0.000867,-0.000825,0.080499,0.058891,0.995013,-0.003396,0.014259,-0.011920,20.325163,-75.906845,6.575761,,,,,,
1465828320.74,3.060842,-0.058978,-1.444480,0.006770,-0.000870,-0.000819,0.080523,0.058944,0.995008,-0.000826,0.009476,-0.008696,20.327690,-75.910378,6.526976,,,,,,
1465828320.75,3.060798,-0.058920,-1.444451,-0.010268,-0.004044,-0.001881,0.080567,0.058886,0.995008,-0.004838,0.021467,-0.019712,20.327690,-75.910378,6.526976,,,,,,
1465828320.76,3.060683,-0.058897,-1.444452,-0.002832,-0.014671,0.000322,0.080681,0.058863,0.995000,-0.002831,-0.007319,0.008463,20.327690,-75.910378,6.526976,,,,,,
1465828320.77,3.060456,-0.058655,-1.444444,-0.007092,-0.014669,0.000318,0.080909,0.058621,0.994996,0.001214,-0.007245,-0.001313,20.336205,-75.906326,6.547512,,,,,,
1465828320.78,3.060512,-0.058649,-1.444429,-0.001737,0.006570,-0.001939,0.080853,0.058616,0.995001,-0.000363,-0.019431,0.012598,20.336205,-75.906326,6.547512,,,,,,
1465828320.79,3.060595,-0.058634,-1.444403,0.002532,0.012942,-0.003039,0.080770,0.058600,0.995009,-0.000250,-0.024085,0.011675,20.336205,-75.906326,6.547512,,,,,,
1465828320.80,3.060645,-0.058670,-1.444398,0.002507,-0.002991,-0.000810,0.080720,0.058637,0.995011,-0.002870,-0.013517,0.006821,20.337517,-75.907913,6.525118,,,,,,
1465828320.81,3.060619,-0.058562,-1.444386,0.004633,-0.005116,-0.000795,0.080747,0.058528,0.995015,-0.002607,-0.007778,-0.005040,20.337517,-75.907913,6.525118,,,,,,
1465828320.82,3.060600,-0.058609,-1.444381,0.004635,-0.004054,-0.000801,0.080766,0.058575,0.995010,0.000564,-0.006070,0.004089,20.337517,-75.907913,6.525118,,,,,,
1465828320.83,3.060517,-0.058624,-1.444369,-0.000694,-0.008298,-0.000780,0.080847,0.058590,0.995003,-0.003104,-0.005200,-0.001641,20.340359,-75.907280,6.523480,,,,,,
1465828320.84,3.060333,-0.058649,-1.444369,0.002482,-0.021045,0.000367,0.081030,0.058615,0.994987,-0.003424,-0.003134,-0.002494,20.340359,-75.907280,6.523480,,,,,,
1465828320.85,3.060234,-0.058474,-1.444351,0.002498,-0.010420,-0.001828,0.081130,0.058441,0.994989,-0.001601,-0.009140,0.004569,20.340359,-75.907280,6.523480,,,,,,
1465828320.86,3.060147,-0.058489,-1.444345,0.001417,-0.008199,-0.000732,0.081217,0.058456,0.994981,-0.005579,-0.002517,-0.006333,20.343233,-75.906723,6.521029,,,,,,
1465828320.87,3.060156,-0.058515,-1.444334,0.001439,0.005610,-0.002948,0.081208,0.058482,0.994980,0.000564,-0.013087,0.007660,20.343233,-75.906723,6.521029,,,,,,
1465828320.88,3.060243,-0.058432,-1.444321,0.001420,-0.003954,0.000306,0.081121,0.058399,0.994992,-0.004308,-0.004398,-0.002865,20.343233,-75.906723,6.521029,,,,,,
1465828320.89,3.060172,-0.058411,-1.444309,0.002482,-0.009258,-0.001789,0.081192,0.058377,0.994987,-0.001678,-0.002561,-0.002159,20.346144,-75.907539,6.502432,,,,,,
1465828320.90,3.060186,-0.058423,-1.444289,0.002492,-0.001825,-0.001836,0.081178,0.058390,0.994988,-0.002382,-0.000086,-0.002632,20.346144,-75.907539,6.502432,,,,,,
1465828320.91,3.060226,-0.058418,-1.444261,-0.002830,-0.000760,-0.001848,0.081138,0.058385,0.994991,-0.002571,0.000514,-0.008129,20.346144,-75.907539,6.502432,,,,,,
1465828320.92,3.060236,-0.058288,-1.444248,-0.000713,-0.008196,-0.000734,0.081129,0.058255,0.995000,-0.003447,-0.005917,-0.001408,20.348898,-75.906982,6.500337,,,,,,
1465828320.93,3.060120,-0.058135,-1.444240,-0.000715,-0.009258,-0.000728,0.081245,0.058102,0.994999,-0.000022,-0.006589,0.002071,20.348898,-75.906982,6.500337,,,,,,
1465828320.94,3.060108,-0.057935,-1.444231,0.000356,-0.002888,-0.000766,0.081258,0.057903,0.995010,-0.001210,-0.009716,0.001114,20.350822,-75.907280,6.490834,,,,,,
1465828320.95,3.060188,-0.057615,-1.444210,0.003554,0.001358,-0.000790,0.081180,0.057583,0.995035,-0.002902,-0.015820,0.009512,20.350822,-75.907280,6.490834,,,,,,
1465828320.96,3.060113,-0.057470,-1.444193,-0.001800,-0.024119,-0.001700,0.081255,0.057438,0.995037,-0.004122,-0.007114,-0.001598,20.350822,-75.907280,6.490834,,,,,,
1465828320.97,3.059913,-0.057388,-1.444183,0.002455,-0.025185,-0.000624,0.081455,0.057356,0.995025,-0.004383,-0.004759,0.004258,20.350803,-75.912804,6.426015,,,,,,
1465828320.98,3.059784,-0.057311,-1.444178,-0.001792,-0.013506,0.000363,0.081583,0.057279,0.995019,-0.002237,-0.003294,-0.006921,20.350803,-75.912804,6.426015,,,,,,
1465828320.99,3.059794,-0.057245,-1.444168,-0.001779,-0.002887,0.000296,0.081574,0.057214,0.995024,-0.002381,-0.003335,-0.002913,20.350803,-75.912804,6.426015,,,,,,
1465828321.00,3.059880,-0.057079,-1.444154,0.000357,0.001362,-0.000793,0.081489,0.057048,0.995040,-0.004570,-0.007945,0.000626,20.353043,-75.913788,6.407205,,,,,,
1465828321.01,3.059916,-0.057029,-1.444139,0.000350,-0.003946,-0.000759,0.081454,0.056998,0.995046,-0.002947,-0.003272,0.000163,20.353043,-75.913788,6.407205,,,,,,
1465828321.02,3.059964,-0.056909,-1.444123,0.002486,0.000303,-0.001848,0.081406,0.056879,0.995057,-0.002899,-0.006448,0.001983,20.353043,-75.913788,6.407205,,,,,,
1465828321.03,3.059987,-0.056880,-1.444110,-0.002851,0.003564,-0.001829,0.081384,0.056849,0.995060,0.000480,-0.000972,-0.006214,20.353575,-75.915924,6.380102,,,,,,
1465828321.04,3.060126,-0.056855,-1.444087,-0.001776,0.009937,-0.002933,0.081246,0.056824,0.995073,-0.002556,-0.000565,-0.001497,20.353575,-75.915924,6.380102,,,,,,
1465828321.05,3.060249,-0.056825,-1.444069,-0.003905,0.009939,-0.002935,0.081123,0.056794,0.995085,-0.001717,0.000182,-0.004179,20.353575,-75.915924,6.380102,,,,,,
1465828321.06,3.060413,-0.056675,-1.444045,-0.001781,0.009932,-0.000804,0.080960,0.056645,0.995106,-0.002698,-0.006413,0.003505,20.354948,-75.915657,6.378962,,,,,,
1465828321.07,3.060475,-0.056472,-1.444025,-0.001800,-0.005992,-0.001768,0.080899,0.056442,0.995123,-0.003781,-0.008865,0.003870,20.354948,-75.915657,6.378962,,,,,,
1465828321.08,3.060382,-0.056271,-1.443995,-0.002873,-0.013421,-0.002787,0.080993,0.056242,0.995127,-0.001235,-0.009428,0.003821,20.354948,-75.915657,6.378962,,,,,,
1465828321.09,3.060310,-0.056107,-1.443967,0.002457,-0.008114,-0.002815,0.081066,0.056077,0.995130,-0.000545,-0.009172,0.005419,20.356731,-75.918495,6.339375,,,,,,
1465828321.10,3.060247,-0.056007,-1.443958,-0.000745,-0.010242,-0.000676,0.081128,0.055978,0.995130,-0.001615,-0.004907,-0.000746,20.356731,-75.918495,6.339375,,,,,,
1465828321.11,3.060150,-0.055841,-1.443938,0.002438,-0.019796,-0.001677,0.081226,0.055812,0.995132,-0.003604,-0.009319,0.004395,20.356731,-75.918495,6.339375,,,,,,
1465828321.12,3.059914,-0.055791,-1.443925,0.001365,-0.026166,-0.001638,0.081461,0.055763,0.995115,-0.001566,-0.002921,-0.001310,20.358763,-75.919868,6.316365,,,,,,
1465828321.13,3.059795,-0.055704,-1.443912,0.000315,-0.014486,-0.001712,0.081579,0.055675,0.995111,-0.002356,-0.005031,0.002372,20.358763,-75.919868,6.316365,,,,,,
1465828321.14,3.059769,-0.055646,-1.443892,0.001389,-0.007053,-0.001758,0.081606,0.055618,0.995112,-0.002626,-0.003509,-0.003596,20.358763,-75.919868,6.316365,,,,,,
1465828321.15,3.059780,-0.055632,-1.443875,-0.001808,-0.009175,-0.001748,0.081595,0.055603,0.995113,-0.004661,-0.000763,-0.000774,20.364504,-75.921448,6.278861,,,,,,
1465828321.16,3.059698,-0.055595,-1.443872,0.000319,-0.009179,-0.000681,0.081677,0.055566,0.995109,-0.001843,-0.002237,-0.001319,20.364504,-75.921448,6.278861,,,,,,
1465828321.17,3.059746,-0.055542,-1.443865,-0.000742,-0.003872,0.000349,0.081629,0.055514,0.995116,-0.004419,-0.002474,-0.000349,20.364504,-75.921448,6.278861,,,,,,
1465828321.18,3.059803,-0.055407,-1.443856,0.003503,-0.003814,-0.000672,0.081573,0.055379,0.995128,-0.004318,-0.008534,0.002904,20.366148,-75.921455,6.273376,,,,,,
1465828321.19,3.059773,-0.055277,-1.443852,0.002426,-0.011248,0.000438,0.081604,0.055249,0.995132,-0.004120,-0.008298,0.001251,20.366148,-75.921455,6.273376,,,,,,
1465828321.20,3.059727,-0.055197,-1.443842,0.002443,-0.000624,-0.001757,0.081650,0.055169,0.995133,0.000107,-0.005608,0.002868,20.366148,-75.921455,6.273376,,,,,,
1465828321.21,3.059812,-0.055195,-1.443829,0.001382,0.004683,-0.000727,0.081566,0.055167,0.995140,-0.002739,-0.001334,-0.001961,20.365770,-75.924011,6.243601,,,,,,
1465828321.22,3.059933,-0.055272,-1.443813,0.000319,0.005745,-0.000735,0.081444,0.055244,0.995146,-0.003625,0.003548,-0.002485,20.365770,-75.924011,6.243601,,,,,,
1465828321.23,3.060004,-0.055309,-1.443807,-0.002883,0.000435,0.000359,0.081374,0.055280,0.995149,-0.003523,0.002688,-0.005831,20.365770,-75.924011,6.243601,,,,,,
1465828321.24,3.060076,-0.055303,-1.443801,-0.003939,0.007869,0.000312,0.081302,0.055275,0.995156,-0.001422,0.001259,-0.000756,20.367155,-75.922836,6.253285,,,,,,
1465828321.25,3.060184,-0.055134,-1.443796,-0.001806,0.008933,-0.000757,0.081195,0.055106,0.995174,-0.000949,-0.008231,0.003178,20.367155,-75.922836,6.253285,,,,,,
1465828321.26,3.060247,-0.054937,-1.443787,0.001377,0.001499,-0.000707,0.081133,0.054910,0.995190,-0.001574,-0.010613,0.005726,20.367155,-75.922836,6.253285,,,,,,
1465828321.27,3.060225,-0.054787,-1.443779,0.000301,-0.006995,-0.000655,0.081155,0.054759,0.995196,-0.001886,-0.009044,0.003354,20.365129,-75.924957,6.234169,,,,,,
1465828321.29,3.060066,-0.054733,-1.443766,0.000293,-0.010186,0.001494,0.081314,0.054706,0.995186,-0.001740,-0.001712,-0.001030,20.365129,-75.924957,6.234169,,,,,,
1465828321.28,3.060162,-0.054733,-1.443766,-0.000763,-0.008053,-0.001714,0.081219,0.054706,0.995194,-0.001278,-0.002643,0.000015,20.365129,-75.924957,6.234169,,,,,,
1465828321.30,3.059976,-0.054680,-1.443751,0.001355,-0.015489,-0.000601,0.081404,0.054652,0.995182,-0.003539,-0.003307,-0.001102,20.366001,-75.926147,6.216808,,,,,,
1465828321.32,3.059779,-0.054540,-1.443729,-0.000769,-0.010179,-0.000636,0.081601,0.054513,0.995173,-0.002454,-0.002709,-0.000254,20.366001,-75.926147,6.216808,,,,,,
1465828321.31,3.059855,-0.054595,-1.443738,0.000289,-0.017609,-0.001653,0.081525,0.054568,0.995176,-0.003141,-0.005221,0.001223,20.366001,-75.926147,6.216808,,,,,,
1465828321.33,3.059713,-0.054563,-1.443712,0.002423,-0.013362,-0.001677,0.081667,0.054536,0.995166,-0.004366,-0.001313,0.001812,20.369986,-75.926933,6.194151,,,,,,
1465828321.34,3.059735,-0.054580,-1.443700,-0.005015,0.001501,0.000351,0.081645,0.054553,0.995167,-0.003932,0.001798,-0.002873,20.369986,-75.926933,6.194151,,,,,,
1465828321.35,3.059739,-0.054576,-1.443686,-0.001833,-0.010177,-0.000637,0.081641,0.054548,0.995168,-0.004309,0.001909,-0.001012,20.369986,-75.926933,6.194151,,,,,,
1465828321.36,3.059721,-0.054551,-1.443687,0.000280,-0.007832,0.000459,0.081658,0.054524,0.995168,-0.003869,-0.001546,-0.000432,20.372702,-75.926041,6.196064,,,,,,
1465828321.37,3.059782,-0.054428,-1.443675,-0.001839,-0.000395,-0.000654,0.081598,0.054401,0.995180,-0.004587,-0.006427,0.003981,20.372702,-75.926041,6.196064,,,,,,
1465828321.38,3.059797,-0.054277,-1.443673,0.002409,-0.006770,0.000454,0.081584,0.054250,0.995189,-0.003154,-0.009450,0.004918,20.372702,-75.926041,6.196064,,,,,,
1465828321.39,3.059777,-0.054182,-1.443671,0.002410,-0.005708,0.000448,0.081605,0.054155,0.995192,-0.003144,-0.006975,0.002931,20.372484,-75.927879,6.174202,,,,,,
1465828321.40,3.059814,-0.054149,-1.443652,0.001354,-0.003575,-0.002760,0.081568,0.054123,0.995197,-0.003291,-0.002304,0.002575,20.372484,-75.927879,6.174202,,,,,,
1465828321.41,3.059859,-0.054185,-1.443632,0.001353,-0.002515,-0.001702,0.081523,0.054159,0.995199,-0.004313,0.000971,-0.003896,20.372484,-75.927879,6.174202,,,,,,
1465828321.42,3.059871,-0.054217,-1.443623,0.002411,-0.006766,-0.000610,0.081511,0.054190,0.995198,-0.004438,0.000558,-0.001805,20.373190,-75.928459,6.164715,,,,,,
1465828321.43,3.059936,-0.054176,-1.443619,0.000290,0.001727,0.000399,0.081446,0.054150,0.995206,-0.004481,-0.003094,0.000827,20.373190,-75.928459,6.164715,,,,,,
1465828321.44,3.059990,-0.054090,-1.443616,0.002418,-0.000394,-0.000650,0.081393,0.054064,0.995215,-0.002413,-0.005556,0.003687,20.373190,-75.928459,6.164715,,,,,,
1465828321.45,3.060062,-0.053986,-1.443613,0.002419,0.000668,-0.000657,0.081322,0.053960,0.995226,-0.003289,-0.006978,0.001463,20.374416,-75.928230,6.163575,,,,,,
1465828321.46,3.060111,-0.053938,-1.443607,0.003483,-0.001453,-0.001707,0.081274,0.053912,0.995233,-0.002355,-0.004306,0.004462,20.374416,-75.928230,6.163575,,,,,,
1465828321.47,3.060136,-0.053973,-1.443599,0.000288,-0.000392,-0.000652,0.081248,0.053947,0.995233,-0.002085,0.001412,-0.001031,20.373465,-75.929222,6.154476,,,,,,
1465828321.48,3.060187,-0.054009,-1.443579,0.000293,0.001735,-0.001730,0.081197,0.053983,0.995235,-0.002630,0.002337,-0.002285,20.373465,-75.929222,6.154476,,,,,,
1465828321.49,3.060233,-0.054055,-1.443564,-0.001844,-0.001455,0.000417,0.081151,0.054028,0.995236,-0.002599,0.003009,-0.004849,20.375547,-75.928108,6.161218,,,,,,
1465828321.50,3.060156,-0.054113,-1.443566,-0.002918,-0.008887,0.000462,0.081228,0.054086,0.995227,-0.000814,0.004828,-0.004275,20.375547,-75.928108,6.161218,,,,,,
1465828321.51,3.060139,-0.054071,-1.443550,-0.005050,-0.002332,-0.000609,0.081245,0.054044,0.995228,-0.001624,-0.000166,-0.000324,20.375547,-75.928108,6.161218,,,,,,
1465828321.52,3.060272,-0.053971,-1.443529,-0.000766,0.014661,-0.002840,0.081113,0.053945,0.995244,-0.001904,-0.004827,-0.001042,20.377378,-75.927048,6.168304,,,,,,
1465828321.53,3.060561,-0.053926,-1.443516,-0.001798,0.042265,-0.001950,0.080825,0.053900,0.995270,0.001770,-0.001928,-0.006012,20.377378,-75.927048,6.168304,,,,,,
1465828321.54,3.060512,-0.054012,-1.443560,-0.001994,-0.085200,0.016945,0.080874,0.053986,0.995261,-0.009142,0.006317,0.015771,20.377378,-75.927048,6.168304,,,,,,
1465828321.55,3.059499,-0.053903,-1.443514,-0.005025,0.004061,-0.009164,0.081882,0.053877,0.995185,0.018841,-0.003904,-0.007758,20.377378,-75.927048,6.168304,,,,,,
1465828321.56,3.060718,-0.053620,-1.443482,0.012116,0.094298,-0.006520,0.080670,0.053594,0.995299,-0.006238,-0.018865,-0.004912,20.375004,-75.927719,6.167892,,,,,,
1465828321.57,3.059805,-0.053572,-1.443493,-0.016978,-0.176454,-0.001658,0.081579,0.053547,0.995227,-0.023489,0.002499,-0.007541,20.375004,-75.927719,6.167892,,,,,,
1465828321.58,3.059256,-0.053198,-1.443511,0.006649,-0.004469,0.002610,0.082127,0.053173,0.995202,0.004436,-0.022716,0.022254,20.375004,-75.927719,6.167892,,,,,,
1465828321.59,3.059492,-0.053292,-1.443477,0.003532,0.041217,-0.007260,0.081892,0.053267,0.995217,-0.000517,0.004351,-0.018395,20.375004,-75.927719,6.167892,,,,,,
1465828321.60,3.059611,-0.053049,-1.443479,-0.006186,-0.046940,0.004992,0.081775,0.053024,0.995239,-0.003466,-0.014862,0.043381,20.381376,-75.933067,6.080329,,,,,,
1465828321.61,3.058990,-0.053007,-1.443472,0.014040,-0.059673,-0.001294,0.082393,0.052982,0.995191,-0.009288,-0.007953,-0.013410,20.381376,-75.933067,6.080329,,,,,,
1465828321.62,3.059200,-0.053186,-1.443457,0.002460,0.046510,-0.000907,0.082183,0.053161,0.995198,-0.000594,0.011261,-0.017751,20.380735,-75.933578,6.076085,,,,,,
1465828321.63,3.059556,-0.053248,-1.443431,-0.007160,0.014664,-0.001782,0.081829,0.053223,0.995224,-0.003414,0.002166,0.008499,20.380735,-75.933578,6.076085,,,,,,
1465828321.64,3.059599,-0.053290,-1.443425,0.009825,-0.022512,0.000597,0.081785,0.053265,0.995226,-0.008757,0.000797,0.002379,20.380735,-75.933578,6.076085,,,,,,
1465828321.65,3.059473,-0.053296,-1.443406,-0.005044,-0.000195,-0.003815,0.081911,0.053270,0.995215,-0.006807,0.002165,-0.019309,20.386339,-75.930664,6.093664,,,,,,
1465828321.66,3.059865,-0.053255,-1.443400,0.000298,0.032880,0.001341,0.081521,0.053230,0.995249,0.000678,-0.003669,0.023260,20.386339,-75.930664,6.093664,,,,,,
,,,,,,,,,,,,,,,,29.719990,-95.399034,10.510893,-1.000000,-1.000000,1465830670.24
1465828321.67,3.059982,-0.053218,-1.443371,0.001335,0.004222,-0.002736,0.081405,0.053193,0.995261,-0.003234,-0.003083,0.000467,20.386425,-75.930435,6.096271,,,,,,
1465828321.68,3.060197,-0.053097,-1.443377,0.004528,0.009522,0.000427,0.081191,0.053072,0.995285,-0.005752,-0.008806,-0.001037,20.386425,-75.930435,6.096271,,,,,,
1465828321.69,3.060421,-0.053134,-1.443358,0.001378,0.039262,-0.002956,0.080968,0.053109,0.995301,0.002253,0.000282,-0.006134,20.386425,-75.930435,6.096271,,,,,,
1465828321.71,3.060747,-0.053148,-1.443344,-0.000814,-0.007461,-0.000536,0.080643,0.053123,0.995326,-0.003754,0.002770,-0.008037,20.385159,-75.931206,6.090909,,,,,,
1465828321.72,3.060753,-0.053431,-1.443353,-0.009320,0.004217,0.001511,0.080637,0.053405,0.995312,-0.000955,0.020722,-0.011181,20.385159,-75.931206,6.090909,,,,,,
1465828321.70,3.060759,-0.053090,-1.443347,0.003478,0.019081,-0.000698,0.080632,0.053065,0.995330,-0.000401,-0.004267,0.009110,20.385159,-75.931206,6.090909,,,,,,
1465828321.73,3.060954,-0.053592,-1.443362,-0.007148,0.038190,0.002364,0.080435,0.053567,0.995319,0.006295,0.012183,-0.009800,20.385159,-75.931206,6.090909,,,,,,
1465828321.74,3.061046,-0.053739,-1.443388,-0.021042,-0.001096,0.004726,0.080344,0.053713,0.995319,-0.001257,0.019254,-0.010471,20.385159,-75.931206,6.090909,,,,,,
1465828321.75,3.061179,-0.054098,-1.443428,-0.028448,0.037127,0.006607,0.080209,0.054071,0.995310,0.003470,0.034430,-0.025385,20.383093,-75.926437,6.156883,,,,,,
1465828321.76,3.061732,-0.054342,-1.443465,-0.031580,0.080667,0.004202,0.079658,0.054315,0.995341,0.008492,0.031500,-0.022929,20.383093,-75.926437,6.156883,,,,,,
1465828321.77,3.062557,-0.054431,-1.443491,-0.035811,0.100842,0.004071,0.078836,0.054404,0.995402,0.009543,0.026300,-0.010401,20.376646,-75.923264,6.217067,,,,,,
1465828321.78,3.063162,-0.054077,-1.443501,-0.047577,0.055193,0.003281,0.078236,0.054051,0.995469,0.008617,0.005931,0.011764,20.376646,-75.923264,6.217067,,,,,,
1465828321.79,3.063441,-0.054052,-1.443511,-0.036931,0.050942,0.002254,0.077958,0.054026,0.995492,0.009032,0.021475,-0.027840,20.376646,-75.923264,6.217067,,,,,,
1465828321.80,3.063425,-0.053395,-1.443507,-0.047647,-0.003205,0.002583,0.077977,0.053370,0.995526,0.009105,-0.010127,0.020893,20.376646,-75.923264,6.217067,,,,,,
1465828321.81,3.062877,-0.052735,-1.443517,-0.034953,-0.067982,0.003002,0.078525,0.052711,0.995518,0.004040,-0.017295,0.013531,20.357317,-75.931465,6.180164,,,,,,
1465828321.82,3.061826,-0.051860,-1.443527,-0.030754,-0.111521,0.004344,0.079575,0.051837,0.995480,0.000809,-0.030093,0.012271,20.357317,-75.931465,6.180164,,,,,,
1465828321.83,3.060486,-0.051640,-1.443555,-0.021215,-0.144445,0.005624,0.080910,0.051617,0.995384,-0.003898,-0.041729,0.008904,20.357317,-75.931465,6.180164,,,,,,
1465828321.84,3.058673,-0.051508,-1.443603,-0.009559,-0.189046,0.005916,0.082715,0.051485,0.995242,-0.012922,-0.056337,0.007626,20.356335,-75.943680,6.031527,,,,,,
1465828321.85,3.056784,-0.051482,-1.443660,0.000029,-0.186924,0.004847,0.084595,0.051459,0.995086,-0.017151,-0.055106,0.011247,20.367313,-75.947853,5.941206,,,,,,
1465828321.86,3.055262,-0.050783,-1.443690,0.008542,-0.186926,0.004856,0.086112,0.050761,0.994991,-0.020469,-0.020183,0.015720,20.367313,-75.947853,5.941206,,,,,,
1465828321.87,3.053619,-0.050888,-1.443720,0.010716,-0.157188,0.001479,0.087746,0.050866,0.994843,-0.025628,-0.009469,0.001647,20.367313,-75.947853,5.941206,,,,,,
1465828321.88,3.052211,-0.051004,-1.443750,0.011794,-0.134657,0.001388,0.089146,0.050981,0.994713,-0.024220,0.004118,0.005348,20.367313,-75.947853,5.941206,,,,,,
1465828321.89,3.051778,-0.051517,-1.443721,0.009749,-0.074122,-0.002188,0.089575,0.051495,0.994648,-0.024358,0.021961,0.002819,20.367313,-75.947853,5.941206,,,,,,
1465828321.90,3.051431,-0.051590,-1.443708,0.007692,-0.016784,-0.002549,0.089920,0.051567,0.994613,-0.021637,0.010231,-0.000686,20.390699,-75.954590,5.772502,,,,,,
1465828321.91,3.051684,-0.051628,-1.443678,0.001365,0.032062,-0.002862,0.089668,0.051605,0.994634,-0.024483,0.016434,-0.009084,20.390699,-75.954590,5.772502,,,,,,
1465828321.92,3.052283,-0.051646,-1.443639,0.001419,0.072417,-0.005244,0.089072,0.051623,0.994686,-0.017081,0.003309,0.006549,20.402351,-75.949310,5.800630,,,,,,
1465828321.93,3.053767,-0.051619,-1.443560,-0.001704,0.128696,-0.005600,0.087596,0.051596,0.994819,-0.015513,-0.000449,0.007226,20.402351,-75.949310,5.800630,,,,,,
1465828321.94,3.055179,-0.051634,-1.443510,0.001503,0.139312,-0.005664,0.086191,0.051611,0.994941,-0.014826,-0.010717,0.007150,20.402351,-75.949310,5.800630,,,,,,
1465828321.95,3.056446,-0.051661,-1.443483,0.003604,0.121252,-0.002355,0.084930,0.051638,0.995048,-0.009140,-0.016818,-0.000907,20.395836,-75.945053,5.878827,,,,,,
1465828321.96,3.057623,-0.051732,-1.443449,0.005740,0.123380,-0.004495,0.083758,0.051709,0.995144,-0.002597,-0.016172,0.023289,20.395836,-75.945053,5.878827,,,,,,
1465828321.97,3.058991,-0.051638,-1.443416,0.007889,0.139306,-0.004593,0.082398,0.051615,0.995262,0.001648,-0.008524,0.007500,20.395836,-75.945053,5.878827,,,,,,
1465828321.98,3.060322,-0.051704,-1.443381,0.005747,0.130810,-0.003477,0.081072,0.051681,0.995367,0.004804,0.009888,-0.012778,20.386614,-75.943108,5.935709,,,,,,
1465828321.99,3.061473,-0.051757,-1.443373,0.004642,0.107548,-0.001181,0.079927,0.051734,0.995457,0.009078,0.015649,-0.012608,20.386614,-75.943108,5.935709,,,,,,
1465828322.00,3.062432,-0.051714,-1.443358,-0.006022,0.093750,-0.001106,0.078972,0.051691,0.995536,0.010597,0.023352,-0.015449,20.386614,-75.943108,5.935709,,,,,,
1465828322.01,3.063080,-0.051989,-1.443357,-0.011357,0.085254,0.000007,0.078326,0.051965,0.995573,0.011182,0.017310,-0.010969,20.364647,-75.941444,6.031606,,,,,,
1465828322.03,3.063628,-0.051567,-1.443353,-0.025304,0.002438,0.001577,0.077782,0.051544,0.995637,0.011436,0.010010,-0.013291,20.364647,-75.941444,6.031606,,,,,,
1465828322.02,3.063545,-0.051805,-1.443356,-0.019942,0.033227,0.001389,0.077864,0.051782,0.995618,0.010363,0.019889,-0.021390,20.364647,-75.941444,6.031606,,,,,,
1465828322.04,3.063263,-0.051370,-1.443378,-0.027463,-0.017743,0.003830,0.078147,0.051348,0.995619,0.010843,0.003019,-0.007658,20.358603,-75.940712,6.061152,,,,,,
1465828322.05,3.062731,-0.050799,-1.443399,-0.027495,-0.042165,0.003983,0.078678,0.050777,0.995606,0.008404,-0.013698,0.004241,20.358603,-75.940712,6.061152,,,,,,
1465828322.06,3.061935,-0.050617,-1.443432,-0.027544,-0.078273,0.006339,0.079472,0.050596,0.995552,0.003826,0.002825,-0.008110,20.358603,-75.940712,6.061152,,,,,,
1465828322.07,3.060795,-0.050640,-1.443486,-0.036106,-0.112253,0.008672,0.080607,0.050618,0.995460,0.000372,0.017680,-0.019111,20.355434,-75.951210,5.939007,,,,,,
1465828322.09,3.058717,-0.050407,-1.443601,-0.036104,-0.109072,0.010781,0.082676,0.050386,0.995302,-0.005955,0.007292,0.008757,20.355434,-75.951210,5.939007,,,,,,
1465828322.08,3.059682,-0.050677,-1.443544,-0.042487,-0.108002,0.008639,0.081714,0.050655,0.995368,-0.000217,0.019673,-0.010443,20.355434,-75.951210,5.939007,,,,,,
1465828322.10,3.057832,-0.050525,-1.443644,-0.049920,-0.095256,0.008551,0.083556,0.050504,0.995222,-0.007705,0.027194,-0.014571,20.360632,-75.952980,5.898437,,,,,,
1465828322.12,3.057289,-0.049944,-1.443726,-0.049809,-0.010307,0.006954,0.084099,0.049923,0.995206,-0.004631,0.004810,0.026492,20.360632,-75.952980,5.898437,,,,,,
1465828322.11,3.057372,-0.050378,-1.443693,-0.044546,-0.052791,0.010419,0.084014,0.050357,0.995191,-0.009475,0.017285,0.001589,20.360632,-75.952980,5.898437,,,,,,
1465828322.13,3.057590,-0.049624,-1.443762,-0.051904,0.021541,0.009945,0.083801,0.049604,0.995247,-0.008392,0.011096,0.009392,20.356197,-75.962082,5.795556,,,,,,
1465828322.14,3.058042,-0.049115,-1.443789,-0.052949,0.032169,0.006684,0.083353,0.049095,0.995310,-0.006082,0.001152,0.009024,20.356197,-75.962082,5.795556,,,,,,
1465828322.15,3.058705,-0.048252,-1.443825,-0.044426,0.048242,0.008754,0.082697,0.048233,0.995407,-0.009103,-0.017670,0.021637,20.356197,-75.962082,5.795556,,,,,,
1465828322.16,3.059218,-0.047402,-1.443851,-0.044449,0.028075,0.006751,0.082189,0.047384,0.995490,-0.007848,-0.019231,0.016855,20.341721,-75.969528,5.748631,,,,,,
1465828322.18,3.059744,-0.045704,-1.443982,-0.033865,-0.010168,0.012324,0.081672,0.045688,0.995611,-0.009681,-0.028018,0.007410,20.341721,-75.969528,5.748631,,,,,,
1465828322.17,3.059540,-0.046618,-1.443903,-0.041285,0.011077,0.010054,0.081871,0.046601,0.995553,-0.009072,-0.018128,0.002555,20.341721,-75.969528,5.748631,,,,,,
1465828322.19,3.059592,-0.044785,-1.444079,-0.025386,-0.038840,0.012513,0.081826,0.044770,0.995641,-0.010308,-0.031769,0.002757,20.296093,-75.998230,5.526292,,,,,,
1465828322.20,3.059258,-0.044559,-1.444186,-0.020047,-0.028221,0.011387,0.082160,0.044544,0.995623,-0.007728,-0.037540,0.012876,20.296093,-75.998230,5.526292,,,,,,
1465828322.21,3.058901,-0.044427,-1.444311,-0.011548,-0.039911,0.013597,0.082516,0.044413,0.995600,-0.009534,-0.029978,0.001578,20.296093,-75.998230,5.526292,,,,,,
1465828322.22,3.058577,-0.044357,-1.444404,-0.005143,-0.031411,0.010357,0.082839,0.044343,0.995576,-0.012480,-0.031235,0.002883,20.276154,-76.010406,5.431139,,,,,,
1465828322.23,3.058392,-0.043824,-1.444502,0.001223,-0.047340,0.010464,0.083025,0.043810,0.995584,-0.013246,-0.025881,-0.000055,20.276154,-76.010406,5.431139,,,,,,
1465828322.24,3.057873,-0.043813,-1.444585,-0.000909,-0.052642,0.008366,0.083542,0.043799,0.995541,-0.012299,-0.017615,-0.006131,20.276154,-76.010406,5.431139,,,,,,
1465828322.25,3.057423,-0.043874,-1.444647,0.009754,-0.045206,0.005136,0.083989,0.043860,0.995501,-0.015065,-0.027823,0.013670,20.248623,-76.023537,5.349483,,,,,,
1465828322.26,3.056964,-0.043915,-1.444691,0.005506,-0.039889,0.002970,0.084446,0.043901,0.995460,-0.013844,-0.018525,-0.002998,20.248623,-76.023537,5.349483,,,,,,
1465828322.27,3.056996,-0.043609,-1.444710,0.008716,-0.026086,0.002887,0.084416,0.043595,0.995476,-0.014622,-0.019196,0.005470,20.248623,-76.023537,5.349483,,,,,,
1465828322.28,3.057134,-0.043247,-1.444699,0.015133,-0.005904,-0.000427,0.084280,0.043234,0.995504,-0.013097,-0.023443,0.008113,20.246056,-76.024918,5.339533,,,,,,
1465828322.29,3.057374,-0.043127,-1.444688,0.008762,0.006845,-0.001577,0.084041,0.043114,0.995529,-0.011211,-0.011360,-0.004028,20.246056,-76.024918,5.339533,,,,,,
1465828322.30,3.057849,-0.043038,-1.444677,0.018361,0.022766,-0.000603,0.083569,0.043025,0.995573,-0.011364,-0.013408,0.012179,20.246056,-76.024918,5.339533,,,,,,
1465828322.31,3.058385,-0.042917,-1.444662,0.022638,0.041963,-0.001754,0.083035,0.042904,0.995623,-0.007824,-0.015164,0.011274,20.236862,-76.030762,5.290952,,,,,,
1465828322.32,3.059019,-0.042985,-1.444635,0.019452,0.045157,-0.003906,0.082404,0.042972,0.995672,-0.007270,-0.007785,0.002283,20.236862,-76.030762,5.290952,,,,,,
1465828322.33,3.059640,-0.043020,-1.444607,0.027978,0.052586,-0.003944,0.081785,0.043006,0.995722,-0.004438,-0.011405,0.010428,20.236862,-76.030762,5.290952,,,,,,
1465828322.34,3.060251,-0.043064,-1.444585,0.026913,0.053649,-0.003951,0.081176,0.043051,0.995770,-0.003814,-0.010672,0.001881,20.233498,-76.030312,5.310276,,,,,,
1465828322.36,3.061299,-0.043376,-1.444523,0.031167,0.047282,-0.006036,0.080132,0.043362,0.995841,0.001228,-0.007565,0.005197,20.233498,-76.030312,5.310276,,,,,,
1465828322.35,3.060803,-0.043226,-1.444559,0.027979,0.053651,-0.005015,0.080626,0.043212,0.995807,0.000566,-0.007385,0.006131,20.233498,-76.030312,5.310276,,,,,,
1465828322.37,3.061679,-0.043614,-1.444484,0.030090,0.037726,-0.005977,0.079753,0.043600,0.995861,0.002523,-0.003469,0.002674,20.232187,-76.025391,5.385215,,,,,,
1465828322.39,3.062018,-0.044170,-1.444419,0.026876,0.021799,-0.005880,0.079413,0.044156,0.995863,0.005273,0.002658,0.004488,20.232187,-76.025391,5.385215,,,,,,
1465828322.38,3.061890,-0.043842,-1.444463,0.030072,0.024981,-0.004833,0.079541,0.043828,0.995868,0.004168,-0.003956,0.001386,20.232187,-76.025391,5.385215,,,,,,
1465828322.40,3.061998,-0.044660,-1.444381,0.022602,0.009059,-0.005805,0.079432,0.044646,0.995840,0.005850,0.011964,-0.009985,20.232187,-76.025391,5.385215,,,,,,
1465828322.41,3.061892,-0.045203,-1.444347,0.021521,-0.005806,-0.005713,0.079535,0.045187,0.995807,0.005304,0.015756,-0.006580,20.246983,-76.013542,5.495740,,,,,,
1465828322.42,3.061709,-0.045641,-1.444312,0.017258,-0.010052,-0.005691,0.079716,0.045625,0.995773,0.003643,0.013594,-0.005157,20.246983,-76.013542,5.495740,,,,,,
1465828322.43,3.061398,-0.046084,-1.444292,0.010847,-0.025982,-0.003468,0.080023,0.046068,0.995728,0.003671,0.015639,-0.010254,20.246983,-76.013542,5.495740,,,,,,
1465828322.44,3.060938,-0.046414,-1.444290,0.008693,-0.042976,-0.001235,0.080481,0.046398,0.995676,0.003702,0.012303,-0.002771,20.259747,-76.005196,5.563702,,,,,,
1465828322.45,3.060428,-0.046599,-1.444290,0.009748,-0.051471,-0.001181,0.080987,0.046582,0.995626,-0.000344,0.005420,-0.004324,20.259747,-76.005196,5.563702,,,,,,
1465828322.46,3.059859,-0.046647,-1.444273,0.005479,-0.061022,-0.002190,0.081554,0.046630,0.995578,-0.001323,-0.001052,-0.000338,20.259747,-76.005196,5.563702,,,,,,
1465828322.48,3.058767,-0.046702,-1.444263,0.007604,-0.064063,-0.001074,0.082641,0.046685,0.995485,-0.005325,-0.001443,-0.002306,20.279251,-75.997169,5.602122,,,,,,
1465828322.47,3.059301,-0.046649,-1.444272,0.008672,-0.059820,-0.000035,0.082110,0.046633,0.995532,-0.002459,-0.004259,-0.000064,20.279251,-75.997169,5.602122,,,,,,
1465828322.49,3.058305,-0.046777,-1.444257,0.008677,-0.057692,-0.001113,0.083101,0.046760,0.995444,-0.007341,-0.000145,-0.000128,20.279251,-75.997169,5.602122,,,,,,
1465828322.50,3.057932,-0.046877,-1.444250,0.005494,-0.047075,-0.000119,0.083471,0.046860,0.995408,-0.008108,0.001861,-0.003861,20.286436,-75.996582,5.584091,,,,,,
1465828322.51,3.057734,-0.047029,-1.444229,0.001266,-0.025830,-0.002385,0.083668,0.047012,0.995384,-0.006794,0.006257,-0.000969,20.286436,-75.996582,5.584091,,,,,,
1465828322.52,3.057785,-0.047331,-1.444214,0.000232,-0.001410,-0.001475,0.083616,0.047313,0.995374,-0.007596,0.015691,-0.009611,20.286436,-75.996582,5.584091,,,,,,
1465828322.53,3.058029,-0.047483,-1.444209,-0.001896,0.002833,0.000625,0.083372,0.047466,0.995387,-0.011427,0.009267,-0.002818,20.299604,-75.991051,5.611404,,,,,,
1465828322.54,3.058199,-0.047481,-1.444199,-0.004019,0.003903,-0.001513,0.083203,0.047464,0.995402,-0.009183,0.002234,-0.003199,20.299604,-75.991051,5.611404,,,,,,
1465828322.55,3.058498,-0.047327,-1.444181,-0.001865,0.024077,-0.001637,0.082906,0.047309,0.995434,-0.005773,-0.007301,0.005558,20.299604,-75.991051,5.611404,,,,,,
1465828322.56,3.058972,-0.047184,-1.444173,-0.000793,0.033627,0.000433,0.082434,0.047167,0.995480,-0.007285,-0.007311,0.004093,20.299423,-75.989647,5.631114,,,,,,
1465828322.57,3.059386,-0.047045,-1.444167,0.000268,0.031504,0.000448,0.082024,0.047028,0.995520,-0.005760,-0.007889,-0.000601,20.299423,-75.989647,5.631114,,,,,,
1465828322.58,3.059816,-0.046867,-1.444163,0.000280,0.040001,-0.000670,0.081596,0.046849,0.995564,-0.003380,-0.010396,-0.000172,20.299423,-75.989647,5.631114,,,,,,
