timestamp,attitude_roll,attitude_pitch,attitude_yaw,rotation_rate_x,rotation_rate_y,rotation_rate_z,gravity_x,gravity_y,gravity_z,user_acc_x,user_acc_y,user_acc_z,magnetic_field_x,magnetic_field_y,magnetic_field_z,latitude(degree),longitude(degree),altitude(meter),speed(m/s),course(degree),timestamp
1465828089.95,0.500109,-0.146652,0.348971,0.006502,-0.047395,0.000692,0.474374,0.146127,-0.868111,-0.387124,-0.138955,-0.132439,-247.647400,171.339600,3.991295,,,,,,
1465828089.96,0.492710,-0.144473,0.347940,0.003340,-0.037885,-0.000435,0.468087,0.143971,-0.871875,-0.399835,-0.141026,-0.124112,-247.401382,171.522552,8.659538,,,,,,
1465828089.97,0.485644,-0.142399,0.346945,0.005514,-0.012460,0.001537,0.462053,0.141918,-0.875423,-0.394686,-0.134288,-0.118824,-247.401382,171.522552,8.659538,,,,,,
1465828089.98,0.479015,-0.140257,0.345973,0.007690,0.007670,-0.000715,0.456379,0.139798,-0.878735,-0.382419,-0.135815,-0.120960,-247.217224,171.630508,11.359070,,,,,,
1465828089.99,0.472507,-0.138153,0.345040,0.007696,0.002306,0.001448,0.450784,0.137714,-0.881946,-0.375100,-0.132495,-0.117398,-247.217224,171.630508,11.359070,,,,,,
1465828090.00,0.466147,-0.136040,0.344132,0.006650,0.002262,0.000383,0.445295,0.135621,-0.885053,-0.365186,-0.132264,-0.116244,-247.217224,171.630508,11.359070,,,,,,
,,,,,,,,,,,,,,,,29.719984,-95.399043,10.305928,-1.000000,-1.000000,1465828960.58
,,,,,,,,,,,,,,,,29.719995,-95.399018,10.953343,-1.000000,-1.000000,1465829633.97
1465828090.01,0.459791,-0.134002,0.343272,0.004512,-0.017957,0.000508,0.439783,0.133602,-0.888111,-0.356973,-0.127727,-0.114757,-247.007050,171.758728,13.743301,,,,,,
1465828090.02,0.453312,-0.132027,0.342434,0.005578,-0.029684,0.000583,0.434134,0.131643,-0.891178,-0.354773,-0.123877,-0.109875,-247.007050,171.758728,13.743301,,,,,,
,,,,,,,,,,,,,,,,29.719984,-95.399043,10.305928,-1.000000,-1.000000,1465828960.58
1465828090.03,0.446817,-0.130075,0.341610,0.006647,-0.037166,0.001696,0.428447,0.129708,-0.894209,-0.352519,-0.122384,-0.104418,-247.007050,171.758728,13.743301,,,,,,
1465828090.04,0.440360,-0.128163,0.340817,0.004527,-0.041458,0.001721,0.422769,0.127813,-0.897179,-0.347467,-0.119817,-0.102714,-246.508255,172.032272,18.465897,,,,,,
1465828090.05,0.433955,-0.126219,0.340034,0.005608,-0.042562,0.000665,0.417118,0.125884,-0.900092,-0.343723,-0.120879,-0.098061,-246.508255,172.032272,18.465897,,,,,,
1465828090.06,0.427658,-0.124327,0.339278,0.007757,-0.039422,0.000648,0.411540,0.124006,-0.902916,-0.339289,-0.116972,-0.093849,-246.508255,172.032272,18.465897,,,,,,
1465828090.07,0.421544,-0.122442,0.338548,0.006720,-0.028847,0.000582,0.406107,0.122136,-0.905627,-0.333399,-0.116109,-0.093366,-246.219666,172.170654,20.870163,,,,,,
1465828090.08,0.415598,-0.120548,0.337843,0.005668,-0.031013,0.000595,0.400807,0.120256,-0.908236,-0.325261,-0.116060,-0.092176,-246.219666,172.170654,20.870163,,,,,,
1465828090.09,0.409700,-0.118778,0.337164,0.005673,-0.038487,0.000642,0.395527,0.118499,-0.910778,-0.318135,-0.109633,-0.085682,-246.219666,172.170654,20.870163,,,,,,
1465828090.10,0.403851,-0.116970,0.336511,0.004613,-0.045960,0.000688,0.390277,0.116704,-0.913271,-0.311206,-0.111028,-0.087599,-246.219666,172.170654,20.870163,,,,,,
,,,,,,,,,,,,,,,,29.719985,-95.399046,10.305928,-1.000000,-1.000000,1465829635.58
1465828090.11,0.397965,-0.115214,0.335882,0.005673,-0.060866,0.000783,0.384974,0.114959,-0.915740,-0.305842,-0.107497,-0.083024,-245.589813,172.464569,25.377739,,,,,,
1465828090.12,0.392015,-0.113435,0.335271,0.005669,-0.075771,0.000877,0.379596,0.113192,-0.918202,-0.301273,-0.107897,-0.083767,-245.589813,172.464569,25.377739,,,,,,
1465828090.13,0.386053,-0.111733,0.334680,0.005676,-0.081120,0.000911,0.374187,0.111500,-0.920626,-0.297465,-0.103780,-0.076628,-245.243439,172.621033,27.569107,,,,,,
1465828090.14,0.380052,-0.109956,0.334120,0.004607,-0.093903,0.002055,0.368729,0.109735,-0.923037,-0.293427,-0.106622,-0.078962,-245.243439,172.621033,27.569107,,,,,,
1465828090.15,0.374061,-0.108302,0.333568,0.005680,-0.099248,0.001026,0.363258,0.108091,-0.925397,-0.288948,-0.100080,-0.072253,-245.243439,172.621033,27.569107,,,,,,
1465828090.16,0.368098,-0.106635,0.333037,0.004616,-0.107782,0.002143,0.357797,0.106433,-0.927714,-0.283472,-0.100497,-0.072133,-244.456406,172.953430,32.102951,,,,,,
1465828090.17,0.362145,-0.104995,0.332535,0.002487,-0.117374,0.002201,0.352330,0.104802,-0.929989,-0.277257,-0.098973,-0.073001,-244.456406,172.953430,32.102951,,,,,,
1465828090.18,0.356122,-0.103376,0.332047,0.005667,-0.138648,0.002338,0.346781,0.103192,-0.932252,-0.270426,-0.096249,-0.071196,-244.456406,172.953430,32.102951,,,,,,
1465828090.19,0.349955,-0.101769,0.331587,0.005650,-0.160984,0.003543,0.341082,0.101594,-0.934528,-0.266131,-0.095017,-0.066449,-244.023651,173.125076,34.388668,,,,,,
1465828090.20,0.343723,-0.100234,0.331154,0.005643,-0.175884,0.003637,0.335303,0.100066,-0.936781,-0.260383,-0.091307,-0.065752,-244.023651,173.125076,34.388668,,,,,,
1465828090.21,0.337353,-0.098665,0.330730,0.003493,-0.202462,0.003802,0.329381,0.098505,-0.939045,-0.255314,-0.093088,-0.064846,-244.023651,173.125076,34.388668,,,,,,
1465828090.22,0.330824,-0.097158,0.330334,0.003477,-0.224794,0.003942,0.323291,0.097006,-0.941314,-0.251483,-0.090475,-0.060135,-243.034134,173.483963,39.244583,,,,,,
,,,,,,,,,,,,,,,,29.720055,-95.399154,10.305928,-1.000000,-1.000000,1465829635.59
1465828090.24,0.317250,-0.094166,0.329616,0.001305,-0.275827,0.005325,0.310573,0.094027,-0.945888,-0.243571,-0.087237,-0.056249,-243.034134,173.483963,39.244583,,,,,,
1465828090.23,0.324149,-0.095609,0.329967,0.002390,-0.250312,0.005166,0.317047,0.095463,-0.943593,-0.245255,-0.092137,-0.059611,-243.034134,173.483963,39.244583,,,,,,
1465828090.25,0.310140,-0.092728,0.329270,0.003420,-0.298156,0.004404,0.303881,0.092595,-0.948200,-0.242587,-0.086110,-0.054166,-242.453979,173.677704,41.887325,,,,,,
1465828090.26,0.302988,-0.091301,0.328952,0.001286,-0.307749,0.006591,0.297130,0.091174,-0.950474,-0.237926,-0.085544,-0.050792,-242.453979,173.677704,41.887325,,,,,,
1465828090.27,0.295828,-0.089914,0.328654,0.000218,-0.319459,0.006664,0.290354,0.089792,-0.952697,-0.232005,-0.083643,-0.048920,-242.453979,173.677704,41.887325,,,,,,
1465828090.28,0.288594,-0.088572,0.328369,0.002327,-0.343912,0.006819,0.283489,0.088456,-0.954887,-0.224514,-0.080049,-0.047783,-241.105209,174.057587,47.693253,,,,,,
,,,,,,,,,,,,,,,,29.719956,-95.399085,10.149178,-1.000000,-1.000000,1465829635.77
1465828090.29,0.281127,-0.087218,0.328101,0.001231,-0.378977,0.005974,0.276384,0.087107,-0.957092,-0.220461,-0.081034,-0.046983,-241.105209,174.057587,47.693253,,,,,,
1465828090.30,0.273470,-0.085855,0.327849,0.001208,-0.404492,0.007199,0.269079,0.085749,-0.959293,-0.215872,-0.081401,-0.044110,-241.105209,174.057587,47.693253,,,,,,
1465828090.31,0.265590,-0.084550,0.327608,0.000117,-0.435309,0.006327,0.261541,0.084450,-0.961491,-0.213033,-0.079414,-0.042446,-240.342331,174.250168,50.743088,,,,,,
1465828090.32,0.257570,-0.083297,0.327403,-0.002032,-0.454457,0.009638,0.253848,0.083201,-0.963659,-0.208880,-0.076792,-0.040034,-240.342331,174.250168,50.743088,,,,,,
1465828090.33,0.249330,-0.082069,0.327206,-0.001004,-0.494827,0.007764,0.245924,0.081977,-0.965816,-0.205199,-0.076789,-0.039479,-240.342331,174.250168,50.743088,,,,,,
1465828090.34,0.240680,-0.080851,0.326983,0.000076,-0.488489,0.008790,0.237584,0.080763,-0.968004,-0.218175,-0.073988,-0.030898,-238.541321,174.648468,57.431435,,,,,,
1465828090.35,0.232367,-0.079713,0.326771,0.002256,-0.457723,0.007535,0.229550,0.079628,-0.970034,-0.221936,-0.071434,-0.024732,-238.541321,174.648468,57.431435,,,,,,
1465828090.36,0.224454,-0.078554,0.326556,-0.000873,-0.413155,0.007253,0.221888,0.078473,-0.971909,-0.221659,-0.072324,-0.023742,-238.541321,174.648468,57.431435,,,,,,
1465828090.37,0.220445,-0.078523,0.326634,0.001278,-0.396168,0.007149,0.217990,0.078442,-0.972794,-0.216937,-0.070584,-0.022537,-237.513687,174.823990,61.042862,,,,,,
1465828090.38,0.216674,-0.078499,0.326706,0.000242,-0.371749,0.008059,0.214320,0.078418,-0.973610,-0.219936,-0.071171,-0.023033,-237.513687,174.823990,61.042862,,,,,,
1465828090.40,0.206136,-0.077216,0.326546,0.000298,-0.336735,0.006775,0.204070,0.077139,-0.975912,-0.203322,-0.071356,-0.022058,-236.747742,174.929749,63.659344,,,,,,
1465828090.39,0.213136,-0.078477,0.326772,0.001340,-0.346263,0.006836,0.210875,0.078396,-0.974364,-0.216750,-0.068997,-0.019868,-236.747742,174.929749,63.659344,,,,,,
1465828090.41,0.202677,-0.077196,0.326601,0.001348,-0.348415,0.006849,0.200693,0.077120,-0.976614,-0.202829,-0.067964,-0.025568,-236.747742,174.929749,63.659344,,,,,,
1465828090.42,0.199165,-0.077176,0.326662,0.000278,-0.352662,0.006875,0.197262,0.077099,-0.977314,-0.198742,-0.071392,-0.021617,-236.747742,174.929749,63.659344,,,,,,
1465828090.43,0.195495,-0.077158,0.326735,0.000251,-0.373898,0.007008,0.193674,0.077082,-0.978033,-0.195642,-0.070170,-0.025873,-235.538330,175.073639,67.626419,,,,,,
1465828090.44,0.187924,-0.075923,0.326512,0.001316,-0.383481,0.006005,0.186281,0.075850,-0.979564,-0.199282,-0.067686,-0.019215,-235.538330,175.073639,67.626419,,,,,,
1465828090.46,0.180847,-0.075890,0.326658,0.000306,-0.336767,0.007840,0.179346,0.075817,-0.980860,-0.206689,-0.065975,-0.013967,-235.021606,175.106918,69.316841,,,,,,
1465828090.45,0.184269,-0.075911,0.326587,-0.001849,-0.356941,0.007964,0.182700,0.075838,-0.980239,-0.209266,-0.066744,-0.015427,-235.021606,175.106918,69.316841,,,,,,
1465828090.47,0.177394,-0.075879,0.326731,-0.002903,-0.348446,0.007910,0.175958,0.075806,-0.981475,-0.195474,-0.070435,-0.021165,-235.021606,175.106918,69.316841,,,,,,
1465828090.48,0.169980,-0.074618,0.326510,0.000302,-0.348478,0.007913,0.168692,0.074549,-0.982846,-0.199713,-0.066400,-0.014927,-235.021606,175.106918,69.316841,,,,,,
1465828090.49,0.166659,-0.074604,0.326571,0.000331,-0.328298,0.005658,0.165427,0.074535,-0.983402,-0.200568,-0.068233,-0.014279,-233.689713,175.251282,73.338379,,,,,,
1465828090.50,0.163369,-0.074564,0.326633,0.002452,-0.333611,0.006758,0.162191,0.074494,-0.983943,-0.193258,-0.064576,-0.012715,-233.689713,175.251282,73.338379,,,,,,
1465828090.51,0.156149,-0.073250,0.326412,0.002424,-0.367612,0.004842,0.155099,0.073184,-0.985184,-0.181801,-0.065585,-0.017181,-232.880310,175.361145,75.615128,,,,,,
1465828090.52,0.148861,-0.072026,0.326229,0.002397,-0.392070,0.008189,0.147928,0.071964,-0.986377,-0.173105,-0.061847,-0.014295,-232.880310,175.361145,75.615128,,,,,,
1465828090.53,0.141369,-0.070782,0.326072,0.001279,-0.444120,0.007450,0.140545,0.070723,-0.987545,-0.164120,-0.063688,-0.019230,-232.880310,175.361145,75.615128,,,,,,
1465828090.54,0.133490,-0.069593,0.325936,-0.000901,-0.490866,0.008806,0.132771,0.069537,-0.988704,-0.162053,-0.063113,-0.016453,-232.880310,175.361145,75.615128,,,,,,
1465828090.55,0.125269,-0.068464,0.325810,-0.001994,-0.522741,0.007940,0.124649,0.068410,-0.989840,-0.161011,-0.060872,-0.012861,-230.888672,175.684402,80.794952,,,,,,
1465828090.56,0.116768,-0.067366,0.325708,-0.000970,-0.558873,0.010297,0.116238,0.067315,-0.990938,-0.156918,-0.058603,-0.009398,-230.888672,175.684402,80.794952,,,,,,
1465828090.57,0.107881,-0.066329,0.325609,-0.005263,-0.592873,0.010506,0.107435,0.066280,-0.992000,-0.155531,-0.057689,-0.007618,-229.554214,175.888092,84.087212,,,,,,
1465828090.58,0.099326,-0.065665,0.325465,0.002244,-0.566333,0.002896,0.098949,0.065617,-0.992927,-0.184749,-0.049016,0.007224,-229.554214,175.888092,84.087212,,,,,,
1465828090.59,0.096382,-0.065650,0.325572,0.000576,-0.183048,0.010070,0.096025,0.065603,-0.993215,-0.331560,-0.060689,0.046880,-229.554214,175.888092,84.087212,,,,,,
1465828090.60,0.096223,-0.065551,0.325567,0.010425,0.010228,-0.002841,0.095869,0.065504,-0.993236,-0.214811,-0.053648,0.027630,-229.554214,175.888092,84.087212,,,,,,
1465828090.61,0.095810,-0.065474,0.325561,0.007112,-0.075791,0.003017,0.095459,0.065428,-0.993281,-0.173584,-0.055601,-0.010335,-227.025131,176.151169,90.181854,,,,,,
1465828090.62,0.094921,-0.065438,0.325589,0.000739,-0.067288,0.000829,0.094576,0.065391,-0.993368,-0.173571,-0.059944,-0.012446,-227.025131,176.151169,90.181854,,,,,,
1465828090.64,0.092166,-0.065356,0.325639,0.003721,-0.230815,0.005051,0.091839,0.065310,-0.993630,-0.140301,-0.052370,-0.023979,-226.972473,176.168503,90.280518,,,,,,
1465828090.63,0.094269,-0.065393,0.325588,0.002833,-0.093837,0.002062,0.093929,0.065347,-0.993432,-0.138438,-0.056710,0.002709,-226.972473,176.168503,90.280518,,,,,,
1465828090.65,0.089308,-0.065348,0.325682,-0.001713,-0.318942,0.005598,0.088999,0.065301,-0.993889,-0.102945,-0.065301,-0.017830,-226.972473,176.168503,90.280518,,,,,,
1465828090.66,0.084335,-0.065342,0.325781,-0.002023,-0.561042,0.010309,0.084055,0.065296,-0.994319,-0.087488,-0.051380,-0.031147,-226.972473,176.168503,90.280518,,,,,,
1465828090.67,0.077113,-0.065396,0.325921,-0.007619,-0.773409,0.014829,0.076872,0.065350,-0.994897,-0.069135,-0.062481,-0.031073,-226.356827,176.208786,91.735863,,,,,,
1465828090.68,0.067737,-0.065489,0.326098,-0.011098,-0.998512,0.017302,0.067540,0.065442,-0.995568,-0.069402,-0.057873,-0.028800,-226.356827,176.208786,91.735863,,,,,,
1465828090.69,0.056911,-0.065585,0.326267,-0.011201,-1.082392,0.016763,0.056758,0.065538,-0.996235,-0.137737,-0.048387,-0.002331,-226.356827,176.208786,91.735863,,,,,,
1465828090.70,0.048339,-0.065684,0.326464,-0.008682,-0.763866,0.020090,0.048216,0.065637,-0.996678,-0.269499,-0.058755,0.043187,-223.162567,176.309052,99.075760,,,,,,
1465828090.71,0.041319,-0.065711,0.326604,-0.002238,-0.730933,0.012439,0.041218,0.065663,-0.996990,-0.152317,-0.055364,0.024029,-223.162567,176.309052,99.075760,,,,,,
1465828090.72,0.033025,-0.065782,0.326748,-0.008772,-0.842428,0.016325,0.032947,0.065735,-0.997293,-0.159076,-0.054153,-0.009940,-223.162567,176.309052,99.075760,,,,,,
1465828090.73,0.026121,-0.065843,0.326883,-0.006339,-0.606697,0.010591,0.026061,0.065795,-0.997493,-0.244674,-0.056899,0.035518,-221.530045,176.368057,102.572739,,,,,,
1465828090.74,0.022357,-0.065832,0.326964,0.004661,-0.329566,0.006735,0.022307,0.065785,-0.997584,-0.249861,-0.052128,0.059291,-221.530045,176.368057,102.572739,,,,,,
1465828090.75,0.019356,-0.065784,0.327012,0.001532,-0.280716,0.004297,0.019313,0.065737,-0.997650,-0.226116,-0.047655,0.021423,-221.530045,176.368057,102.572739,,,,,,
1465828090.76,0.017746,-0.065740,0.327052,0.005978,-0.127824,0.005471,0.017707,0.065693,-0.997683,-0.210776,-0.059558,0.028048,-221.530045,176.368057,102.572739,,,,,,
1465828090.77,0.015991,-0.065675,0.327077,0.004824,-0.204265,0.002756,0.015956,0.065628,-0.997717,-0.152232,-0.050827,0.008230,-219.149490,176.448318,107.433212,,,,,,
1465828090.78,0.013166,-0.065664,0.327131,0.000427,-0.309390,0.006604,0.013137,0.065617,-0.997758,-0.122878,-0.059483,-0.005568,-219.149490,176.448318,107.433212,,,,,,
1465828090.79,0.009138,-0.065671,0.327187,-0.001276,-0.428014,0.005197,0.009118,0.065623,-0.997803,-0.117074,-0.056056,-0.008926,-218.774551,176.474579,108.151909,,,,,,
1465828090.80,0.004242,-0.065673,0.327280,-0.000333,-0.518279,0.010022,0.004233,0.065626,-0.997835,-0.120398,-0.055631,0.002871,-218.774551,176.474579,108.151909,,,,,,
1465828090.81,-0.002013,-0.065709,0.327393,-0.005827,-0.655246,0.009811,-0.002008,0.065662,-0.997840,-0.110830,-0.055530,-0.006753,-218.008148,176.498779,109.649658,,,,,,
1465828090.82,-0.009354,-0.065775,0.327528,-0.005975,-0.766747,0.014768,-0.009334,0.065727,-0.997794,-0.103551,-0.056511,0.002173,-218.008148,176.498779,109.649658,,,,,,
1465828090.83,-0.018301,-0.065866,0.327720,-0.010466,-0.945139,0.020140,-0.018260,0.065818,-0.997665,-0.086903,-0.055991,-0.007768,-218.008148,176.498779,109.649658,,,,,,
1465828090.84,-0.029668,-0.066004,0.327925,-0.013985,-1.202097,0.022812,-0.029599,0.065956,-0.997383,-0.053683,-0.055519,-0.013038,-218.008148,176.498779,109.649658,,,,,,
1465828090.85,-0.043359,-0.066198,0.328168,-0.018519,-1.419767,0.025237,-0.043250,0.066150,-0.996872,-0.058968,-0.058596,-0.010559,-214.819199,176.592407,115.629791,,,,,,
1465828090.86,-0.058286,-0.066408,0.328415,-0.020763,-1.510022,0.026866,-0.058125,0.066359,-0.996101,-0.092296,-0.052565,0.013039,-214.819199,176.592407,115.629791,,,,,,
1465828090.88,-0.090769,-0.066881,0.328999,-0.022127,-1.741506,0.032574,-0.090442,0.066831,-0.993657,-0.073819,-0.052244,0.015568,-211.769577,176.652313,121.037308,,,,,,
1465828090.87,-0.073833,-0.066635,0.328700,-0.019791,-1.580108,0.029435,-0.073602,0.066586,-0.995062,-0.115790,-0.058499,0.023734,-211.769577,176.652313,121.037308,,,,,,
1465828090.89,-0.110188,-0.067195,0.329351,-0.029937,-2.019706,0.038569,-0.109717,0.067144,-0.991692,-0.036844,-0.060598,0.002175,-211.769577,176.652313,121.037308,,,,,,
1465828090.90,-0.133050,-0.067574,0.329738,-0.035729,-2.386037,0.045118,-0.132355,0.067523,-0.988900,0.022064,-0.057376,-0.000892,-211.769577,176.652313,121.037308,,,,,,
1465828090.91,-0.160254,-0.067955,0.330214,-0.041655,-2.853251,0.056558,-0.159201,0.067903,-0.984908,0.057364,-0.056428,-0.000657,-202.976791,176.796539,135.077118,,,,,,
1465828090.92,-0.193165,-0.068557,0.330726,-0.053055,-3.446805,0.064527,-0.191515,0.068503,-0.979096,0.132204,-0.055838,-0.009902,-202.976791,176.796539,135.077118,,,,,,
1465828090.94,-0.277424,-0.070215,0.331970,-0.081180,-4.623311,0.087844,-0.273204,0.070158,-0.959394,0.145595,-0.059705,0.028913,-195.782272,176.897736,145.185791,,,,,,
1465828090.93,-0.232404,-0.069272,0.331327,-0.062413,-4.105137,0.076098,-0.229766,0.069217,-0.970782,0.169570,-0.059832,0.000002,-195.782272,176.897736,145.185791,,,,,,
1465828090.95,-0.326499,-0.071225,0.332613,-0.077397,-4.999197,0.092334,-0.319916,0.071164,-0.944770,0.110138,-0.058011,0.079383,-195.782272,176.897736,145.185791,,,,,,
1465828090.96,-0.379163,-0.072356,0.333251,-0.085323,-5.366595,0.101017,-0.369175,0.072293,-0.926544,0.107426,-0.054928,0.108459,-195.782272,176.897736,145.185791,,,,,,
1465828090.97,-0.435837,-0.073616,0.333876,-0.095422,-5.770090,0.108860,-0.421026,0.073550,-0.904062,0.125830,-0.054156,0.118921,-168.441589,177.047791,176.022522,,,,,,
1465828090.98,-0.495810,-0.075027,0.334480,-0.099007,-6.066357,0.120295,-0.474406,0.074957,-0.877109,0.100901,-0.058752,0.147892,-168.441589,177.047791,176.022522,,,,,,
1465828090.99,-0.559068,-0.076420,0.334934,-0.095124,-6.393347,0.105318,-0.528849,0.076346,-0.845275,0.109751,-0.047492,0.162322,-147.829453,177.049622,193.655090,,,,,,
1465828091.00,-0.615775,-0.077948,0.335307,-0.108744,-5.347500,0.111519,-0.575838,0.077869,-0.813847,-0.330107,-0.053821,0.298726,-147.829453,177.049622,193.655090,,,,,,
1465828091.01,-0.666766,-0.079031,0.335633,-0.066883,-5.115983,0.086690,-0.616517,0.078949,-0.783373,-0.157958,-0.023971,0.322680,-147.829453,177.049622,193.655090,,,,,,
1465828091.02,-0.714877,-0.080321,0.335840,-0.084437,-4.660496,0.096590,-0.653411,0.080234,-0.752739,-0.250153,-0.077106,0.198372,-147.829453,177.049622,193.655090,,,,,,
1465828091.03,-0.758806,-0.081387,0.336010,-0.071236,-4.335567,0.086049,-0.685778,0.081298,-0.723256,-0.175992,-0.009322,0.290959,-98.715179,176.812119,222.924225,,,,,,
1465828091.04,-0.801328,-0.082458,0.336126,-0.061535,-4.244251,0.083358,-0.715840,0.082364,-0.693390,-0.096828,-0.083814,0.153931,-98.715179,176.812119,222.924225,,,,,,
1465828091.05,-0.843265,-0.083489,0.336165,-0.073118,-4.146551,0.079540,-0.744217,0.083392,-0.662711,-0.117874,-0.004763,0.235572,-98.715179,176.812119,222.924225,,,,,,
1465828091.06,-0.882105,-0.084502,0.336172,-0.055640,-3.802521,0.072077,-0.769323,0.084401,-0.633260,-0.126383,-0.099096,0.167714,-57.379051,176.415726,237.250000,,,,,,
1465828091.07,-0.920652,-0.085441,0.336185,-0.067489,-3.903401,0.078021,-0.793093,0.085338,-0.603093,-0.064314,-0.005000,0.241445,-57.379051,176.415726,237.250000,,,,,,
1465828091.08,-0.959595,-0.086424,0.336100,-0.053581,-3.864097,0.069272,-0.815902,0.086316,-0.571710,-0.042481,-0.082257,0.127680,-57.379051,176.415726,237.250000,,,,,,
1465828091.09,-0.998612,-0.087408,0.336030,-0.072859,-3.935261,0.081408,-0.837511,0.087296,-0.539402,-0.012129,-0.034760,0.209141,-38.589165,176.195267,241.181488,,,,,,
1465828091.10,-1.039039,-0.088381,0.335915,-0.052786,-4.066923,0.077996,-0.858553,0.088266,-0.505069,0.024752,-0.054376,0.141071,-38.589165,176.195267,241.181488,,,,,,
1465828091.11,-1.082427,-0.089462,0.335709,-0.077779,-4.460854,0.085764,-0.879568,0.089343,-0.467310,0.111196,-0.056705,0.168283,-38.589165,176.195267,241.181488,,,,,,
1465828091.12,-1.128868,-0.090618,0.335451,-0.075914,-4.661553,0.093411,-0.900220,0.090494,-0.425928,0.098310,-0.051675,0.114588,1.337379,175.628342,244.653458,,,,,,
1465828091.13,-1.177876,-0.091800,0.335111,-0.082741,-5.013003,0.094544,-0.919905,0.091671,-0.381275,0.147109,-0.057613,0.191685,1.337379,175.628342,244.653458,,,,,,
1465828091.14,-1.230053,-0.093064,0.334682,-0.084095,-5.228575,0.105475,-0.938428,0.092930,-0.332742,0.115643,-0.045582,0.139291,1.337379,175.628342,244.653458,,,,,,
1465828091.15,-1.283109,-0.094317,0.334220,-0.082151,-5.383588,0.102191,-0.954641,0.094177,-0.282474,0.117025,-0.061645,0.232822,24.973351,175.228409,243.667297,,,,,,
1465828091.16,-1.341530,-0.095687,0.333641,-0.094657,-5.990977,0.121955,-0.969379,0.095541,-0.226224,0.223849,-0.044486,0.145032,24.973351,175.228409,243.667297,,,,,,
1465828091.17,-1.404742,-0.097081,0.332882,-0.104743,-6.395513,0.122353,-0.981601,0.096929,-0.164513,0.238925,-0.050633,0.177071,24.973351,175.228409,243.667297,,,,,,
1465828091.18,-1.471388,-0.098542,0.331948,-0.112646,-6.737439,0.135134,-0.990236,0.098382,-0.098763,0.229692,-0.055368,0.213983,79.937317,174.132751,232.357971,,,,,,
1465828091.19,-1.540017,-0.099996,0.330939,-0.107497,-6.870178,0.140229,-0.994533,0.099829,-0.030620,0.177761,-0.041907,0.213604,79.937317,174.132751,232.357971,,,,,,
1465828091.20,-1.611562,-0.101393,0.329735,-0.119676,-7.237565,0.145715,-0.994038,0.101219,0.040545,0.222309,-0.045479,0.303708,79.937317,174.132751,232.357971,,,,,,
1465828091.21,-1.684120,-0.102731,0.328398,-0.120687,-7.196151,0.144390,-0.988347,0.102550,0.112485,0.075017,-0.039760,0.431063,110.997345,173.372452,219.827194,,,,,,
1465828091.22,-1.754541,-0.103911,0.327055,-0.110826,-6.982719,0.137739,-0.977863,0.103724,0.181727,-0.016903,-0.053233,0.373663,110.997345,173.372452,219.827194,,,,,,
1465828091.23,-1.821887,-0.104949,0.325664,-0.114593,-6.602571,0.127900,-0.963312,0.104757,0.247094,-0.148260,-0.035375,0.423118,110.997345,173.372452,219.827194,,,,,,
1465828091.24,-1.881933,-0.105792,0.324334,-0.100730,-5.749927,0.114050,-0.946664,0.105595,0.304429,-0.224021,-0.056889,0.413619,168.717667,171.650085,181.033173,,,,,,
1465828091.25,-1.933116,-0.106511,0.323164,-0.082641,-4.923830,0.100372,-0.929778,0.106310,0.352436,-0.094483,-0.033449,0.322400,168.717667,171.650085,181.033173,,,,,,
1465828091.26,-1.980161,-0.107086,0.322058,-0.081223,-4.648812,0.094391,-0.912119,0.106882,0.395747,-0.055182,-0.055322,0.280614,168.717667,171.650085,181.033173,,,,,,
1465828091.27,-2.024143,-0.107627,0.321060,-0.071177,-4.293089,0.083654,-0.893785,0.107419,0.435442,0.009233,-0.025067,0.277250,188.128174,170.924149,161.539948,,,,,,
1465828091.28,-2.065318,-0.108040,0.320087,-0.060241,-4.059504,0.084329,-0.875064,0.107830,0.471843,-0.006635,-0.064480,0.213414,188.128174,170.924149,161.539948,,,,,,
1465828091.29,-2.103963,-0.108341,0.319131,-0.071575,-3.780206,0.068728,-0.856152,0.108129,0.505283,0.042462,-0.034399,0.249020,188.128174,170.924149,161.539948,,,,,,
1465828091.30,-2.140466,-0.108692,0.318310,-0.052208,-3.612462,0.071953,-0.837110,0.108478,0.536171,0.054121,-0.050479,0.200051,213.414398,169.832336,127.725037,,,,,,
1465828091.31,-2.175776,-0.108894,0.317416,-0.057354,-3.477599,0.066844,-0.817642,0.108679,0.565376,0.023971,-0.046789,0.197945,213.414398,169.832336,127.725037,,,,,,
1465828091.32,-2.208473,-0.109145,0.316628,-0.051652,-3.179229,0.062850,-0.798700,0.108928,0.591788,0.041346,-0.048381,0.223474,222.249512,169.393738,112.309067,,,,,,
1465828091.33,-2.238877,-0.109353,0.315876,-0.045037,-2.996605,0.062776,-0.780323,0.109136,0.615780,0.089985,-0.059087,0.169208,222.249512,169.393738,112.309067,,,,,,
1465828091.34,-2.268912,-0.109535,0.315151,-0.046100,-3.001902,0.058550,-0.761464,0.109316,0.638923,0.119404,-0.036882,0.165367,222.249512,169.393738,112.309067,,,,,,
1465828091.35,-2.298656,-0.109685,0.314421,-0.044953,-2.929712,0.062356,-0.742113,0.109465,0.661275,0.044512,-0.071959,0.169398,229.094330,169.004028,98.264175,,,,,,
1465828091.36,-2.325928,-0.109839,0.313720,-0.040327,-2.644077,0.056312,-0.723793,0.109618,0.681254,0.089562,-0.038802,0.167196,229.094330,169.004028,98.264175,,,,,,
1465828091.37,-2.351930,-0.109992,0.313068,-0.036043,-2.618605,0.059349,-0.705824,0.109770,0.699830,0.236342,-0.060682,0.120955,229.094330,169.004028,98.264175,,,,,,
1465828091.38,-2.381763,-0.110086,0.312301,-0.049465,-3.133573,0.062566,-0.684628,0.109863,0.720565,0.387646,-0.048798,0.048371,239.103088,168.315903,72.124123,,,,,,
1465828091.39,-2.418312,-0.110159,0.311363,-0.063099,-3.798287,0.078430,-0.657836,0.109936,0.745094,0.432265,-0.059918,0.070839,239.103088,168.315903,72.124123,,,,,,
1465828091.40,-2.461564,-0.110194,0.310261,-0.068259,-4.505465,0.090311,-0.625002,0.109971,0.772838,0.486818,-0.059571,0.056248,239.103088,168.315903,72.124123,,,,,,
1465828091.41,-2.512714,-0.110144,0.308895,-0.093759,-5.289102,0.109038,-0.584674,0.109921,0.803787,0.501666,-0.064908,0.083938,243.582352,167.923599,56.318016,,,,,,
1465828091.42,-2.571398,-0.109979,0.307357,-0.097904,-6.035567,0.121167,-0.536535,0.109758,0.836710,0.483831,-0.060075,0.117849,243.582352,167.923599,56.318016,,,,,,
1465828091.43,-2.636788,-0.109691,0.305668,-0.115760,-6.681149,0.130520,-0.480730,0.109471,0.870009,0.473299,-0.053609,0.156862,243.582352,167.923599,56.318016,,,,,,
1465828091.44,-2.708007,-0.109264,0.303846,-0.121793,-7.230128,0.144601,-0.417622,0.109046,0.902054,0.439808,-0.057121,0.196625,250.788162,166.731796,2.867630,,,,,,
1465828091.45,-2.783888,-0.108667,0.301926,-0.127672,-7.661238,0.154750,-0.348060,0.108453,0.931178,0.401191,-0.056756,0.243764,250.788162,166.731796,2.867630,,,,,,
1465828091.46,-2.863692,-0.107894,0.300001,-0.135622,-8.065764,0.151957,-0.272742,0.107685,0.956042,0.372596,-0.052143,0.261411,250.788162,166.731796,2.867630,,,,,,
1465828091.47,-2.945362,-0.106897,0.298087,-0.136766,-8.115693,0.160785,-0.193860,0.106694,0.975210,0.223600,-0.058812,0.323954,249.033829,166.030411,-33.443604,,,,,,
1465828091.48,-3.025930,-0.105815,0.296236,-0.139833,-8.010579,0.162251,-0.114759,0.105617,0.987763,0.178251,-0.040188,0.286621,249.033829,166.030411,-33.443604,,,,,,
1465828091.49,-3.104475,-0.104572,0.294521,-0.135293,-7.786541,0.160851,-0.036907,0.104381,0.993852,0.165874,-0.053890,0.294920,241.010620,165.392822,-72.536308,,,,,,
1465828091.50,3.101561,-0.103201,0.292972,-0.143623,-7.642122,0.156743,0.039808,0.103018,0.993883,0.069491,-0.047751,0.267577,241.010620,165.392822,-72.536308,,,,,,
1465828091.51,3.029311,-0.101821,0.291587,-0.114146,-7.068749,0.147855,0.111466,0.101645,0.988556,0.006073,-0.047400,0.297897,241.010620,165.392822,-72.536308,,,,,,
1465828091.52,2.962299,-0.100465,0.290424,-0.121967,-6.535682,0.130666,0.177435,0.100296,0.979008,-0.058584,-0.045150,0.241695,208.856308,164.549591,-141.438644,,,,,,
1465828091.53,2.902475,-0.099276,0.289431,-0.086938,-5.781802,0.119586,0.235679,0.099113,0.966764,-0.119438,-0.044593,0.242175,208.856308,164.549591,-141.438644,,,,,,
1465828091.54,2.849972,-0.098081,0.288680,-0.095560,-5.044856,0.096860,0.286123,0.097923,0.953176,-0.119894,-0.050881,0.170130,208.856308,164.549591,-141.438644,,,,,,
1465828091.55,2.805366,-0.097132,0.288033,-0.066891,-4.270795,0.084583,0.328372,0.096980,0.939557,-0.162372,-0.048609,0.158466,208.856308,164.549591,-141.438644,,,,,,
1465828091.56,2.768411,-0.096264,0.287592,-0.061603,-3.470164,0.066793,0.362892,0.096115,0.926861,-0.204079,-0.049118,0.103962,173.098724,164.305847,-183.692245,,,,,,
1465828091.57,2.741404,-0.095663,0.287229,-0.036869,-2.441262,0.050785,0.387810,0.095518,0.916777,-0.246468,-0.048444,0.124666,173.098724,164.305847,-183.692245,,,,,,
1465828091.58,2.723897,-0.095278,0.287016,-0.021836,-1.516395,0.029033,0.403816,0.095134,0.909880,-0.250709,-0.049754,0.068101,173.098724,164.305847,-183.692245,,,,,,
1465828091.59,2.716226,-0.095169,0.286891,0.000732,-0.518283,0.012151,0.410787,0.095025,0.906766,-0.262518,-0.045098,0.080646,161.233826,164.296967,-194.197250,,,,,,
1465828091.60,2.718245,-0.095258,0.286907,0.009427,0.446936,-0.009860,0.408953,0.095114,0.907585,-0.243532,-0.044821,0.039512,161.233826,164.296967,-194.197250,,,,,,
1465828091.61,2.730121,-0.095626,0.286995,0.036223,1.418504,-0.027636,0.398132,0.095481,0.912346,-0.231124,-0.047080,0.077172,161.233826,164.296967,-194.197250,,,,,,
1465828091.62,2.750739,-0.096173,0.287213,0.045839,2.272227,-0.046819,0.379218,0.096024,0.920312,-0.185263,-0.046632,0.049674,159.074051,164.249237,-196.010330,,,,,,
1465828091.63,2.779587,-0.096970,0.287529,0.066032,3.076029,-0.061420,0.352487,0.096818,0.930795,-0.154428,-0.056276,0.075736,159.074051,164.249237,-196.010330,,,,,,
1465828091.64,2.816002,-0.097887,0.287955,0.075497,3.818248,-0.074581,0.318337,0.097731,0.942926,-0.111107,-0.053908,0.080847,159.074051,164.249237,-196.010330,,,,,,
1465828091.65,2.859054,-0.099002,0.288521,0.093335,4.437305,-0.091219,0.277429,0.098840,0.955648,-0.046808,-0.054406,0.096293,168.402023,164.212204,-188.089127,,,,,,
1465828091.66,2.907222,-0.100135,0.289234,0.096102,4.935307,-0.100726,0.231068,0.099968,0.967788,-0.010426,-0.050407,0.105790,168.402023,164.212204,-188.089127,,,,,,
1465828091.67,2.960701,-0.101351,0.290092,0.103170,5.467285,-0.110442,0.178983,0.101178,0.978636,0.023180,-0.047558,0.139177,168.402023,164.212204,-188.089127,,,,,,
1465828091.68,3.018672,-0.102636,0.291081,0.114345,5.876094,-0.120446,0.121966,0.102456,0.987232,0.091397,-0.053460,0.156765,198.946518,164.272095,-155.362106,,,,,,
1465828091.69,3.079509,-0.103949,0.292203,0.123193,6.134116,-0.125249,0.061709,0.103762,0.992686,0.141965,-0.053164,0.168737,198.946518,164.272095,-155.362106,,,,,,
1465828091.70,-3.140896,-0.105227,0.293459,0.125535,6.296582,-0.130523,-0.000693,0.105032,0.994469,0.202170,-0.062674,0.172554,198.946518,164.272095,-155.362106,,,,,,
1465828091.71,-3.077055,-0.106478,0.294791,0.127767,6.383640,-0.127874,-0.064128,0.106277,0.992267,0.262370,-0.057494,0.180768,215.559555,164.436829,-131.137421,,,,,,
1465828091.72,-3.014244,-0.107549,0.296206,0.119026,6.202082,-0.128872,-0.126271,0.107342,0.986171,0.336751,-0.058804,0.150212,215.559555,164.436829,-131.137421,,,,,,
1465828091.73,-2.954061,-0.108487,0.297612,0.114420,5.937675,-0.119768,-0.185338,0.108275,0.976691,0.368978,-0.059431,0.142403,215.559555,164.436829,-131.137421,,,,,,
1465828091.74,-2.896487,-0.109328,0.298992,0.110880,5.666908,-0.114880,-0.241210,0.109110,0.964320,0.407821,-0.057459,0.141652,240.499969,165.099899,-74.861252,,,,,,
1465828091.75,-2.842662,-0.110041,0.300317,0.101830,5.255972,-0.103796,-0.292717,0.109819,0.949872,0.432061,-0.065874,0.115863,240.499969,165.099899,-74.861252,,,,,,
1465828091.76,-2.794026,-0.110613,0.301573,0.093680,4.703833,-0.098212,-0.338529,0.110388,0.934458,0.487470,-0.057180,0.079778,240.499969,165.099899,-74.861252,,,,,,
1465828091.77,-2.751619,-0.111060,0.302682,0.075809,4.058230,-0.081408,-0.377822,0.110831,0.919221,0.509963,-0.067176,0.052489,246.968292,165.512726,-48.110428,,,,,,
1465828091.78,-2.716384,-0.111425,0.303614,0.067431,3.334061,-0.068359,-0.409953,0.111195,0.905304,0.510584,-0.059162,0.018036,246.968292,165.512726,-48.110428,,,,,,
1465828091.79,-2.688327,-0.111683,0.304364,0.052656,2.607763,-0.052110,-0.435175,0.111451,0.893421,0.523630,-0.067124,0.005642,246.968292,165.512726,-48.110428,,,,,,
1465828091.80,-2.668343,-0.111889,0.304915,0.038825,1.782723,-0.037369,-0.452931,0.111655,0.884526,0.542394,-0.064658,-0.032597,250.943497,166.208481,-10.223450,,,,,,
1465828091.81,-2.657118,-0.112000,0.305241,0.020223,0.887683,-0.020083,-0.462825,0.111766,0.879375,0.551265,-0.070292,-0.042263,250.943497,166.208481,-10.223450,,,,,,
1465828091.82,-2.654909,-0.112073,0.305334,0.007376,0.005293,-0.000724,-0.464763,0.111839,0.878344,0.532664,-0.066566,-0.058016,250.943497,166.208481,-10.223450,,,,,,
1465828091.83,-2.660680,-0.112077,0.305206,-0.009573,-0.756043,0.015743,-0.459686,0.111842,0.881011,0.487320,-0.063930,-0.040404,251.036392,166.363358,-2.526535,,,,,,
1465828091.84,-2.673567,-0.112040,0.304887,-0.020067,-1.467472,0.029774,-0.448297,0.111806,0.886865,0.474588,-0.063283,-0.041040,251.036392,166.363358,-2.526535,,,,,,
1465828091.85,-2.693658,-0.111938,0.304393,-0.033750,-2.176774,0.042724,-0.430395,0.111705,0.895702,0.451131,-0.064570,-0.028271,251.036392,166.363358,-2.526535,,,,,,
1465828091.86,-2.720006,-0.111780,0.303737,-0.044085,-2.761848,0.055964,-0.406655,0.111548,0.906746,0.404183,-0.064810,-0.012703,250.899475,166.184464,-11.601952,,,,,,
1465828091.87,-2.751422,-0.111581,0.302972,-0.050044,-3.257725,0.065454,-0.377981,0.111350,0.919093,0.386297,-0.064963,0.016714,250.899475,166.184464,-11.601952,,,,,,
1465828091.88,-2.787765,-0.111309,0.302070,-0.060248,-3.741922,0.075932,-0.344347,0.111079,0.932248,0.357195,-0.063426,0.022555,250.899475,166.184464,-11.601952,,,,,,
1465828091.89,-2.828393,-0.110951,0.301065,-0.068229,-4.152853,0.084888,-0.306209,0.110723,0.945503,0.350155,-0.062872,0.043266,250.009659,165.914474,-25.883919,,,,,,
1465828091.90,-2.872793,-0.110486,0.299998,-0.075065,-4.504315,0.090279,-0.263955,0.110261,0.958212,0.305184,-0.056687,0.054239,250.009659,165.914474,-25.883919,,,,,,
1465828091.91,-2.919642,-0.109951,0.298872,-0.081734,-4.717752,0.097997,-0.218803,0.109730,0.969580,0.263222,-0.061054,0.081797,250.009659,165.914474,-25.883919,,,,,,
1465828091.92,-2.968050,-0.109348,0.297760,-0.079781,-4.860032,0.097827,-0.171642,0.109131,0.979096,0.229289,-0.057312,0.092574,242.775940,165.204712,-66.855560,,,,,,
1465828091.93,-3.017233,-0.108692,0.296641,-0.080906,-4.903574,0.101292,-0.123307,0.108478,0.986422,0.179017,-0.059558,0.108930,242.775940,165.204712,-66.855560,,,,,,
1465828091.94,-3.065924,-0.107999,0.295550,-0.078705,-4.848358,0.099884,-0.075156,0.107789,0.991329,0.166968,-0.056489,0.114674,235.466003,164.860886,-89.883667,,,,,,
1465828091.95,-3.114518,-0.107208,0.294535,-0.082932,-4.829233,0.095502,-0.026916,0.107003,0.993894,0.141403,-0.057396,0.101153,235.466003,164.860886,-89.883667,,,,,,
1465828091.96,3.121553,-0.106394,0.293569,-0.080564,-4.639171,0.094312,0.019925,0.106194,0.994146,0.079395,-0.057884,0.114726,235.466003,164.860886,-89.883667,,,,,,
1465828091.97,3.078030,-0.105599,0.292714,-0.073657,-4.235672,0.085402,0.063166,0.105403,0.992421,0.020666,-0.054850,0.130305,235.466003,164.860886,-89.883667,,,,,,
1465828091.99,3.001804,-0.104196,0.291315,-0.053551,-3.503008,0.070182,0.138579,0.104008,0.984875,-0.026655,-0.051685,0.093891,215.257721,164.356155,-131.732986,,,,,,
1465828091.98,3.038071,-0.104870,0.291962,-0.065791,-3.913938,0.079134,0.102769,0.104677,0.989182,0.015258,-0.055956,0.106582,215.257721,164.356155,-131.732986,,,,,,
1465828092.00,2.970851,-0.103606,0.290763,-0.047525,-2.956159,0.058243,0.169002,0.103421,0.980175,-0.048961,-0.052212,0.098561,215.257721,164.356155,-131.732986,,,,,,
1465828092.02,2.925087,-0.102700,0.290005,-0.029056,-1.835928,0.037398,0.213687,0.102520,0.971508,-0.098132,-0.055264,0.073277,204.880936,164.210449,-147.516602,,,,,,
1465828092.01,2.945019,-0.103086,0.290340,-0.038355,-2.446481,0.048669,0.194274,0.102903,0.975535,-0.075972,-0.051969,0.070394,204.880936,164.210449,-147.516602,,,,,,
1465828092.03,2.911614,-0.102443,0.289793,-0.016501,-1.178652,0.023708,0.226762,0.102264,0.968567,-0.108018,-0.052947,0.060257,204.880936,164.210449,-147.516602,,,,,,
1465828092.04,2.904134,-0.102356,0.289657,-0.002996,-0.611632,0.011650,0.234003,0.102177,0.966852,-0.093500,-0.057469,0.053336,191.095352,164.077682,-165.116608,,,,,,
1465828092.05,2.903770,-0.101589,0.289757,0.008427,-0.008502,-0.000638,0.234373,0.101414,0.966843,-0.084226,-0.053974,0.035965,191.095352,164.077682,-165.116608,,,,,,
1465828092.06,2.908044,-0.101741,0.289805,0.014485,0.567010,-0.010628,0.230235,0.101566,0.967820,-0.077403,-0.053348,0.038924,191.095352,164.077682,-165.116608,,,,,,
1465828092.07,2.918063,-0.102022,0.289948,0.030128,1.142520,-0.021673,0.220520,0.101845,0.970051,-0.060486,-0.053215,0.031399,189.833496,164.169922,-166.474915,,,,,,
1465828092.08,2.933439,-0.102398,0.290185,0.031865,1.664950,-0.033464,0.205572,0.102219,0.973289,-0.051793,-0.054566,0.038018,189.833496,164.169922,-166.474915,,,,,,
1465828092.09,2.954286,-0.102848,0.290529,0.045339,2.207548,-0.045369,0.185230,0.102667,0.977318,-0.025913,-0.054724,0.046410,189.833496,164.169922,-166.474915,,,,,,
1465828092.10,2.979690,-0.103450,0.290944,0.053350,2.643960,-0.053420,0.160335,0.103266,0.981646,0.000203,-0.057917,0.044782,197.822754,164.193939,-156.872299,,,,,,
1465828092.11,3.009219,-0.104138,0.291447,0.062369,3.034714,-0.061184,0.131272,0.103950,0.985881,0.050002,-0.057105,0.054890,197.822754,164.193939,-156.872299,,,,,,
1465828092.12,3.041996,-0.104874,0.292033,0.067046,3.359638,-0.068539,0.098885,0.104682,0.989577,0.064216,-0.055747,0.054353,197.822754,164.193939,-156.872299,,,,,,
1465828092.13,3.077922,-0.105654,0.292685,0.078061,3.649510,-0.072475,0.063273,0.105457,0.992409,0.105626,-0.054645,0.069191,205.947067,164.246658,-145.983765,,,,,,
1465828092.14,3.115683,-0.106439,0.293441,0.075071,3.803488,-0.078766,0.025760,0.106238,0.994007,0.150113,-0.056906,0.060360,205.947067,164.246658,-145.983765,,,,,,
1465828092.15,-3.128030,-0.107233,0.294247,0.077429,3.986116,-0.079909,-0.013484,0.107028,0.994165,0.155955,-0.058322,0.079337,205.947067,164.246658,-145.983765,,,,,,
1465828092.16,-3.087258,-0.108023,0.295089,0.082861,4.071061,-0.081501,-0.053991,0.107814,0.992704,0.216146,-0.058604,0.084399,224.502014,164.503311,-115.064865,,,,,,
1465828092.17,-3.047898,-0.108692,0.295950,0.074119,3.888440,-0.082493,-0.093005,0.108478,0.989739,0.279315,-0.060840,0.054558,224.502014,164.503311,-115.064865,,,,,,
1465828092.18,-3.010048,-0.109328,0.296818,0.073920,3.736591,-0.077283,-0.130383,0.109110,0.985442,0.304211,-0.062251,0.053560,224.502014,164.503311,-115.064865,,,,,,
1465828092.19,-2.974025,-0.109924,0.297675,0.069417,3.543342,-0.075012,-0.165778,0.109703,0.980042,0.309393,-0.059791,0.049499,232.719345,164.708069,-97.032845,,,,,,
1465828092.20,-2.939841,-0.110465,0.298465,0.067045,3.361754,-0.066424,-0.199164,0.110241,0.973746,0.298422,-0.064861,0.053415,232.719345,164.708069,-97.032845,,,,,,
1465828092.21,-2.908458,-0.110937,0.299234,0.060256,3.044276,-0.063375,-0.229608,0.110709,0.966966,0.343912,-0.060523,0.037489,238.986450,164.943497,-79.884544,,,,,,
1465828092.23,-2.856546,-0.111695,0.300519,0.046530,2.307356,-0.045994,-0.279450,0.111463,0.953669,0.367600,-0.063093,0.017447,238.986450,164.943497,-79.884544,,,,,,
1465828092.22,-2.880673,-0.111355,0.299920,0.056588,2.677935,-0.053630,-0.256371,0.111125,0.960169,0.355340,-0.062785,0.025335,238.986450,164.943497,-79.884544,,,,,,
1465828092.24,-2.837289,-0.111972,0.301012,0.037346,1.788119,-0.035295,-0.297752,0.111738,0.948081,0.395073,-0.061979,-0.006233,246.320435,165.360764,-51.812042,,,,,,
1465828092.26,-2.813603,-0.112332,0.301651,0.021156,0.784688,-0.016245,-0.320110,0.112096,0.940725,0.403408,-0.066121,-0.020727,246.320435,165.360764,-51.812042,,,,,,
1465828092.25,-2.822883,-0.112171,0.301392,0.029297,1.319856,-0.028109,-0.311373,0.111936,0.943672,0.390749,-0.064939,-0.012734,246.320435,165.360764,-51.812042,,,,,,
1465828092.27,-2.810060,-0.112417,0.301762,0.009773,0.210238,-0.005202,-0.323438,0.112180,0.939576,0.404905,-0.067685,-0.034684,246.320435,165.360764,-51.812042,,,,,,
1465828092.28,-2.812000,-0.112459,0.301743,0.001638,-0.321742,0.005577,-0.321613,0.112222,0.940197,0.397144,-0.067270,-0.035366,248.302048,165.548660,-40.523544,,,,,,
1465828092.29,-2.818336,-0.112448,0.301597,-0.007407,-0.730552,0.015583,-0.315650,0.112211,0.942217,0.350883,-0.066221,-0.020770,248.302048,165.548660,-40.523544,,,,,,
1465828092.30,-2.828765,-0.112410,0.301359,-0.012193,-1.143603,0.022427,-0.305808,0.112174,0.945462,0.339453,-0.062201,-0.019345,248.302048,165.548660,-40.523544,,,,,,
1465828092.31,-2.843172,-0.112298,0.301028,-0.021202,-1.529045,0.029093,-0.292159,0.112062,0.949782,0.317336,-0.063067,-0.018339,247.986328,165.508591,-42.568848,,,,,,
1465828092.32,-2.860737,-0.112152,0.300614,-0.026900,-1.818929,0.036227,-0.275437,0.111917,0.954782,0.292115,-0.061899,-0.003824,247.986328,165.508591,-42.568848,,,,,,
1465828092.33,-2.881277,-0.111969,0.300136,-0.030498,-2.135353,0.041402,-0.255774,0.111735,0.960258,0.286581,-0.065516,0.003777,247.986328,165.508591,-42.568848,,,,,,
1465828092.34,-2.904933,-0.111725,0.299580,-0.039384,-2.418867,0.049557,-0.232995,0.111493,0.966065,0.273919,-0.064588,0.001189,245.038757,165.243759,-57.904400,,,,,,
1465828092.35,-2.930505,-0.111456,0.298976,-0.039610,-2.596194,0.052798,-0.208223,0.111226,0.971737,0.240435,-0.062520,0.018742,245.038757,165.243759,-57.904400,,,,,,
1465828092.36,-2.958070,-0.111151,0.298358,-0.044120,-2.792631,0.056155,-0.181368,0.110923,0.977140,0.232729,-0.057807,0.018710,242.069962,165.048874,-69.738197,,,,,,
1465828092.37,-2.986988,-0.110782,0.297699,-0.047466,-2.910496,0.059019,-0.153045,0.110555,0.982016,0.204452,-0.060949,0.025171,242.069962,165.048874,-69.738197,,,,,,
1465828092.38,-3.016114,-0.110400,0.297040,-0.047445,-2.893507,0.058913,-0.124388,0.110176,0.986098,0.161391,-0.059242,0.040895,242.069962,165.048874,-69.738197,,,,,,
1465828092.39,-3.045415,-0.109945,0.296355,-0.044273,-2.908381,0.061138,-0.095450,0.109724,0.989368,0.152960,-0.061948,0.043743,237.948517,164.846954,-83.116783,,,,,,
1465828092.40,-3.074824,-0.109515,0.295712,-0.048570,-2.940230,0.060269,-0.066319,0.109297,0.991794,0.156224,-0.060407,0.038220,237.948517,164.846954,-83.116783,,,,,,
1465828092.41,-3.104050,-0.109083,0.295094,-0.046379,-2.894567,0.057856,-0.037311,0.108866,0.993356,0.130145,-0.058894,0.037421,237.948517,164.846954,-83.116783,,,,,,
1465828092.42,-3.132278,-0.108638,0.294517,-0.045178,-2.787323,0.056120,-0.009259,0.108425,0.994062,0.116879,-0.058056,0.045031,227.059448,164.472305,-109.978600,,,,,,
1465828092.43,3.124276,-0.108135,0.293970,-0.043861,-2.589823,0.052754,0.017215,0.107924,0.994010,0.070096,-0.060042,0.048699,227.059448,164.472305,-109.978600,,,,,,
1465828092.44,3.100765,-0.107749,0.293503,-0.034916,-2.257468,0.045356,0.040579,0.107541,0.993372,0.028589,-0.057721,0.057287,227.059448,164.472305,-109.978600,,,,,,
1465828092.45,3.080516,-0.107419,0.293094,-0.030261,-1.947416,0.040223,0.060687,0.107213,0.992382,0.017087,-0.059361,0.057728,220.888855,164.335388,-122.083626,,,,,,
1465828092.46,3.063285,-0.107144,0.292760,-0.024541,-1.639481,0.032975,0.077779,0.106939,0.991219,0.013209,-0.057104,0.043663,220.888855,164.335388,-122.083626,,,,,,
1465828092.47,3.048998,-0.106842,0.292489,-0.019914,-1.352785,0.026924,0.091935,0.106639,0.990038,0.024169,-0.057811,0.041105,220.888855,164.335388,-122.083626,,,,,,
1465828092.48,3.037760,-0.106677,0.292275,-0.012059,-1.039545,0.020709,0.103057,0.106475,0.988960,0.021882,-0.056442,0.026589,220.888855,164.335388,-122.083626,,,,,,
1465828092.49,3.030072,-0.106593,0.292135,-0.006261,-0.671085,0.012018,0.110658,0.106391,0.988148,0.005064,-0.060401,0.031628,211.364105,164.159607,-138.127670,,,,,,
1465828092.50,3.026348,-0.106586,0.292076,0.001702,-0.272898,0.004206,0.114337,0.106384,0.987729,-0.005786,-0.059067,0.033404,211.364105,164.159607,-138.127670,,,,,,
1465828092.51,3.026872,-0.102851,0.292132,0.008574,0.104056,-0.003479,0.113865,0.102670,0.988177,-0.002415,-0.054070,0.030851,208.779526,164.110352,-142.060944,,,,,,
1465828092.53,3.038071,-0.099775,0.292325,0.020157,0.834595,-0.017633,0.102823,0.099609,0.989700,0.024771,-0.049118,0.027039,208.779526,164.110352,-142.060944,,,,,,
1465828092.52,3.030591,-0.099564,0.292186,0.014377,0.478879,-0.010086,0.110225,0.099399,0.988924,0.008290,-0.050022,0.027251,208.779526,164.110352,-142.060944,,,,,,
1465828092.54,3.048817,-0.100064,0.292516,0.028004,1.143585,-0.022757,0.092180,0.099897,0.990719,0.059233,-0.051618,0.020710,209.991516,164.952850,-139.271469,,,,,,
1465828092.55,3.061968,-0.100405,0.292759,0.031486,1.366573,-0.028409,0.079140,0.100237,0.991811,0.080665,-0.055284,0.016688,209.991516,164.952850,-139.271469,,,,,,
1465828092.56,3.077030,-0.100694,0.293039,0.035997,1.561951,-0.032824,0.064191,0.100524,0.992862,0.083285,-0.053817,0.023297,209.991516,164.952850,-139.271469,,,,,,
1465828092.57,3.094354,-0.101086,0.293374,0.039475,1.784934,-0.036348,0.046980,0.100914,0.993785,0.079240,-0.051384,0.030705,213.174225,164.975632,-134.321274,,,,,,
1465828092.58,3.113957,-0.101546,0.293771,0.045088,2.008983,-0.042005,0.027490,0.101371,0.994469,0.089240,-0.050804,0.032906,213.174225,164.975632,-134.321274,,,,,,
1465828092.59,3.135514,-0.102017,0.294216,0.046395,2.196930,-0.046376,0.006047,0.101840,0.994782,0.100764,-0.051150,0.037734,213.174225,164.975632,-134.321274,,,,,,
1465828092.60,-3.124565,-0.102452,0.294655,0.050847,2.354068,-0.045228,-0.016938,0.102273,0.994612,0.155716,-0.053628,0.031099,222.209610,165.110168,-118.591499,,,,,,
1465828092.61,-3.100884,-0.102942,0.295146,0.048721,2.355134,-0.046301,-0.040482,0.102760,0.993882,0.198380,-0.057915,0.017577,222.209610,165.110168,-118.591499,,,,,,
1465828092.62,-3.077963,-0.103403,0.295638,0.047533,2.255328,-0.046741,-0.063248,0.103219,0.992646,0.221741,-0.054910,0.007293,222.209610,165.110168,-118.591499,,,,,,
1465828092.63,-3.056140,-0.103811,0.296129,0.043142,2.151271,-0.045028,-0.084889,0.103624,0.990987,0.243489,-0.056169,0.006999,222.209610,165.110168,-118.591499,,,,,,
1465828092.64,-3.040824,-0.103149,0.296060,0.042920,1.981338,-0.040769,-0.100064,0.102966,0.989639,0.249127,-0.054580,-0.003326,231.811874,165.323563,-98.151901,,,,,,
1465828092.65,-3.031512,-0.101406,0.295553,0.038434,1.806072,-0.037545,-0.109295,0.101232,0.988841,0.223629,-0.052953,0.003758,231.811874,165.323563,-98.151901,,,,,,
1465828092.66,-3.015815,-0.101382,0.295805,0.034014,1.679706,-0.035692,-0.124803,0.101208,0.987006,0.218659,-0.052395,0.002465,231.811874,165.323563,-98.151901,,,,,,
1465828092.67,-3.000048,-0.101679,0.296185,0.034893,1.536354,-0.031599,-0.140343,0.101503,0.984886,0.209176,-0.053637,0.003914,234.214584,165.478226,-91.993980,,,,,,
1465828092.68,-2.985588,-0.101954,0.296514,0.029409,1.413179,-0.027639,-0.154566,0.101778,0.982726,0.228250,-0.052598,0.004350,234.214584,165.478226,-91.993980,,,,,,
1465828092.69,-2.972905,-0.102218,0.296814,0.030204,1.201874,-0.024184,-0.167013,0.102040,0.980660,0.255437,-0.053730,-0.012414,234.214584,165.478226,-91.993980,,,,,,
1465828092.70,-2.963334,-0.102348,0.297017,0.020251,0.913054,-0.018124,-0.176388,0.102169,0.979004,0.252361,-0.053082,-0.017807,239.008743,165.662155,-78.315331,,,,,,
1465828092.71,-2.955861,-0.102501,0.297204,0.018906,0.691135,-0.015670,-0.183696,0.102322,0.977643,0.258587,-0.052517,-0.009305,239.008743,165.662155,-78.315331,,,,,,
1465828092.72,-2.950906,-0.102631,0.297322,0.012166,0.421423,-0.007598,-0.188536,0.102451,0.976708,0.261991,-0.054263,-0.019143,239.008743,165.662155,-78.315331,,,,,,
1465828092.73,-2.948814,-0.102702,0.297384,0.006486,0.142163,-0.002659,-0.190577,0.102522,0.976304,0.260249,-0.056409,-0.018022,240.251236,165.715256,-74.298172,,,,,,
1465828092.74,-2.965210,-0.099751,0.295781,0.001894,-0.115971,0.001086,-0.174598,0.099586,0.979591,0.239524,-0.052329,-0.022010,240.251236,165.715256,-74.298172,,,,,,
1465828092.75,-2.968260,-0.099756,0.295726,-0.001621,-0.364443,0.006899,-0.171608,0.099591,0.980119,0.232003,-0.052868,-0.016022,240.251236,165.715256,-74.298172,,,,,,
1465828092.76,-2.973627,-0.099731,0.295608,-0.006173,-0.591678,0.012577,-0.166346,0.099565,0.981028,0.220149,-0.048296,-0.017893,239.484528,165.709717,-76.745529,,,,,,
1465828092.77,-2.981032,-0.099665,0.295449,-0.009614,-0.787051,0.014863,-0.159078,0.099500,0.982239,0.205175,-0.050932,-0.008393,239.484528,165.709717,-76.745529,,,,,,
1465828092.78,-2.990166,-0.099581,0.295255,-0.011953,-0.950573,0.018015,-0.150101,0.099416,0.983660,0.196931,-0.050863,-0.005785,239.484528,165.709717,-76.745529,,,,,,
1465828092.79,-3.000834,-0.099472,0.295016,-0.015349,-1.104545,0.023236,-0.139601,0.099308,0.985215,0.193419,-0.052067,-0.003984,238.529800,165.658813,-79.769058,,,,,,
1465828092.80,-3.013053,-0.099350,0.294762,-0.015533,-1.251073,0.024154,-0.127553,0.099186,0.986860,0.169912,-0.049198,-0.002286,238.529800,165.658813,-79.769058,,,,,,
1465828092.82,-3.042502,-0.097975,0.293855,-0.018105,-1.310629,0.026639,-0.098454,0.097819,0.990322,0.139225,-0.048090,0.010746,236.973373,165.585464,-84.424454,,,,,,
1465828092.81,-3.029419,-0.098127,0.294141,-0.018091,-1.300011,0.026573,-0.111400,0.097970,0.988935,0.137386,-0.047479,0.010485,236.973373,165.585464,-84.424454,,,,,,
1465828092.83,-3.056053,-0.097819,0.293570,-0.019239,-1.365843,0.026984,-0.085027,0.097664,0.991581,0.137151,-0.048179,0.007412,236.973373,165.585464,-84.424454,,,,,,
1465828092.84,-3.069973,-0.097639,0.293266,-0.020342,-1.393455,0.029285,-0.071218,0.097484,0.992686,0.132787,-0.048076,0.009634,232.180466,165.457428,-97.048843,,,,,,
1465828092.85,-3.085006,-0.097158,0.292876,-0.019309,-1.420003,0.028388,-0.056290,0.097005,0.993691,0.136780,-0.049855,0.007484,232.180466,165.457428,-97.048843,,,,,,
1465828092.86,-3.101922,-0.096269,0.292364,-0.021527,-1.490095,0.028826,-0.039477,0.096121,0.994587,0.132327,-0.046758,0.001736,232.180466,165.457428,-97.048843,,,,,,
1465828092.87,-3.116978,-0.096058,0.292051,-0.022602,-1.496469,0.029929,-0.024499,0.095911,0.995088,0.114465,-0.046777,0.010267,232.180466,165.457428,-97.048843,,,,,,
1465828092.88,-3.131757,-0.095848,0.291748,-0.021500,-1.466739,0.029744,-0.009790,0.095702,0.995362,0.098947,-0.046050,0.012679,226.099701,165.325089,-110.675003,,,,,,
1465828092.89,3.137092,-0.095645,0.291462,-0.020373,-1.418955,0.028381,0.004480,0.095499,0.995419,0.098272,-0.047724,0.012637,226.099701,165.325089,-110.675003,,,,,,
1465828092.90,3.122969,-0.095341,0.291176,-0.018184,-1.374356,0.025974,0.018538,0.095196,0.995286,0.085848,-0.047711,0.013747,226.099701,165.325089,-110.675003,,,,,,
1465828092.91,3.110091,-0.095153,0.290920,-0.016962,-1.249064,0.025190,0.031354,0.095010,0.994982,0.056246,-0.045770,0.021985,222.885864,165.242004,-117.129776,,,,,,
1465828092.92,3.098830,-0.094977,0.290697,-0.015680,-1.081291,0.020945,0.042557,0.094834,0.994583,0.044128,-0.044465,0.019943,222.885864,165.242004,-117.129776,,,,,,
1465828092.93,3.089400,-0.094851,0.290523,-0.011174,-0.889098,0.016551,0.051935,0.094709,0.994149,0.021735,-0.045514,0.024070,222.885864,165.242004,-117.129776,,,,,,
1465828092.94,3.082276,-0.094547,0.290383,-0.006598,-0.639571,0.012862,0.059017,0.094407,0.993783,0.011677,-0.044068,0.028434,217.220856,165.125244,-127.480057,,,,,,
1465828092.95,3.077792,-0.094510,0.290289,-0.002016,-0.386855,0.008088,0.063472,0.094369,0.993512,0.008595,-0.046503,0.028003,217.220856,165.125244,-127.480057,,,,,,
1465828092.96,3.075741,-0.094516,0.290251,0.001495,-0.141569,0.002295,0.065510,0.094376,0.993379,0.009487,-0.044769,0.025695,217.220856,165.125244,-127.480057,,,,,,
1465828092.97,3.075619,-0.091672,0.290211,0.008201,0.110080,-0.002473,0.065649,0.091544,0.993635,0.012033,-0.043906,0.025973,215.771332,165.112823,-129.934265,,,,,,
1465828092.98,3.077713,-0.089261,0.290200,0.012764,0.347928,-0.008220,0.063582,0.089142,0.993987,0.016786,-0.040558,0.023255,215.771332,165.112823,-129.934265,,,,,,
1465828092.99,3.081913,-0.087350,0.290205,0.014117,0.578334,-0.010730,0.059417,0.087239,0.994414,0.024018,-0.037053,0.021776,215.771332,165.112823,-129.934265,,,,,,
1465828093.00,3.088489,-0.086541,0.290290,0.018636,0.779022,-0.017307,0.052880,0.086433,0.994853,0.033180,-0.036918,0.020436,216.390472,165.919708,-127.860214,,,,,,
1465828093.01,3.097316,-0.086567,0.290438,0.023104,0.945721,-0.018348,0.044097,0.086458,0.995279,0.055116,-0.038271,0.018637,216.390472,165.919708,-127.860214,,,,,,
1465828093.02,3.107304,-0.086718,0.290614,0.025354,1.038102,-0.021054,0.034153,0.086609,0.995657,0.083233,-0.038117,0.011515,216.390472,165.919708,-127.860214,,,,,,
1465828093.03,3.117816,-0.086848,0.290807,0.026493,1.096501,-0.022484,0.023685,0.086739,0.995950,0.096509,-0.039711,0.005164,218.298660,166.061630,-124.385063,,,,,,
1465828093.04,3.128765,-0.086998,0.291003,0.027612,1.137911,-0.023807,0.012779,0.086888,0.996136,0.117455,-0.038548,0.004261,218.298660,166.061630,-124.385063,,,,,,
1465828093.05,3.138217,-0.086827,0.291085,0.027558,1.097548,-0.022489,0.003363,0.086718,0.996227,0.140619,-0.037005,-0.005779,218.298660,166.061630,-124.385063,,,,,,
1465828093.06,-3.136621,-0.086474,0.291114,0.025362,1.046565,-0.021107,-0.004953,0.086367,0.996251,0.137414,-0.037325,-0.004811,223.088593,166.175705,-115.410271,,,,,,
1465828093.07,-3.126321,-0.086710,0.291327,0.024264,1.020021,-0.020942,-0.015214,0.086601,0.996127,0.140412,-0.039451,-0.001254,223.088593,166.175705,-115.410271,,,,,,
1465828093.08,-3.116701,-0.086942,0.291533,0.023090,0.935074,-0.019346,-0.024795,0.086833,0.995914,0.156158,-0.041133,-0.008716,223.088593,166.175705,-115.410271,,,,,,
1465828093.09,-3.108204,-0.087146,0.291707,0.020810,0.818271,-0.016487,-0.033256,0.087035,0.995650,0.168571,-0.038314,-0.013686,225.159012,166.243195,-111.216164,,,,,,
1465828093.10,-3.103285,-0.086850,0.291662,0.017446,0.685529,-0.014593,-0.038153,0.086741,0.995500,0.180030,-0.039286,-0.016542,225.159012,166.243195,-111.216164,,,,,,
1465828093.11,-3.097581,-0.086986,0.291791,0.012989,0.530503,-0.011496,-0.043832,0.086876,0.995254,0.177621,-0.040200,-0.021057,225.159012,166.243195,-111.216164,,,,,,
1465828093.12,-3.093371,-0.087110,0.291884,0.011739,0.386092,-0.008463,-0.048020,0.087000,0.995050,0.172212,-0.039057,-0.018183,228.183105,166.314621,-104.758469,,,,,,
1465828093.13,-3.090449,-0.087207,0.291952,0.010510,0.258671,-0.005536,-0.050928,0.087097,0.994897,0.167764,-0.040191,-0.015054,228.183105,166.314621,-104.758469,,,,,,
1465828093.14,-3.097193,-0.085405,0.291262,0.009275,0.132253,-0.001549,-0.044223,0.085301,0.995373,0.152881,-0.037327,-0.016522,228.183105,166.314621,-104.758469,,,,,,
1465828093.15,-3.096761,-0.085469,0.291285,0.005934,0.013335,-0.001871,-0.044653,0.085365,0.995349,0.148444,-0.037315,-0.011431,228.898239,166.325012,-103.169754,,,,,,
1465828093.16,-3.097451,-0.085517,0.291280,0.004733,-0.091788,0.000916,-0.043966,0.085412,0.995375,0.136389,-0.035150,-0.016737,228.898239,166.325012,-103.169754,,,,,,
1465828093.17,-3.098763,-0.085548,0.291264,0.003601,-0.143819,0.002305,-0.042660,0.085444,0.995429,0.126018,-0.037791,-0.007011,228.898239,166.325012,-103.169754,,,,,,
1465828093.18,-3.107116,-0.083744,0.290687,0.000313,-0.213942,0.003807,-0.034349,0.083646,0.995903,0.118196,-0.036176,-0.009484,228.140762,166.362122,-104.775230,,,,,,
1465828093.19,-3.115607,-0.082119,0.290148,-0.001914,-0.285126,0.006381,-0.025895,0.082027,0.996294,0.111833,-0.033382,-0.008394,228.140762,166.362122,-104.775230,,,,,,
1465828093.20,-3.124230,-0.080646,0.289652,-0.001998,-0.348869,0.006781,-0.017305,0.080559,0.996600,0.105516,-0.031594,-0.007372,226.524033,166.504913,-108.006454,,,,,,
1465828093.21,-3.133136,-0.079251,0.289182,-0.002099,-0.425354,0.008325,-0.008430,0.079168,0.996826,0.100562,-0.031453,-0.010650,226.524033,166.504913,-108.006454,,,,,,
1465828093.22,3.141040,-0.078066,0.288758,-0.004315,-0.491212,0.008737,0.000551,0.077987,0.996954,0.091536,-0.027617,-0.009772,226.524033,166.504913,-108.006454,,,,,,
1465828093.23,3.131995,-0.076946,0.288369,-0.005452,-0.543271,0.011191,0.009569,0.076870,0.996995,0.082457,-0.026272,-0.005082,224.761017,166.615494,-111.463791,,,,,,
1465828093.24,3.123304,-0.075864,0.288037,-0.003362,-0.573022,0.011380,0.018235,0.075791,0.996957,0.069106,-0.026673,-0.004571,224.761017,166.615494,-111.463791,,,,,,
1465828093.25,3.115023,-0.074822,0.287738,-0.005503,-0.580470,0.011425,0.026492,0.074753,0.996850,0.059857,-0.026550,0.000907,224.761017,166.615494,-111.463791,,,,,,
1465828093.26,3.106928,-0.073895,0.287456,-0.005507,-0.581547,0.011432,0.034564,0.073828,0.996672,0.054456,-0.023199,-0.000715,220.992676,166.793259,-118.510178,,,,,,
1465828093.28,3.091797,-0.072071,0.286958,-0.005492,-0.563526,0.013448,0.049646,0.072008,0.996168,0.039053,-0.022631,0.002123,220.992676,166.793259,-118.510178,,,,,,
1465828093.27,3.098994,-0.072886,0.287192,-0.006579,-0.585807,0.011457,0.042472,0.072821,0.996440,0.049065,-0.025580,-0.002254,220.992676,166.793259,-118.510178,,,,,,
1465828093.29,3.085125,-0.071343,0.286752,-0.002258,-0.533799,0.011135,0.056294,0.071283,0.995866,0.035503,-0.021661,0.004469,219.174210,166.888992,-121.709274,,,,,,
1465828093.31,3.072421,-0.069852,0.286388,-0.002195,-0.483906,0.008693,0.068948,0.069796,0.995176,0.034827,-0.021212,0.002734,219.174210,166.888992,-121.709274,,,,,,
1465828093.30,3.078611,-0.070573,0.286563,-0.003287,-0.507257,0.008839,0.062783,0.070514,0.995533,0.036170,-0.021930,0.001568,219.174210,166.888992,-121.709274,,,,,,
1465828093.32,3.066543,-0.069228,0.286208,-0.002167,-0.458434,0.009598,0.074799,0.069173,0.994797,0.033477,-0.018529,0.002228,216.038864,167.048874,-126.981483,,,,,,
1465828093.34,3.056170,-0.067885,0.285904,-0.002080,-0.388366,0.008094,0.085122,0.067833,0.994059,0.024466,-0.019432,0.002951,216.038864,167.048874,-126.981483,,,,,,
1465828093.33,3.061051,-0.068530,0.286044,-0.003195,-0.429770,0.008353,0.080266,0.068476,0.994419,0.031550,-0.020594,0.002835,216.038864,167.048874,-126.981483,,,,,,
1465828093.35,3.052199,-0.067260,0.285796,0.000131,-0.323597,0.006625,0.089073,0.067210,0.993755,0.015221,-0.019450,0.007496,214.659119,167.119568,-129.208847,,,,,,
1465828093.37,3.047621,-0.066147,0.285686,0.005681,-0.146272,0.002324,0.093628,0.066099,0.993411,-0.000107,-0.017592,0.011823,214.659119,167.119568,-129.208847,,,,,,
1465828093.36,3.049326,-0.066655,0.285721,0.001303,-0.238653,0.005029,0.091931,0.066606,0.993535,0.006870,-0.019670,0.010066,214.659119,167.119568,-129.208847,,,,,,
1465828093.38,3.046953,-0.065694,0.285675,0.003685,-0.042209,-0.000459,0.094294,0.065647,0.993378,0.000157,-0.016163,0.011459,-94.839531,239.091400,-142.176300,,,,,,
1465828093.39,3.047257,-0.065236,0.285684,0.004876,0.057603,-0.002149,0.093996,0.065190,0.993436,0.002196,-0.016743,0.011981,-94.839531,239.091400,-142.176300,,,,,,
1465828093.40,3.048454,-0.064847,0.285706,0.006051,0.146794,-0.002708,0.092808,0.064801,0.993573,0.004390,-0.015424,0.009586,-94.839531,239.091400,-142.176300,,,,,,
1465828093.41,3.050355,-0.064489,0.285735,0.010404,0.221120,-0.004234,0.090922,0.064444,0.993771,0.007726,-0.016028,0.006534,-94.870346,239.228546,-141.924805,,,,,,
1465828093.42,3.052596,-0.064100,0.285756,0.010485,0.282707,-0.006749,0.088697,0.064056,0.993997,0.020541,-0.018097,0.007483,-94.870346,239.228546,-141.924805,,,,,,
1465828093.43,3.054940,-0.063764,0.285763,0.012648,0.312428,-0.005869,0.086368,0.063721,0.994223,0.030514,-0.016983,0.001214,-94.870346,239.228546,-141.924805,,,,,,
1465828093.44,3.057078,-0.063474,0.285757,0.011586,0.315608,-0.005890,0.084244,0.063431,0.994424,0.042175,-0.015885,-0.001535,-93.766037,239.443100,-142.296402,,,,,,
1465828093.45,3.058943,-0.063251,0.285738,0.013698,0.300736,-0.006859,0.082391,0.063209,0.994594,0.049445,-0.013877,-0.003551,-93.766037,239.443100,-142.296402,,,,,,
1465828093.46,3.060594,-0.062982,0.285713,0.010480,0.284799,-0.005698,0.080750,0.062940,0.994745,0.051040,-0.014951,-0.006983,-93.766037,239.443100,-142.296402,,,,,,
1465828093.47,3.062032,-0.062756,0.285679,0.008318,0.261429,-0.004488,0.079321,0.062715,0.994874,0.050974,-0.012895,-0.005617,-93.179413,239.522003,-142.548737,,,,,,
1465828093.48,3.063161,-0.062510,0.285645,0.009349,0.233816,-0.005378,0.078198,0.062469,0.994979,0.053455,-0.014038,-0.004470,-93.179413,239.522003,-142.548737,,,,,,
1465828093.49,3.064146,-0.062284,0.285617,0.008254,0.210449,-0.005233,0.077219,0.062244,0.995069,0.049368,-0.013278,-0.006788,-93.179413,239.522003,-142.548737,,,,,,
1465828093.50,3.064970,-0.062032,0.285587,0.009288,0.188141,-0.004027,0.076401,0.061992,0.995148,0.047257,-0.014567,-0.004029,-92.388657,239.676407,-142.803665,,,,,,
1465828093.51,3.065575,-0.061788,0.285552,0.009251,0.161585,-0.002796,0.075799,0.061749,0.995209,0.045951,-0.014248,-0.006867,-92.388657,239.676407,-142.803665,,,,,,
1465828093.52,3.066047,-0.061561,0.285523,0.008159,0.139285,-0.003721,0.075331,0.061522,0.995259,0.041887,-0.013457,-0.006230,-92.388657,239.676407,-142.803665,,,,,,
1465828093.53,3.066272,-0.061285,0.285486,0.008127,0.115915,-0.002510,0.075108,0.061247,0.995293,0.042919,-0.015943,-0.003731,-92.159332,239.755783,-142.818573,,,,,,
1465828093.54,3.066343,-0.061047,0.285438,0.007029,0.092547,-0.001300,0.075038,0.061009,0.995313,0.039876,-0.013738,-0.004010,-92.159332,239.755783,-142.818573,,,,,,
1465828093.55,3.066217,-0.060850,0.285397,0.005936,0.070244,-0.001161,0.075165,0.060812,0.995315,0.038727,-0.011679,-0.004074,-92.159332,239.755783,-142.818573,,,,,,
1465828093.56,3.065866,-0.060682,0.285360,0.005908,0.045823,-0.003137,0.075515,0.060645,0.995299,0.038239,-0.010764,-0.004607,-92.012230,239.908432,-142.656998,,,,,,
1465828093.57,3.065315,-0.060475,0.285326,0.004808,0.021390,-0.000856,0.076065,0.060438,0.995270,0.036133,-0.011884,-0.004699,-92.012230,239.908432,-142.656998,,,,,,
1465828093.58,3.064539,-0.060264,0.285280,0.006906,-0.003038,-0.000700,0.076838,0.060228,0.995223,0.035619,-0.012285,-0.004424,-92.012230,239.908432,-142.656998,,,,,,
1465828093.59,3.063612,-0.060026,0.285233,0.004745,-0.025342,0.000502,0.077761,0.059990,0.995165,0.032651,-0.012871,-0.004641,-92.116493,239.970169,-142.485794,,,,,,
1465828093.60,3.062446,-0.059800,0.285179,0.005781,-0.047646,0.000643,0.078923,0.059765,0.995088,0.032909,-0.012935,-0.005372,-92.116493,239.970169,-142.485794,,,,,,
1465828093.61,3.061112,-0.059630,0.285120,0.004690,-0.067824,0.000769,0.080251,0.059595,0.994992,0.031261,-0.010370,-0.004010,-92.327675,240.044449,-142.223740,,,,,,
1465828093.62,3.059680,-0.059461,0.285071,0.004667,-0.085879,0.000882,0.081677,0.059426,0.994886,0.027591,-0.010186,-0.004117,-92.327675,240.044449,-142.223740,,,,,,
1465828093.63,3.058123,-0.059265,0.285021,0.004648,-0.099686,0.000969,0.083226,0.059231,0.994769,0.026485,-0.011730,-0.004321,-92.327675,240.044449,-142.223740,,,,,,
1465828093.64,3.056533,-0.059089,0.284982,0.003573,-0.107122,0.001015,0.084809,0.059055,0.994646,0.024185,-0.010059,-0.002290,-93.039345,240.174850,-141.538162,,,,,,
1465828093.65,3.054978,-0.058814,0.284940,0.006761,-0.111374,0.001045,0.086356,0.058781,0.994529,0.020150,-0.015903,0.000588,-93.039345,240.174850,-141.538162,,,,,,
1465828093.66,3.053364,-0.058724,0.284893,0.000353,-0.123059,0.003240,0.087962,0.058690,0.994393,0.018422,-0.004765,-0.002114,-93.039345,240.174850,-141.538162,,,,,,
1465828093.67,3.051825,-0.058643,0.284837,0.001431,-0.114565,0.002124,0.089494,0.058610,0.994261,0.016479,-0.005173,-0.004515,-93.454445,240.248535,-141.139114,,,,,,
1465828093.68,3.050334,-0.058455,0.284789,0.003558,-0.113509,0.003184,0.090976,0.058422,0.994138,0.015423,-0.009945,-0.000928,-93.454445,240.248535,-141.139114,,,,,,
1465828093.70,3.047428,-0.058004,0.284709,0.013157,-0.103953,-0.000060,0.093868,0.057971,0.993895,0.009846,-0.014545,-0.019195,-93.870026,240.282288,-140.805435,,,,,,
1465828093.69,3.048876,-0.058199,0.284738,-0.000720,-0.126253,0.004324,0.092427,0.058166,0.994019,0.013865,-0.013214,0.013061,-93.870026,240.282288,-140.805435,,,,,,
1465828093.71,3.046271,-0.057766,0.284684,0.001454,-0.097574,-0.001176,0.095019,0.057734,0.993800,0.011289,-0.012614,0.018667,-93.870026,240.282288,-140.805435,,,,,,
1465828093.72,3.045111,-0.057795,0.284664,0.003593,-0.086965,0.000889,0.096171,0.057763,0.993687,0.008596,-0.001229,-0.010991,-93.870026,240.282288,-140.805435,,,,,,
1465828093.73,3.044240,-0.057792,0.284631,0.001468,-0.082717,0.000860,0.097036,0.057760,0.993603,0.005625,-0.000875,0.008014,-93.870026,240.282288,-140.805435,,,,,,
1465828093.74,3.043257,-0.057784,0.284591,0.003618,-0.064672,0.001813,0.098013,0.057752,0.993508,0.011209,-0.001340,-0.015648,-94.864426,240.425400,-139.891724,,,,,,
1465828093.75,3.042442,-0.057635,0.284568,0.001486,-0.069975,-0.000284,0.098824,0.057603,0.993436,0.007972,-0.008028,0.008791,-94.864426,240.425400,-139.891724,,,,,,
1465828093.76,3.041677,-0.057236,0.284536,0.012150,-0.049817,0.002793,0.099586,0.057204,0.993383,0.010430,-0.023696,-0.001608,-95.096443,240.453751,-139.685333,,,,,,
1465828093.77,3.041064,-0.057079,0.284533,0.005780,-0.043429,-0.002575,0.100196,0.057048,0.993331,0.004846,-0.011180,0.007798,-95.096443,240.453751,-139.685333,,,,,,
1465828093.78,3.040570,-0.056857,0.284502,0.006844,-0.033889,0.002688,0.100687,0.056827,0.993294,0.013052,-0.014712,0.016014,-95.096443,240.453751,-139.685333,,,,,,
1465828093.79,3.040105,-0.057062,0.284492,0.004745,-0.015830,-0.000621,0.101149,0.057031,0.993235,0.007494,0.006751,-0.015849,-95.266930,240.539017,-139.422104,,,,,,
1465828093.80,3.039789,-0.056927,0.284463,0.000469,-0.023270,0.002615,0.101463,0.056897,0.993211,0.011467,-0.007565,0.013518,-95.266930,240.539017,-139.422104,,,,,,
1465828093.81,3.039624,-0.057036,0.284454,0.008729,0.015876,-0.000827,0.101627,0.057005,0.993188,0.005993,0.000506,-0.021463,-95.266930,240.539017,-139.422104,,,,,,
1465828093.82,3.039246,-0.056375,0.284438,-0.000903,-0.021284,-0.000604,0.102005,0.056346,0.993187,0.008316,-0.012538,-0.019676,-95.447037,240.551865,-139.276672,,,,,,
1465828093.83,3.039256,-0.056379,0.284433,0.011936,0.028614,-0.000904,0.101996,0.056350,0.993188,0.010034,-0.004058,0.019737,-95.447037,240.551865,-139.276672,,,,,,
1465828093.84,3.039233,-0.056207,0.284431,0.002326,0.009502,0.000271,0.102020,0.056178,0.993195,0.006409,-0.010722,-0.018128,-95.447037,240.551865,-139.276672,,,,,,
1465828093.85,3.039388,-0.056458,0.284428,0.007679,0.028617,-0.001973,0.101864,0.056428,0.993197,0.007007,0.007781,0.003630,-95.477005,240.650757,-139.085144,,,,,,
1465828093.86,3.039432,-0.055998,0.284425,0.004479,0.027553,-0.000905,0.101823,0.055968,0.993227,0.010436,-0.025191,0.007902,-95.477005,240.650757,-139.085144,,,,,,
1465828093.87,3.039564,-0.056117,0.284404,0.000220,0.028612,0.000149,0.101692,0.056088,0.993234,0.011360,0.002048,-0.010018,-95.459221,240.639542,-139.116791,,,,,,
1465828093.88,3.039785,-0.055769,0.284420,0.015145,0.040293,-0.003103,0.101474,0.055740,0.993275,0.008359,-0.023071,0.020518,-95.459221,240.639542,-139.116791,,,,,,
1465828093.89,3.039645,-0.055915,0.284413,0.000190,0.001012,-0.002871,0.101612,0.055886,0.993253,0.013256,0.004219,-0.015989,-95.459221,240.639542,-139.116791,,,,,,
1465828093.90,3.039801,-0.055958,0.284414,0.009813,0.038160,0.000099,0.101457,0.055929,0.993267,0.008849,-0.002767,0.000493,-95.459221,240.639542,-139.116791,,,,,,
1465828093.91,3.039597,-0.055860,0.284393,-0.001946,0.003122,0.001371,0.101660,0.055831,0.993251,0.014200,-0.004378,-0.003612,-95.406349,240.721222,-139.011688,,,,,,
1465828093.92,3.039691,-0.055778,0.284375,0.005538,0.026480,0.000168,0.101567,0.055749,0.993265,0.009654,-0.008294,0.001196,-95.406349,240.721222,-139.011688,,,,,,
1465828093.93,3.039460,-0.055377,0.284363,0.007640,0.004182,-0.000755,0.101799,0.055349,0.993264,0.014580,-0.024602,0.013343,-95.406860,240.730896,-138.994583,,,,,,
1465828093.94,3.039518,-0.055521,0.284368,0.003388,0.008434,-0.001850,0.101741,0.055493,0.993262,0.004552,0.002750,-0.010077,-95.406860,240.730896,-138.994583,,,,,,
1465828093.95,3.039228,-0.055369,0.284362,0.012945,-0.009625,-0.000663,0.102030,0.055341,0.993241,0.011359,-0.012357,0.013656,-95.406860,240.730896,-138.994583,,,,,,
1465828093.96,3.038829,-0.055678,0.284348,-0.003045,-0.024487,0.000479,0.102424,0.055649,0.993183,0.009194,0.013977,-0.026142,-95.406860,240.730896,-138.994583,,,,,,
1465828093.97,3.038448,-0.055564,0.284330,0.005480,-0.018122,0.000448,0.102803,0.055536,0.993150,0.010814,-0.007791,0.006331,-95.438393,240.806030,-138.842712,,,,,,
1465828093.98,3.037991,-0.055361,0.284317,-0.000924,-0.029799,0.000515,0.103258,0.055333,0.993114,0.009580,-0.010121,-0.000591,-95.438393,240.806030,-138.842712,,,,,,
1465828094.00,3.037118,-0.054847,0.284290,0.008660,-0.029800,-0.001604,0.104127,0.054820,0.993052,0.007903,-0.017405,0.007436,-95.543518,240.779785,-138.815918,,,,,,
1465828093.99,3.037561,-0.055115,0.284292,0.004397,-0.030865,0.000527,0.103687,0.055087,0.993083,0.008374,-0.017031,0.005345,-95.543518,240.779785,-138.815918,,,,,,
1465828094.01,3.036630,-0.054973,0.284273,0.006513,-0.040424,0.000589,0.104612,0.054946,0.992994,0.006961,0.001527,-0.006849,-95.543518,240.779785,-138.815918,,,,,,
1465828094.02,3.036093,-0.054967,0.284250,0.007572,-0.043613,0.001674,0.105145,0.054940,0.992938,0.004901,-0.003563,0.000714,-95.543518,240.779785,-138.815918,,,,,,
1465828094.03,3.035452,-0.055075,0.284235,-0.002019,-0.052101,0.000654,0.105780,0.055047,0.992865,0.005700,0.004752,-0.011511,-95.766792,240.871750,-138.502167,,,,,,
1465828094.04,3.034935,-0.054944,0.284219,0.004383,-0.040425,0.000587,0.106295,0.054917,0.992817,0.005720,-0.009842,0.004162,-95.766792,240.871750,-138.502167,,,,,,
1465828094.05,3.034472,-0.054698,0.284217,0.002245,-0.047853,-0.000433,0.106756,0.054671,0.992781,0.000772,-0.013869,0.000475,-95.923203,240.859711,-138.414810,,,,,,
1465828094.06,3.034145,-0.054620,0.284231,0.007642,-0.001117,-0.008172,0.107081,0.054593,0.992750,0.009786,-0.009580,0.031282,-95.923203,240.859711,-138.414810,,,,,,
1465828094.07,3.033613,-0.054586,0.284194,0.005444,-0.046789,-0.002565,0.107610,0.054559,0.992695,0.006999,-0.003381,-0.006947,-95.923203,240.859711,-138.414810,,,,,,
1465828094.08,3.033253,-0.054645,0.284168,0.000088,-0.057430,0.007076,0.107966,0.054618,0.992653,-0.005778,-0.001365,-0.015801,-96.154823,240.935226,-138.122391,,,,,,
1465828094.09,3.033161,-0.054411,0.284174,0.012949,0.009461,0.005605,0.108059,0.054384,0.992656,-0.002225,-0.015275,0.023320,-96.154823,240.935226,-138.122391,,,,,,
1465828094.10,3.032720,-0.054601,0.284167,-0.005201,-0.044660,-0.002589,0.108496,0.054574,0.992598,0.007074,0.008140,-0.022108,-96.154823,240.935226,-138.122391,,,,,,
1465828094.11,3.032274,-0.054357,0.284129,0.016085,-0.044680,0.000626,0.108940,0.054330,0.992562,0.003304,-0.020670,0.010978,-96.154823,240.935226,-138.122391,,,,,,
1465828094.12,3.032254,-0.054400,0.284147,0.009767,0.011599,0.000266,0.108960,0.054373,0.992558,-0.000378,-0.000464,0.007579,-96.317657,240.974304,-137.940659,,,,,,
1465828094.13,3.032257,-0.054580,0.284155,0.005496,-0.000076,-0.000729,0.108955,0.054553,0.992549,0.000664,0.005048,0.002660,-96.317657,240.974304,-137.940659,,,,,,
1465828094.14,3.031903,-0.054656,0.284142,-0.001999,-0.030870,0.001585,0.109307,0.054629,0.992506,0.000740,0.003736,-0.020414,-96.317657,240.974304,-137.940659,,,,,,
1465828094.15,3.031891,-0.054526,0.284135,0.001237,0.003106,0.001375,0.109319,0.054499,0.992512,0.000865,-0.009272,0.007778,-96.332100,240.939346,-137.991638,,,,,,
1465828094.16,3.031995,-0.054163,0.284135,0.010835,0.013725,-0.000810,0.109218,0.054136,0.992543,0.001226,-0.022184,0.026683,-96.332100,240.939346,-137.991638,,,,,,
1465828094.17,3.031810,-0.054019,0.284131,0.004384,-0.035115,-0.000510,0.109403,0.053993,0.992530,-0.001691,-0.013725,-0.005164,-96.376244,240.948959,-137.944000,,,,,,
1465828094.18,3.031639,-0.053814,0.284128,0.017204,-0.004320,-0.003884,0.109573,0.053788,0.992522,0.004868,-0.020463,0.018754,-96.376244,240.948959,-137.944000,,,,,,
1465828094.19,3.031581,-0.054165,0.284128,0.009762,0.005236,-0.002887,0.109629,0.054139,0.992497,0.003073,0.014816,-0.012669,-96.376244,240.948959,-137.944000,,,,,,
1465828094.20,3.031724,-0.054298,0.284121,0.012976,0.024341,-0.000875,0.109486,0.054271,0.992506,0.001964,0.000584,-0.007993,-96.376244,240.948959,-137.944000,,,,,,
1465828094.21,3.031980,-0.054204,0.284130,0.007649,0.022220,-0.000867,0.109233,0.054177,0.992539,0.001424,-0.010797,0.001388,-96.407814,241.002716,-137.828003,,,,,,
1465828094.22,3.032027,-0.054180,0.284131,0.009741,-0.007511,-0.000678,0.109186,0.054153,0.992545,-0.002664,-0.006088,0.001519,-96.407814,241.002716,-137.828003,,,,,,
1465828094.23,3.031899,-0.054047,0.284130,0.009750,0.000983,-0.000731,0.109314,0.054021,0.992538,0.005539,-0.012151,0.013123,-96.407814,241.002716,-137.828003,,,,,,
1465828094.24,3.031903,-0.054141,0.284130,0.005498,0.006293,-0.000769,0.109310,0.054115,0.992534,0.003026,0.000146,-0.009105,-96.361275,241.020050,-137.830231,,,,,,
1465828094.26,3.031327,-0.053878,0.284131,0.011849,-0.023438,-0.001640,0.109882,0.053852,0.992485,0.008022,-0.017292,0.006844,-96.361275,241.020050,-137.830231,,,,,,
1465828094.25,3.031752,-0.054100,0.284142,0.007598,-0.020247,-0.002729,0.109460,0.054074,0.992519,0.001716,-0.007123,0.001362,-96.361275,241.020050,-137.830231,,,,,,
1465828094.27,3.031308,-0.053592,0.284135,0.010819,0.004172,-0.002879,0.109903,0.053566,0.992498,0.002158,-0.023308,0.006449,-96.385910,241.011230,-137.828445,,,,,,
1465828094.28,3.030975,-0.053253,0.284115,0.021376,-0.061670,-0.000326,0.110236,0.053228,0.992479,-0.002524,-0.031225,0.020888,-96.385910,241.011230,-137.828445,,,,,,
1465828094.30,3.029364,-0.053224,0.284076,0.020264,-0.095650,0.000950,0.111835,0.053199,0.992302,-0.004825,0.000070,-0.007774,-96.431847,241.086761,-137.664078,,,,,,
1465828094.29,3.030198,-0.052987,0.284108,0.021351,-0.082900,-0.002322,0.111008,0.052962,0.992407,-0.000626,-0.026671,0.023416,-96.431847,241.086761,-137.664078,,,,,,
1465828094.32,3.028717,-0.053964,0.284057,0.024687,0.028587,-0.003018,0.112472,0.053938,0.992190,0.001923,-0.001997,0.001813,-96.431847,241.086761,-137.664078,,,,,,
1465828094.31,3.028565,-0.053761,0.284061,0.020336,-0.044675,-0.002563,0.112624,0.053735,0.992184,0.004823,0.018286,-0.022533,-96.431847,241.086761,-137.664078,,,,,,
1465828094.33,3.028787,-0.054281,0.284082,0.016108,-0.021313,-0.002713,0.112401,0.054254,0.992181,-0.007375,0.007818,-0.004327,-96.795563,241.067749,-137.441925,,,,,,
1465828094.34,3.028497,-0.054429,0.284076,0.016084,-0.035124,0.000566,0.112688,0.054402,0.992140,-0.006548,-0.000508,-0.005629,-96.795563,241.067749,-137.441925,,,,,,
1465828094.35,3.028501,-0.054722,0.284083,0.010835,0.020098,-0.001914,0.112682,0.054694,0.992125,0.001911,0.009377,-0.008833,-96.795563,241.067749,-137.441925,,,,,,
1465828094.36,3.028735,-0.055055,0.284094,0.009766,0.015851,-0.001889,0.112447,0.055027,0.992133,-0.000173,0.011822,-0.007056,-96.835938,240.924194,-137.665039,,,,,,
1465828094.37,3.028728,-0.055365,0.284102,0.004424,0.003106,0.000315,0.112452,0.055336,0.992115,-0.001811,0.014503,-0.016636,-96.835938,240.924194,-137.665039,,,,,,
1465828094.38,3.028956,-0.055692,0.284111,-0.001913,0.041336,-0.000996,0.112224,0.055663,0.992123,0.003636,0.017915,-0.013134,-96.835938,240.924194,-137.665039,,,,,,
1465828094.39,3.029484,-0.055922,0.284128,-0.004013,0.061514,-0.002189,0.111699,0.055893,0.992169,0.002330,0.014222,-0.016232,-96.835938,240.924194,-137.665039,,,,,,
1465828094.40,3.029873,-0.055813,0.284133,-0.006190,0.027532,0.000151,0.111313,0.055784,0.992218,0.000351,-0.002867,0.002960,-96.743866,240.743164,-138.045959,,,,,,
1465828094.41,3.029956,-0.055410,0.284137,-0.007295,-0.003260,0.000343,0.111234,0.055382,0.992250,-0.002362,-0.018654,0.005995,-96.743866,240.743164,-138.045959,,,,,,
1465828094.42,3.029859,-0.055044,0.284132,-0.004108,-0.007509,0.000373,0.111332,0.055016,0.992259,0.002819,-0.017983,0.008321,-96.667168,240.818115,-137.968918,,,,,,
1465828094.43,3.029700,-0.054743,0.284129,-0.000935,-0.021316,0.001527,0.111492,0.054715,0.992258,0.001118,-0.016553,0.011343,-96.667168,240.818115,-137.968918,,,,,,
1465828094.44,3.029347,-0.054636,0.284113,0.000109,-0.037244,0.001628,0.111843,0.054609,0.992224,-0.000378,-0.005857,0.000467,-96.667168,240.818115,-137.968918,,,,,,
1465828094.45,3.029007,-0.054529,0.284105,-0.003081,-0.034057,0.001605,0.112181,0.054502,0.992192,-0.000914,-0.005323,-0.000386,-96.682571,240.917404,-137.784653,,,,,,
1465828094.46,3.028623,-0.054374,0.284095,0.001162,-0.045739,0.001683,0.112563,0.054347,0.992157,-0.002501,-0.009288,0.001953,-96.682571,240.917404,-137.784653,,,,,,
1465828094.47,3.028164,-0.054151,0.284080,0.002215,-0.054233,0.001737,0.113020,0.054124,0.992117,-0.002531,-0.013047,0.007104,-96.682571,240.917404,-137.784653,,,,,,
1465828094.48,3.027657,-0.054070,0.284068,0.001156,-0.051044,0.000652,0.113523,0.054044,0.992064,-0.001935,-0.005628,0.001237,-96.866005,241.008759,-137.495758,,,,,,
1465828094.49,3.027270,-0.054024,0.284059,0.000100,-0.043610,0.000604,0.113907,0.053997,0.992023,-0.003601,-0.003033,0.000973,-96.866005,241.008759,-137.495758,,,,,,
1465828094.50,3.026866,-0.053956,0.284050,0.002215,-0.053170,0.001730,0.114308,0.053929,0.991980,-0.006337,-0.005208,0.002053,-96.866005,241.008759,-137.495758,,,,,,
1465828094.51,3.026395,-0.053834,0.284043,0.002220,-0.049981,0.000646,0.114777,0.053808,0.991933,-0.002899,-0.008275,0.005473,-96.980057,241.029205,-137.379440,,,,,,
1465828094.52,3.026081,-0.053823,0.284030,0.001169,-0.037241,0.001630,0.115088,0.053797,0.991898,-0.006247,-0.001627,-0.000626,-96.980057,241.029205,-137.379440,,,,,,
1465828094.53,3.025829,-0.053764,0.284024,-0.000957,-0.034054,0.001607,0.115338,0.053738,0.991872,-0.005918,-0.003613,-0.002797,-96.980057,241.029205,-137.379440,,,,,,
1465828094.54,3.025585,-0.053693,0.284028,0.001181,-0.030863,-0.000539,0.115581,0.053667,0.991847,-0.005443,-0.004839,0.002919,-97.162247,241.070251,-137.178558,,,,,,
1465828094.56,3.025562,-0.053471,0.284028,0.002268,-0.009629,0.000393,0.115605,0.053446,0.991856,-0.007786,-0.006861,0.005702,-97.162247,241.070251,-137.178558,,,,,,
1465828094.55,3.025524,-0.053558,0.284028,0.001200,-0.012815,0.000412,0.115642,0.053532,0.991847,-0.006618,-0.008534,0.003651,-97.162247,241.070251,-137.178558,,,,,,
1465828094.57,3.025578,-0.053305,0.284021,0.001204,-0.006445,0.001437,0.115591,0.053279,0.991867,-0.005514,-0.010952,0.005600,-97.199234,241.100403,-137.099365,,,,,,
1465828094.58,3.025610,-0.053179,0.284022,0.005464,-0.006444,0.000376,0.115560,0.053154,0.991877,-0.005727,-0.010460,0.006490,-97.183212,241.138260,-137.044159,,,,,,
1465828094.59,3.025699,-0.053164,0.284022,0.006539,-0.000070,-0.000727,0.115471,0.053139,0.991888,-0.005333,-0.004555,0.006067,-97.183212,241.138260,-137.044159,,,,,,
1465828094.60,3.025748,-0.053150,0.284022,0.006529,-0.005381,0.000371,0.115423,0.053125,0.991895,-0.006933,-0.004663,-0.003980,-97.183212,241.138260,-137.044159,,,,,,
1465828094.61,3.025897,-0.053137,0.284038,0.005488,0.010553,-0.001859,0.115275,0.053112,0.991913,-0.004953,-0.004680,0.003555,-97.162796,241.158920,-137.022263,,,,,,
1465828094.63,3.026210,-0.053135,0.284026,0.006540,0.004177,0.000311,0.114964,0.053110,0.991949,-0.005146,-0.004450,0.002146,-97.162796,241.158920,-137.022263,,,,,,
1465828094.62,3.026078,-0.053141,0.284037,0.007609,0.007362,0.000292,0.115095,0.053116,0.991933,-0.006071,-0.004059,-0.000738,-97.162796,241.158920,-137.022263,,,,,,
1465828094.64,3.026356,-0.053025,0.284033,0.009735,0.002059,-0.001801,0.114820,0.053001,0.991971,-0.005308,-0.011832,0.007128,-97.092819,241.162842,-137.064926,,,,,,
1465828094.66,3.026418,-0.052918,0.284043,0.008651,-0.011743,-0.001716,0.114759,0.052893,0.991984,-0.004637,-0.008765,0.007940,-97.092819,241.162842,-137.064926,,,,,,
1465828094.65,3.026401,-0.052972,0.284037,0.011855,-0.004312,-0.001759,0.114776,0.052947,0.991979,-0.004668,-0.009933,0.002894,-97.092819,241.162842,-137.064926,,,,,,
1465828094.67,3.026294,-0.052959,0.284042,0.009706,-0.017055,-0.000617,0.114882,0.052935,0.991968,-0.002685,-0.002504,-0.000726,-97.064903,241.186020,-137.043945,,,,,,
1465828094.68,3.026234,-0.052970,0.284047,0.009709,-0.015990,-0.001688,0.114941,0.052946,0.991960,-0.005032,-0.005064,0.004027,-97.064903,241.186020,-137.043945,,,,,,
1465828094.69,3.026136,-0.052982,0.284044,0.009712,-0.011745,-0.000650,0.115038,0.052957,0.991948,-0.002551,-0.004999,-0.002538,-97.064903,241.186020,-137.043945,,,,,,
1465828094.70,3.026086,-0.053075,0.284042,0.009717,-0.007497,-0.000677,0.115088,0.053050,0.991938,-0.002814,-0.000361,0.000204,-97.064903,241.186020,-137.043945,,,,,,
1465828094.71,3.026039,-0.053143,0.284035,0.008652,-0.007497,-0.000678,0.115134,0.053118,0.991929,-0.001319,-0.001086,0.000961,-97.103348,241.183929,-137.020340,,,,,,
1465828094.72,3.025976,-0.053204,0.284036,0.008640,-0.017052,-0.000618,0.115196,0.053178,0.991918,-0.004784,-0.001588,0.001734,-97.103348,241.183929,-137.020340,,,,,,
1465828094.73,3.025884,-0.053155,0.284043,0.008633,-0.022360,-0.000585,0.115287,0.053130,0.991910,-0.006660,-0.007857,0.006945,-97.118889,241.160919,-137.049850,,,,,,
1465828094.75,3.025576,-0.053137,0.284047,0.008625,-0.027668,-0.000551,0.115593,0.053112,0.991876,-0.005196,-0.006069,0.004584,-97.118889,241.160919,-137.049850,,,,,,
1465828094.74,3.025729,-0.053149,0.284047,0.009700,-0.020237,-0.000597,0.115441,0.053124,0.991893,-0.004082,-0.006265,-0.000911,-97.118889,241.160919,-137.049850,,,,,,
1465828094.76,3.025367,-0.053153,0.284043,0.010755,-0.026607,-0.000556,0.115801,0.053128,0.991851,-0.004549,-0.005491,0.000612,-97.184937,241.160919,-137.003006,,,,,,
1465828094.77,3.025226,-0.053165,0.284041,0.011829,-0.019174,-0.000601,0.115940,0.053140,0.991834,-0.004612,-0.005701,0.002154,-97.184937,241.160919,-137.003006,,,,,,
1465828094.78,3.025157,-0.053285,0.284043,0.010771,-0.013864,-0.000636,0.116008,0.053260,0.991819,-0.005016,-0.000159,-0.001005,-97.184937,241.160919,-137.003006,,,,,,
1465828094.79,3.025103,-0.053382,0.284047,0.007567,-0.021294,-0.000592,0.116061,0.053356,0.991808,-0.008303,0.000828,0.000792,-97.184937,241.160919,-137.003006,,,,,,
1465828094.80,3.024930,-0.053408,0.284046,0.009694,-0.023418,-0.000577,0.116232,0.053382,0.991786,-0.004523,-0.003990,0.000203,-97.256699,241.124847,-137.015594,,,,,,
1465828094.81,3.024818,-0.053411,0.284051,0.008326,-0.020383,-0.000610,0.116343,0.053386,0.991773,-0.005030,-0.005382,0.002764,-97.256699,241.124847,-137.015594,,,,,,
1465828094.82,3.024720,-0.053443,0.284057,0.011520,-0.021442,-0.001664,0.116441,0.053418,0.991760,-0.006577,-0.003751,0.001862,-97.297508,241.120148,-136.994888,,,,,,
1465828094.83,3.024539,-0.053419,0.284053,0.009367,-0.036312,0.000556,0.116620,0.053394,0.991740,-0.007489,-0.007023,0.007939,-97.297508,241.120148,-136.994888,,,,,,
1465828094.84,3.024299,-0.053429,0.284059,0.012578,-0.025689,-0.001637,0.116857,0.053404,0.991712,-0.003775,-0.006086,0.000628,-97.297508,241.120148,-136.994888,,,,,,
1465828094.85,3.024199,-0.053420,0.284062,0.011521,-0.019317,-0.001678,0.116957,0.053395,0.991701,-0.004866,-0.007191,0.007704,-97.336449,241.118790,-136.969604,,,,,,
1465828094.86,3.024088,-0.053478,0.284061,0.013636,-0.028876,-0.000551,0.117067,0.053453,0.991684,-0.009340,-0.004396,0.001968,-97.336449,241.118790,-136.969604,,,,,,
1465828094.87,3.023981,-0.053507,0.284066,0.016842,-0.020379,-0.001666,0.117173,0.053482,0.991670,-0.007142,-0.007385,0.003828,-97.336449,241.118790,-136.969604,,,,,,
1465828094.88,3.023927,-0.053411,0.284050,0.017909,-0.014014,0.000425,0.117227,0.053386,0.991669,-0.003915,-0.015971,0.012573,-97.336449,241.118790,-136.969604,,,,,,
1465828094.89,3.023801,-0.053224,0.284046,0.021076,-0.035248,-0.000503,0.117353,0.053199,0.991664,-0.008680,-0.022712,0.014973,-97.418579,241.104797,-136.935837,,,,,,
1465828094.90,3.023514,-0.052973,0.284037,0.029577,-0.047990,-0.001479,0.117639,0.052949,0.991644,-0.007944,-0.031510,0.025660,-97.418579,241.104797,-136.935837,,,,,,
1465828094.91,3.023244,-0.052928,0.284032,0.037029,-0.046930,-0.001478,0.117908,0.052903,0.991614,-0.009830,-0.022965,0.017388,-97.418579,241.104797,-136.935837,,,,,,
1465828094.92,3.022839,-0.052871,0.284030,0.041268,-0.064973,-0.004554,0.118310,0.052846,0.991570,-0.010674,-0.027166,0.021721,-97.494621,241.192917,-136.726349,,,,,,
1465828094.93,3.022377,-0.052889,0.284016,0.047650,-0.066039,-0.003476,0.118767,0.052865,0.991514,-0.010506,-0.025811,0.021990,-97.494621,241.192917,-136.726349,,,,,,
1465828094.94,3.021899,-0.053167,0.284017,0.046585,-0.067096,-0.004535,0.119239,0.053142,0.991442,-0.011848,-0.011317,0.012113,-97.494621,241.192917,-136.726349,,,,,,
1465828094.95,3.021546,-0.053547,0.284002,0.049800,-0.050108,-0.004638,0.119587,0.053522,0.991380,-0.009937,-0.006998,0.012480,-97.608139,241.199860,-136.633118,,,,,,
1465828094.96,3.021268,-0.054004,0.283976,0.046612,-0.041616,-0.002566,0.119860,0.053977,0.991322,-0.011385,-0.000785,-0.000874,-97.608139,241.199860,-136.633118,,,,,,
1465828094.97,3.021142,-0.054553,0.283942,0.043428,-0.031001,-0.000507,0.119980,0.054526,0.991278,-0.011887,0.004739,-0.001104,-97.608139,241.199860,-136.633118,,,,,,
1465828094.98,3.021052,-0.055166,0.283900,0.045576,-0.015077,0.000460,0.120067,0.055138,0.991234,-0.008021,0.008934,-0.005455,-97.806564,240.960541,-136.913193,,,,,,
1465828094.99,3.021226,-0.055706,0.283872,0.041342,0.001918,-0.000716,0.119889,0.055677,0.991225,-0.011461,0.006502,-0.004469,-97.806564,240.960541,-136.913193,,,,,,
1465828095.00,3.021468,-0.056284,0.283850,0.038165,0.014662,-0.000799,0.119646,0.056254,0.991222,-0.009294,0.009786,-0.007015,-97.806564,240.960541,-136.913193,,,,,,
1465828095.01,3.021937,-0.056902,0.283836,0.033939,0.038028,-0.002014,0.119177,0.056871,0.991243,-0.009406,0.014876,-0.008546,-97.811195,240.795731,-137.199554,,,,,,
1465828095.02,3.022557,-0.057581,0.283819,0.026509,0.056080,-0.001071,0.118558,0.057549,0.991278,-0.007138,0.022071,-0.015860,-97.811195,240.795731,-137.199554,,,,,,
1465828095.03,3.023306,-0.058303,0.283795,0.021208,0.073069,-0.000119,0.117811,0.058270,0.991325,-0.004239,0.027072,-0.024269,-97.811195,240.795731,-137.199554,,,,,,
1465828095.04,3.024170,-0.058946,0.283780,0.014839,0.085814,-0.000205,0.116950,0.058912,0.991389,-0.002692,0.027071,-0.021479,-97.580498,240.416809,-138.025864,,,,,,
1465828095.05,3.025070,-0.059030,0.283772,0.007390,0.091123,0.000819,0.116057,0.058996,0.991489,-0.001066,0.025919,-0.021671,-97.580498,240.416809,-138.025864,,,,,,
1465828095.06,3.026083,-0.059047,0.283779,0.001021,0.104933,-0.000339,0.115052,0.059013,0.991605,0.000609,0.028893,-0.026532,-97.580498,240.416809,-138.025864,,,,,,
1465828095.07,3.027218,-0.058999,0.283788,-0.007486,0.113432,-0.000401,0.113927,0.058965,0.991738,0.003230,0.025965,-0.022789,-97.351601,240.310532,-138.372116,,,,,,
1465828095.08,3.028191,-0.059270,0.283786,-0.009629,0.101749,0.000735,0.112960,0.059236,0.991832,0.003632,0.018752,-0.019847,-97.351601,240.310532,-138.372116,,,,,,
1465828095.09,3.029050,-0.059141,0.283787,-0.013917,0.080513,0.001928,0.112109,0.059107,0.991936,0.001523,0.009695,-0.008736,-97.351601,240.310532,-138.372116,,,,,,
1465828095.10,3.029759,-0.058984,0.283779,-0.016064,0.066710,0.002013,0.111407,0.058950,0.992025,0.005201,0.006861,-0.010198,-96.806755,240.292877,-138.784409,,,,,,
1465828095.11,3.030248,-0.058843,0.283776,-0.017140,0.056095,0.001014,0.110922,0.058809,0.992088,0.005563,0.001097,-0.003608,-96.806755,240.292877,-138.784409,,,,,,
1465828095.12,3.030495,-0.058563,0.283757,-0.015046,0.031666,0.003298,0.110680,0.058530,0.992131,0.001793,-0.005032,-0.000798,-96.806755,240.292877,-138.784409,,,,,,
1465828095.13,3.030447,-0.058301,0.283741,-0.016152,-0.002309,0.002446,0.110729,0.058268,0.992141,0.005101,-0.005122,-0.000930,-96.629700,240.338120,-138.829453,,,,,,
1465828095.14,3.030255,-0.058067,0.283717,-0.016183,-0.023551,0.004708,0.110920,0.058034,0.992133,0.000652,-0.003896,-0.002143,-96.629700,240.338120,-138.829453,,,,,,
1465828095.15,3.029892,-0.057698,0.283705,-0.016205,-0.041599,0.003756,0.111283,0.057666,0.992114,-0.001007,-0.010547,0.003949,-96.579117,240.421448,-138.720322,,,,,,
1465828095.16,3.029318,-0.057523,0.283690,-0.019435,-0.070265,0.003933,0.111853,0.057491,0.992060,-0.002997,0.000477,-0.003916,-96.579117,240.421448,-138.720322,,,,,,
1465828095.17,3.028486,-0.057297,0.283659,-0.015202,-0.089383,0.005122,0.112680,0.057266,0.991980,-0.003458,-0.003967,0.002847,-96.579117,240.421448,-138.720322,,,,,,
1465828095.18,3.027656,-0.056963,0.283637,-0.024786,-0.089377,0.005112,0.113506,0.056932,0.991905,-0.004772,-0.006212,0.002022,-96.803253,240.577148,-138.293488,,,,,,
1465828095.19,3.026747,-0.056587,0.283620,-0.015220,-0.105302,0.003093,0.114410,0.056557,0.991822,-0.005889,-0.011696,0.007460,-96.803253,240.577148,-138.293488,,,,,,
1465828095.20,3.025747,-0.056347,0.283597,-0.013109,-0.115927,0.005290,0.115403,0.056317,0.991721,-0.006562,-0.004376,0.001046,-96.803253,240.577148,-138.293488,,,,,,
1465828095.22,3.023914,-0.055977,0.283561,-0.016291,-0.107425,0.004169,0.117223,0.055948,0.991528,-0.011617,0.001136,0.003558,-97.014488,240.685440,-137.956619,,,,,,
1465828095.21,3.024799,-0.056117,0.283579,-0.016297,-0.112735,0.004203,0.116345,0.056088,0.991624,-0.011547,-0.003979,0.002105,-97.014488,240.685440,-137.956619,,,,,,
1465828095.23,3.022931,-0.056180,0.283541,-0.021626,-0.115921,0.006346,0.118196,0.056151,0.991401,-0.011812,0.021746,-0.015312,-97.014488,240.685440,-137.956619,,,,,,
1465828095.24,3.022086,-0.056407,0.283497,-0.024801,-0.097876,0.009422,0.119033,0.056377,0.991288,-0.011886,0.026234,-0.016038,-97.509163,240.752167,-137.490692,,,,,,
1465828095.25,3.021506,-0.055914,0.283448,-0.023690,-0.059651,0.009184,0.119611,0.055885,0.991247,-0.008160,-0.012916,0.010630,-97.509163,240.752167,-137.490692,,,,,,
1465828095.26,3.021435,-0.055427,0.283439,-0.021509,-0.025658,0.003651,0.119685,0.055399,0.991265,-0.013270,-0.015604,0.004920,-97.509163,240.752167,-137.490692,,,,,,
1465828095.27,3.021559,-0.054931,0.283449,-0.015104,-0.013974,0.001455,0.119565,0.054903,0.991307,-0.013272,-0.017534,0.015224,-97.674469,240.798950,-137.291290,,,,,,
1465828095.29,3.021857,-0.054161,0.283484,-0.014015,0.006206,0.000265,0.119274,0.054134,0.991384,-0.011685,-0.012905,0.009790,-97.674469,240.798950,-137.291290,,,,,,
1465828095.28,3.021593,-0.054529,0.283464,-0.019369,-0.016096,0.002529,0.119534,0.054502,0.991333,-0.012127,-0.011853,0.005829,-97.674469,240.798950,-137.291290,,,,,,
1465828095.30,3.022102,-0.053660,0.283510,-0.008711,-0.007598,0.000357,0.119035,0.053634,0.991440,-0.014574,-0.021591,0.019012,-97.674469,240.798950,-137.291290,,,,,,
1465828095.31,3.022169,-0.053195,0.283521,-0.007664,-0.019277,0.000432,0.118971,0.053170,0.991473,-0.011611,-0.022073,0.015088,-97.584717,241.055191,-136.904877,,,,,,
1465828095.32,3.022308,-0.052688,0.283534,0.004067,-0.003351,-0.000720,0.118836,0.052664,0.991516,-0.008607,-0.028402,0.026504,-97.584717,241.055191,-136.904877,,,,,,
1465828095.33,3.022559,-0.052452,0.283542,0.007265,0.000896,-0.000744,0.118589,0.052428,0.991558,-0.011335,-0.016006,0.015552,-97.523422,241.194641,-136.702805,,,,,,
1465828095.34,3.022782,-0.052069,0.283553,0.010443,-0.007601,0.000377,0.118371,0.052046,0.991605,-0.014428,-0.026899,0.012561,-97.523422,241.194641,-136.702805,,,,,,
1465828095.35,3.022775,-0.052129,0.283570,0.004023,-0.034138,-0.000527,0.118377,0.052106,0.991601,-0.013946,-0.002515,-0.019829,-97.523422,241.194641,-136.702805,,,,,,
1465828095.36,3.022984,-0.052014,0.283584,0.021107,0.004083,-0.001814,0.118171,0.051991,0.991631,-0.010368,-0.015995,0.025108,-97.422012,241.347641,-136.504913,,,,,,
1465828095.37,3.023103,-0.052149,0.283602,0.012586,-0.000156,-0.002860,0.118052,0.052125,0.991638,-0.009379,0.000899,0.000137,-97.422012,241.347641,-136.504913,,,,,,
1465828095.38,3.023328,-0.052466,0.283618,0.013654,-0.000152,-0.003924,0.117827,0.052442,0.991648,-0.011382,0.007114,-0.004100,-97.422012,241.347641,-136.504913,,,,,,
1465828095.39,3.023534,-0.052748,0.283630,0.012595,0.007276,-0.001843,0.117621,0.052723,0.991658,-0.010443,0.010692,0.000163,-97.385727,241.342194,-136.540482,,,,,,
1465828095.40,3.023605,-0.053516,0.283625,-0.006588,-0.006526,0.001417,0.117545,0.053490,0.991626,-0.009727,0.040199,-0.039783,-97.385727,241.342194,-136.540482,,,,,,
1465828095.41,3.024073,-0.053305,0.283627,0.009442,0.040190,0.000076,0.117083,0.053280,0.991692,-0.006487,-0.013775,0.021751,-97.385727,241.342194,-136.540482,,,,,,
1465828095.42,3.024545,-0.053058,0.283638,0.001987,0.038074,-0.000983,0.116617,0.053033,0.991760,-0.004846,-0.013650,0.016037,-97.292160,241.169907,-136.911057,,,,,,
1465828095.43,3.024909,-0.052829,0.283645,0.006214,0.014713,-0.000832,0.116256,0.052804,0.991815,-0.009506,-0.018426,0.002494,-97.292160,241.169907,-136.911057,,,,,,
1465828095.44,3.025092,-0.052734,0.283648,0.013651,0.003030,-0.000751,0.116076,0.052710,0.991841,-0.005312,-0.012946,0.006878,-97.292160,241.169907,-136.911057,,,,,,
1465828095.45,3.025313,-0.052765,0.283668,0.012597,0.010467,-0.001863,0.115857,0.052740,0.991865,-0.005017,-0.005621,0.003542,-97.168655,241.238617,-136.877701,,,,,,
1465828095.46,3.025376,-0.052765,0.283681,0.016845,0.000912,-0.002863,0.115794,0.052740,0.991872,-0.001292,-0.008673,0.016307,-97.168655,241.238617,-136.877701,,,,,,
1465828095.47,3.025324,-0.052885,0.283676,0.013633,-0.011830,-0.001722,0.115845,0.052861,0.991860,-0.003983,-0.000706,-0.005944,-97.168655,241.238617,-136.877701,,,,,,
1465828095.48,3.025484,-0.052744,0.283683,0.021142,0.031706,-0.004116,0.115687,0.052720,0.991886,0.001073,-0.019394,0.011502,-97.121063,241.227814,-136.930481,,,,,,
1465828095.49,3.025941,-0.053005,0.283724,0.020077,0.027466,-0.006220,0.115232,0.052980,0.991925,-0.004163,0.001951,0.002964,-97.121063,241.227814,-136.930481,,,,,,
1465828095.50,3.025688,-0.053413,0.283729,0.015710,-0.053240,-0.001460,0.115481,0.053388,0.991874,-0.008425,0.011492,-0.016105,-97.121063,241.227814,-136.930481,,,,,,
1465828095.51,3.025345,-0.053910,0.283716,0.008304,-0.016077,-0.000637,0.115818,0.053884,0.991808,-0.000370,0.022074,-0.018755,-97.051727,241.206329,-137.017517,,,,,,
1465828095.52,3.025650,-0.054503,0.283720,0.003041,0.030643,0.000129,0.115512,0.054476,0.991811,-0.004428,0.029065,-0.021779,-97.051727,241.206329,-137.017517,,,,,,
1465828095.53,3.025947,-0.054376,0.283726,0.008341,0.011532,-0.000810,0.115217,0.054349,0.991852,-0.006239,-0.009000,0.020355,-97.051727,241.206329,-137.017517,,,,,,
1465828095.54,3.025588,-0.054401,0.283724,-0.006672,-0.072345,0.000765,0.115573,0.054374,0.991810,-0.010516,0.001794,-0.008426,-97.089523,241.004028,-137.346329,,,,,,
1465828095.56,3.024906,-0.053987,0.283724,0.006941,-0.025847,-0.000589,0.116252,0.053960,0.991753,-0.004970,-0.013982,0.008095,-97.089523,241.004028,-137.346329,,,,,,
1465828095.55,3.025119,-0.054203,0.283711,0.007976,-0.049211,0.000623,0.116040,0.054176,0.991766,-0.004818,-0.014702,0.015787,-97.089523,241.004028,-137.346329,,,,,,
1465828095.57,3.024461,-0.053657,0.283729,0.010057,-0.087429,-0.001263,0.116696,0.053631,0.991719,-0.010906,-0.026470,0.024852,-97.194618,241.030792,-137.224960,,,,,,
1465828095.58,3.023578,-0.053382,0.283708,0.020665,-0.112922,0.001036,0.117573,0.053357,0.991630,-0.012989,-0.024502,0.017419,-97.273941,241.109924,-137.029602,,,,,,
1465828095.59,3.022947,-0.053249,0.283707,0.018599,-0.064071,-0.001401,0.118200,0.053224,0.991562,-0.008489,-0.018647,0.013351,-97.273941,241.109924,-137.029602,,,,,,
1465828095.60,3.022626,-0.053442,0.283714,0.023939,-0.052389,-0.002533,0.118517,0.053416,0.991514,-0.010653,-0.002727,0.005297,-97.273941,241.109924,-137.029602,,,,,,
1465828095.61,3.022149,-0.053746,0.283708,0.023902,-0.081059,-0.001289,0.118988,0.053720,0.991441,-0.015625,0.003806,-0.002077,-97.273941,241.109924,-137.029602,,,,,,
1465828095.62,3.021710,-0.054005,0.283708,0.019670,-0.059819,-0.001427,0.119421,0.053978,0.991375,-0.013968,0.002235,0.000828,-97.273941,241.109924,-137.029602,,,,,,
1465828095.63,3.021583,-0.054453,0.283703,0.017574,-0.031154,0.000520,0.119544,0.054427,0.991336,-0.014121,0.014940,0.000501,-97.587975,241.098404,-136.826416,,,,,,
1465828095.64,3.021415,-0.054665,0.283698,0.020780,-0.026898,-0.002697,0.119709,0.054638,0.991304,-0.012745,0.001591,-0.011843,-97.587975,241.098404,-136.826416,,,,,,
1465828095.65,3.021804,-0.054850,0.283719,0.014461,0.028320,-0.003050,0.119322,0.054823,0.991341,-0.008498,-0.000730,0.011528,-97.587975,241.098404,-136.826416,,,,,,
1465828095.66,3.022275,-0.055200,0.283721,0.022950,0.009197,0.000272,0.118854,0.055172,0.991378,-0.017734,0.009205,-0.001601,-97.669556,240.934540,-137.056686,,,,,,
1465828095.67,3.022322,-0.055505,0.283716,0.006970,-0.000348,-0.000749,0.118805,0.055477,0.991367,-0.007950,0.010884,-0.010440,-97.669556,240.934540,-137.056686,,,,,,
1465828095.68,3.022844,-0.055697,0.283719,0.017674,0.043185,-0.002076,0.118286,0.055668,0.991418,-0.007705,0.001125,0.002067,-97.616852,240.837875,-137.263962,,,,,,
1465828095.69,3.023398,-0.055914,0.283729,0.010220,0.043186,-0.001019,0.117735,0.055885,0.991471,-0.008070,0.006142,-0.001481,-97.616852,240.837875,-137.263962,,,,,,
1465828095.70,3.023921,-0.055986,0.283729,0.010203,0.031505,0.000119,0.117217,0.055957,0.991529,-0.009779,-0.002902,-0.001935,-97.616852,240.837875,-137.263962,,,,,,
1465828095.71,3.024355,-0.056074,0.283726,0.011100,0.037288,-0.000986,0.116786,0.056045,0.991575,-0.005442,-0.001006,0.001666,-97.483742,240.776428,-137.466202,,,,,,
1465828095.72,3.024857,-0.056222,0.283739,0.011101,0.036230,-0.002044,0.116286,0.056192,0.991625,-0.005874,0.001654,-0.000139,-97.483742,240.776428,-137.466202,,,,,,
1465828095.73,3.025193,-0.056308,0.283748,0.008948,0.019240,-0.000875,0.115952,0.056278,0.991659,-0.006501,-0.000828,0.002726,-97.483742,240.776428,-137.466202,,,,,,
1465828095.74,3.025359,-0.056395,0.283756,0.009992,0.002251,-0.000767,0.115787,0.056365,0.991673,-0.006443,-0.000701,-0.001790,-97.252502,240.716553,-137.734604,,,,,,
1465828095.75,3.025484,-0.056256,0.283752,0.017458,0.012869,-0.001891,0.115665,0.056226,0.991696,-0.001346,-0.017728,0.013172,-97.252502,240.716553,-137.734604,,,,,,
1465828095.76,3.025673,-0.056466,0.283753,0.013190,0.006497,-0.000791,0.115475,0.056436,0.991706,-0.004025,0.003745,-0.001365,-97.212135,240.723907,-137.750259,,,,,,
1465828095.77,3.025600,-0.056585,0.283748,0.012089,-0.020049,0.000439,0.115547,0.056555,0.991691,-0.005318,-0.001364,0.001290,-97.212135,240.723907,-137.750259,,,,,,
1465828095.78,3.025444,-0.056624,0.283759,0.014223,-0.021103,-0.002745,0.115702,0.056593,0.991670,-0.003962,-0.005415,0.001280,-97.212135,240.723907,-137.750259,,,,,,
1465828095.79,3.025245,-0.056664,0.283761,0.009946,-0.031724,-0.000554,0.115899,0.056634,0.991645,-0.004754,-0.004815,0.003167,-97.212135,240.723907,-137.750259,,,,,,
1465828095.80,3.024841,-0.057023,0.283738,0.008838,-0.061465,0.003889,0.116297,0.056992,0.991578,-0.011545,0.015594,-0.016129,-97.212135,240.723907,-137.750259,,,,,,
1465828095.81,3.024648,-0.056638,0.283749,0.017456,0.009692,-0.003999,0.116491,0.056608,0.991577,0.004709,-0.032789,0.020019,-97.258560,240.662781,-137.824249,,,,,,
1465828095.82,3.024751,-0.057079,0.283750,0.013166,-0.010491,0.000380,0.116386,0.057048,0.991564,-0.009391,0.017644,-0.023867,-97.258560,240.662781,-137.824249,,,,,,
1465828095.83,3.024547,-0.056831,0.283766,0.012057,-0.049765,-0.003632,0.116590,0.056801,0.991555,-0.006178,-0.026405,0.031791,-97.337112,240.667542,-137.760483,,,,,,
1465828095.84,3.024238,-0.057038,0.283762,0.028032,-0.040227,0.000582,0.116895,0.057007,0.991507,-0.008771,0.000977,-0.001456,-97.337112,240.667542,-137.760483,,,,,,
1465828095.85,3.023883,-0.057035,0.283773,0.009945,-0.034897,-0.003727,0.117247,0.057004,0.991465,-0.004012,-0.009778,0.000982,-97.337112,240.667542,-137.760483,,,,,,
1465828095.86,3.023759,-0.057171,0.283753,0.024822,-0.050841,0.000645,0.117369,0.057140,0.991443,-0.014113,-0.006221,0.013745,-97.459763,240.606720,-137.779984,,,,,,
1465828095.87,3.022982,-0.057793,0.283750,0.003293,-0.104520,0.000955,0.118135,0.057760,0.991316,-0.014863,0.032465,-0.020903,-97.459763,240.606720,-137.779984,,,,,,
1465828095.88,3.022651,-0.057636,0.283735,0.022568,-0.021696,-0.003802,0.118465,0.057604,0.991286,-0.003917,-0.021532,0.021531,-97.599602,240.496262,-137.873856,,,,,,
1465828095.89,3.023145,-0.057461,0.283763,0.032248,0.054755,-0.006401,0.117976,0.057429,0.991354,-0.003276,-0.024989,0.011056,-97.599602,240.496262,-137.873856,,,,,,
1465828095.90,3.023410,-0.057771,0.283792,0.012954,-0.039748,-0.000505,0.117711,0.057739,0.991368,-0.016103,0.005311,0.018718,-97.599602,240.496262,-137.873856,,,,,,
1465828095.91,3.022947,-0.058061,0.283778,0.029968,-0.054627,0.001734,0.118168,0.058029,0.991297,-0.013508,0.004425,-0.013590,-97.571022,240.544464,-137.809967,,,,,,
1465828095.92,3.022737,-0.058243,0.283777,0.014054,-0.015320,-0.002787,0.118375,0.058210,0.991261,-0.003842,0.000002,0.000209,-97.571022,240.544464,-137.809967,,,,,,
1465828095.93,3.022960,-0.058395,0.283763,0.026833,-0.007901,0.000373,0.118153,0.058362,0.991279,-0.010442,-0.006802,0.020852,-97.571022,240.544464,-137.809967,,,,,,
1465828095.95,3.022738,-0.058899,0.283742,0.015140,0.002731,-0.001834,0.118370,0.058865,0.991223,-0.007423,0.004108,-0.001981,-97.623161,240.405731,-138.014969,,,,,,
1465828095.94,3.022698,-0.058641,0.283756,0.018278,-0.038688,0.000558,0.118410,0.058608,0.991234,-0.012224,0.004838,-0.015526,-97.623161,240.405731,-138.014969,,,,,,
1465828095.96,3.023012,-0.059343,0.283749,0.015157,0.014411,-0.001908,0.118094,0.059308,0.991230,-0.006858,0.016146,-0.004551,-97.623161,240.405731,-138.014969,,,,,,
1465828095.98,3.023462,-0.059806,0.283753,0.010892,0.006986,-0.002930,0.117645,0.059770,0.991255,-0.009002,0.004179,-0.008284,-97.662964,240.332504,-138.114319,,,,,,
1465828095.97,3.023299,-0.059625,0.283748,0.011946,0.003790,0.000284,0.117808,0.059590,0.991247,-0.011195,0.009349,-0.002050,-97.662964,240.332504,-138.114319,,,,,,
1465828095.99,3.023744,-0.059936,0.283753,0.008766,0.012291,-0.000837,0.117365,0.059900,0.991281,-0.008173,0.001868,0.002112,-97.662964,240.332504,-138.114319,,,,,,
1465828096.00,3.023986,-0.060190,0.283753,0.006640,0.017596,0.001257,0.117123,0.060154,0.991294,-0.005231,0.010662,-0.010093,-97.662964,240.332504,-138.114319,,,,,,
1465828096.01,3.024199,-0.060379,0.283756,0.002387,0.019725,0.000174,0.116911,0.060342,0.991307,-0.004362,0.008261,-0.012029,-97.555786,240.177277,-138.459625,,,,,,
1465828096.02,3.024485,-0.060434,0.283764,0.003450,0.016542,-0.000869,0.116627,0.060397,0.991338,-0.003986,0.000882,0.007014,-97.555786,240.177277,-138.459625,,,,,,
1465828096.03,3.024660,-0.060456,0.283768,0.007535,0.007441,-0.001877,0.116453,0.060419,0.991357,-0.007215,-0.002161,-0.007333,-97.555786,240.177277,-138.459625,,,,,,
1465828096.04,3.024873,-0.060435,0.283780,0.000091,0.014877,-0.001932,0.116242,0.060398,0.991383,-0.005219,-0.002186,-0.002522,-97.447136,240.098587,-138.672455,,,,,,
1465828096.05,3.025005,-0.060467,0.283776,0.003257,-0.004242,0.000320,0.116111,0.060431,0.991396,-0.008704,-0.000296,-0.004488,-97.447136,240.098587,-138.672455,,,,,,
1465828096.06,3.025035,-0.060445,0.283777,0.001129,-0.003178,0.000312,0.116082,0.060408,0.991401,-0.004311,-0.001677,0.000191,-97.447136,240.098587,-138.672455,,,,,,
1465828096.07,3.024995,-0.060454,0.283770,-0.001008,-0.009548,0.000349,0.116121,0.060417,0.991396,-0.002413,0.000099,-0.002214,-97.447136,240.098587,-138.672455,,,,,,
1465828096.08,3.024905,-0.060506,0.283768,0.000053,-0.012733,0.000370,0.116210,0.060469,0.991382,-0.002029,0.003191,-0.002781,-97.401169,240.098694,-138.704575,,,,,,
1465828096.09,3.024745,-0.060500,0.283757,-0.004225,-0.026537,0.001517,0.116369,0.060463,0.991364,-0.005346,0.001793,-0.002961,-97.401169,240.098694,-138.704575,,,,,,
1465828096.10,3.024565,-0.060495,0.283751,-0.004220,-0.022290,0.001490,0.116547,0.060458,0.991343,-0.004365,0.002286,-0.005137,-97.401169,240.098694,-138.704575,,,,,,
1465828096.11,3.024402,-0.060427,0.283751,-0.007422,-0.028658,0.001527,0.116709,0.060390,0.991328,-0.007853,-0.000255,-0.001598,-97.434029,240.092834,-138.691620,,,,,,
1465828096.12,3.024193,-0.060327,0.283743,-0.005300,-0.032909,0.002620,0.116917,0.060290,0.991310,-0.006169,-0.002322,0.000481,-97.434029,240.092834,-138.691620,,,,,,
1465828096.13,3.023974,-0.060245,0.283738,-0.007427,-0.032904,0.001554,0.117135,0.060209,0.991289,-0.007958,-0.000822,-0.003435,-97.434029,240.092834,-138.691620,,,,,,
1465828096.14,3.023776,-0.060107,0.283731,-0.007422,-0.028656,0.001527,0.117332,0.060071,0.991274,-0.005088,-0.003827,0.002027,-97.529037,240.132385,-138.556305,,,,,,
1465828096.15,3.023598,-0.059971,0.283721,-0.006365,-0.032906,0.002619,0.117510,0.059935,0.991261,-0.008715,-0.003996,0.002849,-97.529037,240.132385,-138.556305,,,,,,
1465828096.16,3.023436,-0.059847,0.283733,-0.005300,-0.035023,0.000505,0.117671,0.059811,0.991250,-0.010951,-0.004056,0.002921,-97.529037,240.132385,-138.556305,,,,,,
1465828096.17,3.023249,-0.059732,0.283742,-0.003172,-0.036085,0.000513,0.117857,0.059697,0.991235,-0.010084,-0.004948,0.005744,-97.569199,240.174637,-138.454758,,,,,,
1465828096.18,3.023105,-0.059594,0.283734,-0.002104,-0.029719,0.002603,0.118000,0.059559,0.991226,-0.009922,-0.006260,0.004914,-97.569199,240.174637,-138.454758,,,,,,
1465828096.19,3.022960,-0.059491,0.283732,-0.003315,-0.030373,0.001538,0.118145,0.059456,0.991215,-0.010433,-0.004600,0.002727,-97.615753,240.208557,-138.363098,,,,,,
1465828096.20,3.022901,-0.059432,0.283731,-0.005431,-0.019753,0.001469,0.118204,0.059397,0.991211,-0.009425,-0.000956,0.002929,-97.615753,240.208557,-138.363098,,,,,,
1465828096.21,3.022891,-0.059419,0.283736,-0.004356,-0.013379,0.000366,0.118215,0.059384,0.991211,-0.008885,0.001788,-0.000809,-97.615753,240.208557,-138.363098,,,,,,
1465828096.22,3.022957,-0.059388,0.283735,-0.005411,-0.003824,0.001369,0.118149,0.059353,0.991220,-0.007142,0.001010,-0.001963,-97.655052,240.255585,-138.253632,,,,,,
1465828096.23,3.023075,-0.059286,0.283738,-0.006474,-0.002761,0.001361,0.118033,0.059252,0.991240,-0.008505,-0.001696,0.001863,-97.655052,240.255585,-138.253632,,,,,,
1465828096.24,3.023145,-0.059184,0.283748,-0.004349,-0.008067,0.000332,0.117964,0.059149,0.991255,-0.007811,-0.003226,0.005160,-97.655052,240.255585,-138.253632,,,,,,
1465828096.25,3.023226,-0.058998,0.283749,-0.003289,-0.009132,0.001404,0.117885,0.058964,0.991275,-0.009639,-0.008655,0.007306,-97.626396,240.275177,-138.239868,,,,,,
1465828096.26,3.023272,-0.058785,0.283745,-0.000099,-0.011256,0.001421,0.117841,0.058751,0.991293,-0.008573,-0.011784,0.008844,-97.626396,240.275177,-138.239868,,,,,,
1465828096.27,3.023262,-0.058635,0.283742,0.002028,-0.014438,0.000379,0.117852,0.058601,0.991301,-0.007409,-0.009117,0.007021,-97.626396,240.275177,-138.239868,,,,,,
1465828096.28,3.023370,-0.058528,0.283750,0.000981,0.000428,0.000284,0.117745,0.058495,0.991320,-0.007485,-0.007317,0.005766,-97.583038,240.371796,-138.102432,,,,,,
1465828096.29,3.023553,-0.058431,0.283764,0.003115,0.002555,-0.000791,0.117564,0.058398,0.991347,-0.008556,-0.006869,0.003908,-97.583038,240.371796,-138.102432,,,,,,
1465828096.30,3.023682,-0.058368,0.283777,0.002044,-0.001691,-0.000766,0.117437,0.058335,0.991365,-0.007787,-0.005128,0.005140,-97.583038,240.371796,-138.102432,,,,,,
1465828096.31,3.023809,-0.058322,0.283782,0.005237,-0.000633,0.000295,0.117312,0.058289,0.991383,-0.007434,-0.005081,0.004268,-97.583038,240.371796,-138.102432,,,,,,
1465828096.32,3.023929,-0.058324,0.283788,0.002045,0.001493,0.000279,0.117193,0.058291,0.991397,-0.006246,-0.001467,0.000180,-97.508575,240.415054,-138.079712,,,,,,
1465828096.33,3.023989,-0.058362,0.283789,0.003097,-0.009125,0.000346,0.117133,0.058329,0.991402,-0.007315,0.000814,0.001686,-97.508575,240.415054,-138.079712,,,,,,
1465828096.34,3.024080,-0.058387,0.283786,0.002040,-0.002753,0.000305,0.117043,0.058354,0.991411,-0.008186,0.000164,-0.000994,-97.486435,240.408478,-138.106796,,,,,,
1465828096.36,3.024208,-0.058375,0.283792,0.001885,-0.007663,0.000333,0.116916,0.058342,0.991427,-0.006457,-0.003914,0.001280,-97.486435,240.408478,-138.106796,,,,,,
1465828096.35,3.024154,-0.058418,0.283791,0.001892,-0.002355,0.000299,0.116969,0.058384,0.991418,-0.005855,0.000301,-0.000299,-97.486435,240.408478,-138.106796,,,,,,
1465828096.37,3.024207,-0.058363,0.283798,0.002947,-0.010846,-0.000711,0.116917,0.058330,0.991427,-0.006367,-0.001507,0.000943,-97.465759,240.400116,-138.135956,,,,,,
1465828096.39,3.023213,-0.059151,0.283727,-0.016339,-0.098987,0.008338,0.117897,0.059117,0.991265,-0.021736,0.064281,-0.052071,-97.465759,240.400116,-138.135956,,,,,,
1465828096.38,3.023961,-0.058172,0.283788,-0.014156,-0.057567,0.003823,0.117162,0.058140,0.991410,-0.007589,-0.006809,0.007339,-97.465759,240.400116,-138.135956,,,,,,
1465828096.40,3.023029,-0.059401,0.283663,-0.000211,0.020995,0.005472,0.118078,0.059367,0.991228,-0.004156,0.020345,-0.007921,-97.600784,240.296158,-138.221466,,,,,,
1465828096.42,3.023682,-0.059510,0.283659,0.017935,0.045428,-0.002114,0.117429,0.059475,0.991299,-0.009885,-0.022564,-0.024136,-97.600784,240.296158,-138.221466,,,,,,
1465828096.41,3.023343,-0.059413,0.283639,-0.009796,0.013576,0.002316,0.117766,0.059378,0.991265,0.003801,-0.054220,0.074226,-97.600784,240.296158,-138.221466,,,,,,
1465828096.43,3.023488,-0.059463,0.283650,-0.009866,-0.041638,0.002662,0.117622,0.059428,0.991279,-0.014747,-0.023967,0.040627,-97.568504,240.264297,-138.299606,,,,,,
1465828096.44,3.023582,-0.059420,0.283657,0.010428,0.005081,-0.000804,0.117529,0.059385,0.991292,-0.008947,-0.014112,0.002955,-97.568504,240.264297,-138.299606,,,,,,
1465828096.45,3.023618,-0.059499,0.283666,0.017885,0.006142,-0.001868,0.117493,0.059464,0.991292,-0.003281,-0.033356,0.023540,-97.568504,240.264297,-138.299606,,,,,,
1465828096.46,3.023809,-0.059666,0.283693,0.011528,0.026329,-0.005194,0.117303,0.059631,0.991304,-0.005273,-0.020401,0.016493,-97.539536,240.249344,-138.346008,,,,,,
1465828096.47,3.024166,-0.060182,0.283725,0.018961,0.008275,-0.005074,0.116944,0.060146,0.991315,-0.010194,0.015797,-0.017515,-97.539536,240.249344,-138.346008,,,,,,
1465828096.48,3.024090,-0.060299,0.283729,0.012550,-0.004472,-0.001807,0.117019,0.060262,0.991300,-0.003189,0.010173,-0.001431,-97.539536,240.249344,-138.346008,,,,,,
1465828096.49,3.024098,-0.060371,0.283723,0.004036,-0.000223,-0.000777,0.117011,0.060334,0.991296,-0.002875,0.004867,-0.012414,-97.497368,240.142807,-138.560532,,,,,,
1465828096.50,3.024229,-0.060461,0.283732,0.009376,0.011457,-0.001910,0.116880,0.060424,0.991306,-0.010496,0.004029,-0.010212,-97.497368,240.142807,-138.560532,,,,,,
1465828096.51,3.024058,-0.060766,0.283726,0.002937,-0.028891,-0.000599,0.117048,0.060729,0.991268,-0.002607,0.013810,-0.008617,-97.497368,240.142807,-138.560532,,,,,,
1465828096.52,3.023988,-0.060783,0.283721,0.000686,0.003120,0.000259,0.117117,0.060746,0.991259,0.001672,-0.007737,-0.013658,-97.529152,240.055695,-138.689056,,,,,,
1465828096.53,3.024685,-0.060978,0.283758,0.026371,0.097625,-0.006695,0.116425,0.060940,0.991328,0.006210,-0.068722,0.061711,-97.529152,240.055695,-138.689056,,,,,,
1465828096.54,3.025245,-0.061141,0.283804,0.010302,0.023301,-0.004116,0.115869,0.061103,0.991383,-0.025048,0.029092,-0.013310,-97.529152,240.055695,-138.689056,,,,,,
1465828096.55,3.024061,-0.061335,0.283759,0.007914,-0.172089,0.004558,0.117041,0.061296,0.991234,-0.007773,0.005522,-0.002266,-97.456001,240.021545,-138.799530,,,,,,
1465828096.56,3.022982,-0.061350,0.283753,-0.000467,-0.065899,0.001755,0.118110,0.061312,0.991106,-0.003944,0.020445,-0.020357,-97.456001,240.021545,-138.799530,,,,,,
1465828096.57,3.022981,-0.061373,0.283748,0.000689,0.005244,0.000245,0.118111,0.061334,0.991104,-0.010964,0.010153,-0.012512,-97.456001,240.021545,-138.799530,,,,,,
1465828096.58,3.022539,-0.061308,0.283739,-0.007912,-0.059524,0.001707,0.118549,0.061270,0.991056,-0.013325,0.013971,-0.008894,-97.701012,239.963425,-138.727768,,,,,,
1465828096.59,3.022085,-0.061096,0.283714,-0.007913,-0.056344,0.003816,0.119001,0.061058,0.991015,-0.008787,-0.007118,-0.011416,-97.701012,239.963425,-138.727768,,,,,,
1465828096.60,3.022052,-0.061034,0.283718,-0.004625,0.014801,0.001245,0.119034,0.060996,0.991015,-0.008758,-0.005942,0.010313,-97.701012,239.963425,-138.727768,,,,,,
1465828096.61,3.021972,-0.060991,0.283709,-0.005739,-0.026606,0.000439,0.119114,0.060953,0.991008,-0.014820,-0.014002,0.005773,-97.809006,240.007446,-138.575424,,,,,,
1465828096.62,3.021390,-0.060940,0.283682,-0.002593,-0.062711,0.001733,0.119690,0.060903,0.990942,-0.010651,-0.025258,0.014353,-97.809006,240.007446,-138.575424,,,,,,
1465828096.63,3.021421,-0.060261,0.283701,0.009200,-0.000061,-0.001841,0.119665,0.060225,0.990986,-0.007437,-0.033766,0.029507,-97.809006,240.007446,-138.575424,,,,,,
1465828096.64,3.021458,-0.060382,0.283706,0.012390,-0.003248,-0.001818,0.119628,0.060345,0.990983,-0.014464,-0.008709,0.012374,-97.873871,240.132919,-138.312012,,,,,,
1465828096.65,3.021059,-0.060474,0.283705,0.009145,-0.043595,-0.001568,0.120022,0.060437,0.990930,-0.011593,-0.008191,0.010749,-97.873871,240.132919,-138.312012,,,,,,
1465828096.66,3.020749,-0.060522,0.283694,0.002766,-0.029800,0.002596,0.120329,0.060485,0.990890,-0.019331,0.006852,-0.018432,-97.931015,240.100983,-138.326996,,,,,,
1465828096.67,3.021227,-0.059887,0.283732,0.030555,0.045600,-0.006364,0.119859,0.059852,0.990985,-0.004396,-0.038917,0.065915,-97.931015,240.100983,-138.326996,,,,,,
1465828096.68,3.021293,-0.059940,0.283761,0.003714,-0.003104,-0.002894,0.119794,0.059904,0.990990,-0.017545,0.030428,-0.039086,-97.931015,240.100983,-138.326996,,,,,,
1465828096.69,3.021172,-0.060122,0.283762,0.007956,-0.020089,-0.004912,0.119913,0.060086,0.990964,-0.004145,0.013568,-0.010313,-97.931015,240.100983,-138.326996,,,,,,
1465828096.70,3.021470,-0.060182,0.283770,0.020813,0.052092,-0.000030,0.119617,0.060146,0.990997,-0.013309,-0.016719,0.020753,-97.919281,240.148804,-138.252289,,,,,,
1465828096.71,3.021790,-0.060507,0.283794,-0.010121,0.002210,-0.001877,0.119297,0.060470,0.991015,-0.009205,0.010743,-0.025195,-97.919281,240.148804,-138.252289,,,,,,
1465828096.72,3.021886,-0.060602,0.283780,0.014366,0.005374,0.001321,0.119202,0.060564,0.991021,-0.015137,-0.000903,0.003058,-97.852547,240.088943,-138.403397,,,,,,
1465828096.73,3.021749,-0.060575,0.283785,-0.002685,-0.011597,-0.001783,0.119338,0.060538,0.991006,-0.005248,0.005899,-0.010889,-97.852547,240.088943,-138.403397,,,,,,
1465828096.74,3.021913,-0.060644,0.283775,0.002666,0.013877,0.000192,0.119174,0.060606,0.991022,-0.011691,0.006044,-0.002039,-97.852547,240.088943,-138.403397,,,,,,
1465828096.75,3.022000,-0.060618,0.283780,0.002639,-0.009478,-0.000726,0.119089,0.060581,0.991034,-0.007287,0.000119,0.005335,-97.852547,240.088943,-138.403397,,,,,,
1465828096.76,3.021947,-0.060568,0.283767,-0.006942,-0.003111,0.002418,0.119142,0.060531,0.991030,-0.011552,0.005006,-0.004397,-97.823273,240.073456,-138.450958,,,,,,
1465828096.77,3.021958,-0.060513,0.283760,-0.003735,0.005384,0.001303,0.119131,0.060476,0.991035,-0.006430,-0.000677,-0.004463,-97.823273,240.073456,-138.450958,,,,,,
1465828096.78,3.022022,-0.060444,0.283760,-0.006934,0.001139,0.001326,0.119068,0.060407,0.991047,-0.012928,0.004046,-0.009083,-97.821205,240.090668,-138.422577,,,,,,
1465828096.79,3.022136,-0.060374,0.283758,-0.006944,-0.005234,0.002431,0.118956,0.060338,0.991065,-0.006804,-0.000599,0.000009,-97.821205,240.090668,-138.422577,,,,,,
1465828096.80,3.022370,-0.060164,0.283760,-0.005866,0.004326,0.001307,0.118725,0.060128,0.991105,-0.008556,-0.005685,0.004333,-97.821205,240.090668,-138.422577,,,,,,
1465828096.81,3.022504,-0.059957,0.283772,-0.006948,-0.010535,0.000335,0.118594,0.059921,0.991133,-0.008364,-0.005951,0.003267,-97.821205,240.090668,-138.422577,,,,,,
,,,,,,,,,,,,,,,,29.719963,-95.399063,10.185123,-1.000000,-1.000000,1465829642.27
1465828096.82,3.022601,-0.059634,0.283761,-0.002703,-0.016912,0.002508,0.118500,0.059599,0.991164,-0.009766,-0.011823,0.009569,-97.732666,240.172592,-138.342957,,,,,,
1465828096.83,3.022458,-0.059415,0.283763,-0.006039,-0.027175,0.000441,0.118643,0.059380,0.991160,-0.005408,-0.007882,0.003500,-97.732666,240.172592,-138.342957,,,,,,
1465828096.84,3.022477,-0.059157,0.283777,-0.000719,-0.027179,0.001511,0.118626,0.059122,0.991177,-0.011463,-0.010416,0.005939,-97.732666,240.172592,-138.342957,,,,,,
1465828096.85,3.022320,-0.058980,0.283780,-0.001795,-0.035672,0.001563,0.118783,0.058945,0.991169,-0.008844,-0.007096,0.004665,-97.721344,240.254013,-138.209549,,,,,,
1465828096.86,3.022256,-0.058843,0.283785,-0.000726,-0.031423,0.001538,0.118848,0.058809,0.991169,-0.011166,-0.005922,0.003154,-97.721344,240.254013,-138.209549,,,,,,
1465828096.87,3.022106,-0.058781,0.283797,0.000343,-0.031417,-0.000590,0.118997,0.058748,0.991155,-0.008386,-0.002427,0.002100,-97.732239,240.317459,-138.091492,,,,,,
1465828096.88,3.022089,-0.058790,0.283813,-0.001785,-0.028232,0.000452,0.119014,0.058756,0.991153,-0.012034,0.000433,0.000638,-97.732239,240.317459,-138.091492,,,,,,
1465828096.89,3.022058,-0.058684,0.283825,-0.000719,-0.027169,0.000447,0.119045,0.058651,0.991155,-0.011593,-0.004497,0.001963,-97.732239,240.317459,-138.091492,,,,,,
1465828096.90,3.022112,-0.058569,0.283832,-0.000709,-0.018673,0.000393,0.118993,0.058535,0.991168,-0.011479,-0.004412,0.003613,-97.732239,240.317459,-138.091492,,,,,,
1465828096.91,3.022145,-0.058571,0.283842,-0.000705,-0.017607,-0.000678,0.118959,0.058538,0.991172,-0.010362,0.000346,-0.000999,-97.770966,240.357773,-137.993866,,,,,,
1465828096.92,3.022281,-0.058497,0.283857,0.000369,-0.008053,0.000328,0.118826,0.058464,0.991192,-0.010229,-0.003471,0.005252,-97.770966,240.357773,-137.993866,,,,,,
1465828096.93,3.022446,-0.058346,0.283863,-0.000693,-0.004865,0.000307,0.118662,0.058313,0.991221,-0.011729,-0.007013,0.003362,-97.759857,240.373230,-137.974823,,,,,,
1465828096.94,3.022617,-0.058212,0.283868,0.001440,-0.001680,0.000289,0.118494,0.058179,0.991249,-0.008738,-0.007413,0.005181,-97.759857,240.373230,-137.974823,,,,,,
1465828096.95,3.022818,-0.058112,0.283877,0.004636,0.000443,0.000279,0.118296,0.058079,0.991278,-0.008799,-0.006673,0.004464,-97.759857,240.373230,-137.974823,,,,,,
1465828096.96,3.023017,-0.058042,0.283893,0.005708,0.003635,-0.001869,0.118098,0.058010,0.991306,-0.007320,-0.005901,0.003338,-97.759857,240.373230,-137.974823,,,,,,
1465828096.97,3.023233,-0.057974,0.283914,0.005713,0.007883,-0.001896,0.117885,0.057941,0.991335,-0.007076,-0.006290,0.005598,-97.662674,240.438583,-137.929749,,,,,,
1465828096.98,3.023450,-0.058008,0.283924,0.005709,0.006819,-0.000825,0.117670,0.057976,0.991359,-0.007486,-0.001167,0.000996,-97.662674,240.438583,-137.929749,,,,,,
1465828096.99,3.023673,-0.058071,0.283929,0.006773,0.005758,-0.000817,0.117448,0.058038,0.991382,-0.007829,-0.000024,0.001264,-97.610535,240.456177,-137.936020,,,,,,
1465828097.00,3.023893,-0.058110,0.283937,0.007837,0.005759,-0.000816,0.117230,0.058077,0.991405,-0.007428,-0.001741,0.001377,-97.610535,240.456177,-137.936020,,,,,,
1465828097.01,3.024036,-0.058126,0.283946,0.006762,-0.002734,-0.000764,0.117088,0.058093,0.991421,-0.007607,-0.002597,0.001545,-97.610535,240.456177,-137.936020,,,,,,
1465828097.02,3.024150,-0.058084,0.283962,0.005526,-0.004415,-0.000754,0.116975,0.058051,0.991437,-0.007997,-0.004890,0.003772,-97.610535,240.456177,-137.936020,,,,,,
1465828097.03,3.024229,-0.058086,0.283962,0.004452,-0.009726,0.000343,0.116897,0.058053,0.991446,-0.008086,-0.002404,0.001688,-97.512009,240.430984,-138.049561,,,,,,
1465828097.04,3.024233,-0.058063,0.283966,0.006569,-0.021403,-0.000646,0.116893,0.058030,0.991448,-0.008571,-0.004319,0.004982,-97.512009,240.430984,-138.049561,,,,,,
1465828097.06,3.024153,-0.058158,0.283990,0.007637,-0.018216,-0.000665,0.116972,0.058125,0.991433,-0.006055,-0.001027,0.001273,-97.488060,240.435699,-138.058258,,,,,,
1465828097.05,3.024212,-0.058100,0.283980,0.007639,-0.017155,-0.000672,0.116914,0.058068,0.991443,-0.008958,-0.001503,0.001843,-97.488060,240.435699,-138.058258,,,,,,
1465828097.07,3.024101,-0.058243,0.284010,0.004443,-0.020334,-0.001719,0.117023,0.058211,0.991422,-0.008487,0.001406,-0.000257,-97.488060,240.435699,-138.058258,,,,,,
1465828097.08,3.024055,-0.058292,0.284024,0.007632,-0.022461,-0.000638,0.117068,0.058259,0.991414,-0.008853,-0.000764,0.000072,-97.488060,240.435699,-138.058258,,,,,,
1465828097.09,3.024033,-0.058307,0.284029,0.004442,-0.017152,0.000389,0.117089,0.058274,0.991410,-0.008523,-0.002015,0.002608,-97.522118,240.408371,-138.081802,,,,,,
