timestamp,attitude_roll,attitude_pitch,attitude_yaw,rotation_rate_x,rotation_rate_y,rotation_rate_z,gravity_x,gravity_y,gravity_z,user_acc_x,user_acc_y,user_acc_z,magnetic_field_x,magnetic_field_y,magnetic_field_z,latitude(degree),longitude(degree),altitude(meter),speed(m/s),course(degree),timestamp
1467746424.43,0.044197,-0.016408,0.020889,-0.001961,-0.056989,0.000226,0.044177,0.016407,-0.998889,-0.020022,-0.000004,0.004214,27.046637,13.302698,3.899656,,,,,,
1467746424.44,0.043914,-0.016406,0.020900,0.000215,-0.019827,-0.000005,0.043894,0.016405,-0.998901,-0.016870,0.000304,-0.000503,27.054436,13.301793,3.848306,,,,,,
1467746424.45,0.043907,-0.016403,0.020894,0.000246,0.004595,-0.000158,0.043887,0.016403,-0.998902,-0.010424,0.002442,-0.002014,27.054436,13.301793,3.848306,,,,,,
1467746424.46,0.044006,-0.016395,0.020897,0.000254,0.010966,-0.000198,0.043986,0.016395,-0.998898,-0.008600,0.000192,-0.010013,27.054436,13.301793,3.848306,,,,,,
1467746424.47,0.044195,-0.016398,0.020900,0.000270,0.023707,-0.000278,0.044175,0.016397,-0.998889,-0.006302,-0.000665,-0.006787,27.054436,13.301793,3.848306,,,,,,
,,,,,,,,,,,,,,,,29.719885,-95.399176,11.193141,-1.000000,-1.000000,1467746421.10
1467746424.48,0.044491,-0.016405,0.020901,0.000280,0.032201,-0.000331,0.044471,0.016404,-0.998876,-0.000785,0.000579,-0.004542,27.054586,13.301538,3.848122,,,,,,
,,,,,,,,,,,,,,,,29.719876,-95.399154,11.193141,-1.000000,-1.000000,1467746415.53
,,,,,,,,,,,,,,,,29.719885,-95.399176,11.193141,-1.000000,-1.000000,1467746421.10
1467746424.49,0.044722,-0.016364,0.020913,0.001330,0.022638,0.001859,0.044701,0.016363,-0.998866,-0.000466,-0.000708,-0.011830,27.054586,13.301538,3.848122,,,,,,
1467746424.50,0.045008,-0.016392,0.020916,0.001337,0.025830,-0.000290,0.044987,0.016391,-0.998853,0.001598,0.001370,-0.008288,27.052755,13.301261,3.861932,,,,,,
1467746424.51,0.045329,-0.016362,0.020912,0.001343,0.030078,-0.000316,0.045307,0.016362,-0.998839,0.000576,-0.000401,-0.008531,27.052755,13.301261,3.861932,,,,,,
1467746424.52,0.045626,-0.016378,0.020915,0.000270,0.023708,-0.000278,0.045604,0.016377,-0.998825,0.001775,0.000819,-0.010452,27.052755,13.301261,3.861932,,,,,,
1467746424.53,0.045940,-0.016347,0.020913,0.001335,0.023709,-0.000276,0.045918,0.016347,-0.998811,0.003292,-0.000416,-0.011839,27.050402,13.301283,3.878316,,,,,,
1467746424.54,0.046193,-0.016364,0.020917,0.000258,0.016276,0.000834,0.046170,0.016364,-0.998800,0.002872,0.001123,-0.012065,27.050402,13.301283,3.878316,,,,,,
1467746424.55,0.046320,-0.016353,0.020938,-0.001894,-0.000713,0.002002,0.046298,0.016352,-0.998794,0.003629,-0.000468,-0.013871,27.050402,13.301283,3.878316,,,,,,
1467746424.56,0.046334,-0.016355,0.020956,0.002348,-0.015575,0.001035,0.046311,0.016355,-0.998793,0.005950,0.000628,-0.013246,27.046894,13.300599,3.905022,,,,,,
1467746424.57,0.046205,-0.016389,0.020964,-0.001933,-0.032558,0.001138,0.046182,0.016389,-0.998799,0.006934,0.001373,-0.011516,27.046894,13.300599,3.905022,,,,,,
1467746424.58,0.045828,-0.016396,0.020982,-0.001943,-0.038932,0.002242,0.045806,0.016395,-0.998816,0.000901,-0.000236,-0.014536,27.046894,13.300599,3.905022,,,,,,
1467746424.59,0.045486,-0.016383,0.020996,-0.001942,-0.041051,0.001191,0.045464,0.016382,-0.998832,0.003288,-0.001139,-0.008721,27.047668,13.299797,3.902387,,,,,,
1467746424.60,0.045050,-0.016349,0.021007,-0.001970,-0.065467,0.000280,0.045029,0.016348,-0.998852,0.007186,-0.001883,-0.016956,27.047668,13.299797,3.902387,,,,,,
1467746424.61,0.044397,-0.016422,0.021036,-0.004130,-0.085642,0.002533,0.044376,0.016421,-0.998880,0.008724,0.002454,-0.015631,27.047668,13.299797,3.902387,,,,,,
1467746424.62,0.043562,-0.016431,0.021056,-0.003090,-0.107934,0.001610,0.043543,0.016430,-0.998916,0.009131,-0.000881,-0.014527,27.055616,13.297768,3.853920,,,,,,
1467746424.63,0.042475,-0.016447,0.021082,-0.004177,-0.123861,0.002773,0.042457,0.016446,-0.998963,0.006631,-0.000592,-0.014709,27.055616,13.297768,3.853920,,,,,,
1467746424.64,0.041247,-0.016481,0.021112,-0.004185,-0.130231,0.002813,0.041230,0.016480,-0.999014,0.004303,-0.000107,-0.013453,27.055616,13.297768,3.853920,,,,,,
1467746424.65,0.039891,-0.016542,0.021138,-0.005264,-0.141909,0.002885,0.039875,0.016541,-0.999068,0.003415,0.000763,-0.011766,27.063568,13.296453,3.802265,,,,,,
1467746424.66,0.038384,-0.016579,0.021169,-0.004211,-0.151466,0.002946,0.038369,0.016578,-0.999126,0.001731,-0.000175,-0.014439,27.063568,13.296453,3.802265,,,,,,
1467746424.67,0.036924,-0.016650,0.021201,-0.005277,-0.151465,0.002945,0.036911,0.016650,-0.999180,0.003571,0.001447,-0.010250,27.063568,13.296453,3.802265,,,,,,
,,,,,,,,,,,,,,,,29.719893,-95.399195,11.193141,-1.000000,-1.000000,1467746424.67
,,,,,,,,,,,,,,,,29.719899,-95.399209,11.193141,-1.000000,-1.000000,1467746424.68
,,,,,,,,,,,,,,,,29.719905,-95.399223,11.193141,-1.000000,-1.000000,1467746424.69
,,,,,,,,,,,,,,,,29.719910,-95.399237,11.193141,-1.000000,-1.000000,1467746424.70
1467746424.69,0.033567,-0.016734,0.021262,-0.005299,-0.171635,0.002007,0.033556,0.016734,-0.999297,0.001448,0.000356,-0.011323,27.085749,13.292672,3.654677,,,,,,
1467746424.68,0.035320,-0.016678,0.021229,-0.005300,-0.170576,0.003065,0.035307,0.016677,-0.999237,0.005006,-0.001159,-0.013916,27.085749,13.292672,3.654677,,,,,,
1467746424.70,0.031831,-0.016769,0.021291,-0.006346,-0.155713,0.002970,0.031821,0.016769,-0.999353,-0.004538,-0.000716,-0.005576,27.085749,13.292672,3.654677,,,,,,
1467746424.71,0.030163,-0.016806,0.021317,-0.002066,-0.138732,0.002868,0.030154,0.016805,-0.999404,-0.009097,0.000590,-0.006425,27.098640,13.290799,3.564831,,,,,,
1467746424.72,0.028718,-0.016897,0.021325,-0.003101,-0.116435,0.001663,0.028710,0.016896,-0.999445,-0.009240,0.002513,-0.003363,27.098640,13.290799,3.564831,,,,,,
1467746424.73,0.027486,-0.016947,0.021350,-0.002029,-0.107947,0.002675,0.027478,0.016946,-0.999479,-0.005277,0.001486,-0.005892,27.098640,13.290799,3.564831,,,,,,
1467746424.74,0.026323,-0.017001,0.021367,-0.003100,-0.114315,0.001649,0.026316,0.017000,-0.999509,0.000005,0.000975,-0.010623,27.120922,13.287821,3.402805,,,,,,
1467746424.75,0.025115,-0.017042,0.021385,-0.005233,-0.117500,0.001667,0.025108,0.017041,-0.999539,-0.000114,-0.000134,-0.010226,27.120922,13.287821,3.402805,,,,,,
1467746424.76,0.023870,-0.017071,0.021402,-0.004176,-0.123872,0.001708,0.023864,0.017070,-0.999569,0.000733,-0.000164,-0.011188,27.120922,13.287821,3.402805,,,,,,
1467746424.77,0.022557,-0.017132,0.021420,-0.004184,-0.130243,0.001748,0.022552,0.017131,-0.999599,0.000260,0.001042,-0.009190,27.129337,13.286638,3.339740,,,,,,
1467746424.79,0.019919,-0.017236,0.021463,-0.004161,-0.111135,0.001628,0.019914,0.017235,-0.999653,-0.005007,0.001610,-0.006588,27.129337,13.286638,3.339740,,,,,,
1467746424.78,0.021209,-0.017168,0.021448,-0.004183,-0.128124,0.002799,0.021204,0.017167,-0.999628,-0.001215,-0.000672,-0.009314,27.129337,13.286638,3.339740,,,,,,
1467746424.80,0.018764,-0.017289,0.021489,-0.004159,-0.107954,0.002673,0.018760,0.017288,-0.999675,-0.003456,0.000397,-0.007558,27.147326,13.283978,3.201293,,,,,,
1467746424.81,0.017628,-0.017337,0.021501,-0.005227,-0.112199,0.001634,0.017625,0.017337,-0.999694,0.000335,-0.000064,-0.008301,27.147326,13.283978,3.201293,,,,,,
1467746424.82,0.016488,-0.017380,0.021521,-0.004147,-0.098401,0.002613,0.016485,0.017379,-0.999713,-0.004156,-0.000106,-0.007535,27.147326,13.283978,3.201293,,,,,,
1467746424.83,0.015476,-0.017420,0.021532,-0.000916,-0.070797,0.001378,0.015473,0.017419,-0.999729,-0.010209,0.001029,-0.003918,27.155062,13.282689,3.140452,,,,,,
1467746424.84,0.014715,-0.017441,0.021544,-0.000878,-0.038952,0.002243,0.014712,0.017440,-0.999740,-0.013644,0.000367,-0.001451,27.155062,13.282689,3.140452,,,,,,
1467746424.85,0.014312,-0.017478,0.021540,-0.000836,-0.008160,-0.000079,0.014309,0.017477,-0.999745,-0.012890,0.001108,0.000798,27.155062,13.282689,3.140452,,,,,,
1467746424.86,0.014117,-0.017482,0.021542,0.000230,-0.007101,-0.000085,0.014115,0.017481,-0.999748,-0.006851,-0.000116,-0.006173,27.165817,13.281262,3.052223,,,,,,
1467746424.87,0.014022,-0.017493,0.021540,-0.001895,-0.003916,-0.000107,0.014019,0.017492,-0.999749,-0.001568,0.000315,-0.009819,27.165817,13.281262,3.052223,,,,,,
1467746424.88,0.013973,-0.017524,0.021542,-0.001881,0.008821,0.000877,0.013971,0.017523,-0.999749,-0.005014,0.000696,-0.005515,27.165817,13.281262,3.052223,,,,,,
1467746424.89,0.014035,-0.017528,0.021548,0.000267,0.023682,0.000786,0.014032,0.017527,-0.999748,-0.007715,0.000418,-0.005852,27.166708,13.281205,3.044550,,,,,,
1467746424.90,0.014240,-0.017554,0.021557,0.001351,0.041726,0.001738,0.014238,0.017553,-0.999745,-0.008149,0.001841,-0.003139,27.166708,13.281205,3.044550,,,,,,
1467746424.91,0.014675,-0.017563,0.021561,0.001373,0.059774,0.001625,0.014672,0.017562,-0.999738,-0.006143,0.001771,-0.003695,27.166708,13.281205,3.044550,,,,,,
1467746424.92,0.015168,-0.017552,0.021565,0.002436,0.056589,0.000582,0.015165,0.017551,-0.999731,-0.005369,0.001186,-0.008127,27.164978,13.280453,3.063212,,,,,,
1467746424.93,0.015696,-0.017507,0.021555,0.001367,0.049164,-0.001502,0.015693,0.017506,-0.999724,0.000726,-0.001454,-0.010271,27.164978,13.280453,3.063212,,,,,,
1467746424.94,0.016165,-0.017475,0.021560,0.001365,0.051281,0.000614,0.016162,0.017474,-0.999717,-0.002093,-0.000506,-0.010034,27.164978,13.280453,3.063212,,,,,,
1467746424.95,0.016677,-0.017434,0.021553,0.002449,0.064023,-0.000529,0.016673,0.017433,-0.999709,-0.005260,-0.000969,-0.008348,27.161766,13.280764,3.090207,,,,,,
1467746424.96,0.017233,-0.017450,0.021534,0.001397,0.071459,-0.002706,0.017230,0.017449,-0.999699,-0.007449,0.002006,-0.008235,27.161766,13.280764,3.090207,,,,,,
1467746424.97,0.018022,-0.017452,0.021507,0.003572,0.109676,-0.001879,0.018018,0.017451,-0.999685,-0.010969,0.001714,-0.001230,27.161766,13.280764,3.090207,,,,,,
,,,,,,,,,,,,,,,,29.719967,-95.399074,10.801538,-1.000000,-1.000000,1467746424.94
1467746424.98,0.019152,-0.017432,0.021486,0.004680,0.146829,-0.001047,0.019148,0.017431,-0.999665,-0.016707,0.001383,0.001664,27.153879,13.282210,3.152665,,,,,,
1467746424.99,0.020490,-0.017374,0.021456,0.005752,0.148955,-0.003188,0.020485,0.017373,-0.999639,-0.008843,-0.000161,-0.006342,27.153879,13.282210,3.152665,,,,,,
1467746425.00,0.021938,-0.017390,0.021430,0.004701,0.162753,-0.002211,0.021933,0.017389,-0.999608,-0.009070,0.003439,-0.003611,27.153879,13.282210,3.152665,,,,,,
1467746425.02,0.025711,-0.017286,0.021387,0.007977,0.229635,-0.001563,0.025705,0.017285,-0.999520,-0.012018,0.004505,0.001611,27.145355,13.283817,3.218638,,,,,,
1467746425.01,0.023651,-0.017276,0.021413,0.006877,0.198850,-0.002436,0.023645,0.017275,-0.999571,-0.011133,-0.002916,-0.004274,27.145355,13.283817,3.218638,,,,,,
1467746425.03,0.027905,-0.017182,0.021355,0.007993,0.240252,-0.002694,0.027898,0.017181,-0.999463,-0.012013,-0.001434,-0.007358,27.145355,13.283817,3.218638,,,,,,
1467746425.04,0.030338,-0.017151,0.021312,0.006957,0.262551,-0.003900,0.030329,0.017150,-0.999393,-0.009745,0.002992,-0.001553,27.119474,13.287060,3.417295,,,,,,
1467746425.05,0.032937,-0.017002,0.021265,0.011248,0.286966,-0.004049,0.032926,0.017001,-0.999313,-0.013578,-0.002444,-0.005646,27.119474,13.287060,3.417295,,,,,,
1467746425.06,0.035832,-0.016937,0.021211,0.010221,0.317754,-0.004243,0.035819,0.016936,-0.999215,-0.014655,0.002245,0.001946,27.119474,13.287060,3.417295,,,,,,
1467746425.08,0.042391,-0.016817,0.021097,0.011339,0.360220,-0.005573,0.042372,0.016817,-0.998960,-0.011443,0.003264,0.000837,27.100811,13.289988,3.551310,,,,,,
1467746425.07,0.038960,-0.016865,0.021149,0.008130,0.348542,-0.004438,0.038944,0.016864,-0.999099,-0.016346,0.001401,-0.002351,27.100811,13.289988,3.551310,,,,,,
1467746425.09,0.045851,-0.016682,0.021041,0.012389,0.347477,-0.005492,0.045828,0.016681,-0.998810,-0.006369,-0.000812,-0.008316,27.100811,13.289988,3.551310,,,,,,
1467746425.10,0.049434,-0.016558,0.020992,0.009170,0.327310,-0.005369,0.049408,0.016557,-0.998641,0.008500,-0.001558,-0.015473,27.049894,13.296938,3.896701,,,,,,
1467746425.11,0.052701,-0.016445,0.020953,0.010199,0.301824,-0.003079,0.052670,0.016444,-0.998477,0.009754,-0.000758,-0.013883,27.049894,13.296938,3.896701,,,,,,
1467746425.12,0.055720,-0.016318,0.020910,0.008050,0.282681,-0.004017,0.055683,0.016318,-0.998315,0.007671,-0.001867,-0.015250,27.049894,13.296938,3.896701,,,,,,
1467746425.13,0.058459,-0.016218,0.020867,0.009090,0.262508,-0.003890,0.058418,0.016217,-0.998160,0.003517,-0.000119,-0.012475,27.021563,13.299953,4.078745,,,,,,
1467746425.14,0.061079,-0.016096,0.020824,0.009081,0.255076,-0.003843,0.061034,0.016095,-0.998006,0.002947,-0.001950,-0.014354,27.021563,13.299953,4.078745,,,,,,
1467746425.15,0.063738,-0.015986,0.020772,0.011200,0.244463,-0.004839,0.063687,0.015985,-0.997842,0.010013,-0.000406,-0.013175,27.021563,13.299953,4.078745,,,,,,
1467746425.16,0.065944,-0.015913,0.020742,0.006893,0.209420,-0.002494,0.065887,0.015912,-0.997700,0.013016,0.000445,-0.020183,26.972874,13.306088,4.370552,,,,,,
1467746425.17,0.067666,-0.015852,0.020710,0.006831,0.160577,-0.002188,0.067606,0.015851,-0.997586,0.009756,-0.000364,-0.018512,26.972874,13.306088,4.370552,,,,,,
1467746425.18,0.069097,-0.015817,0.020692,0.002543,0.137219,-0.002046,0.069033,0.015816,-0.997489,0.009672,0.000206,-0.015313,26.954784,13.308142,4.474664,,,,,,
1467746425.19,0.070372,-0.015805,0.020682,0.004638,0.111734,-0.000819,0.070305,0.015804,-0.997400,0.005485,0.001545,-0.017034,26.954784,13.308142,4.474664,,,,,,
1467746425.20,0.071357,-0.015775,0.020667,0.002491,0.095811,-0.001786,0.071287,0.015775,-0.997331,0.007540,-0.001538,-0.012526,26.954784,13.308142,4.474664,,,,,,
1467746425.21,0.072161,-0.015751,0.020659,0.001399,0.075634,-0.000596,0.072089,0.015751,-0.997274,0.004571,0.000485,-0.014430,26.942251,13.309019,4.546947,,,,,,
1467746425.22,0.072850,-0.015719,0.020649,-0.000743,0.063959,-0.001590,0.072777,0.015719,-0.997224,0.002693,-0.001070,-0.012968,26.942251,13.309019,4.546947,,,,,,
1467746425.23,0.073429,-0.015720,0.020642,0.002442,0.058645,-0.000489,0.073354,0.015719,-0.997182,-0.000249,0.001188,-0.010157,26.942251,13.309019,4.546947,,,,,,
1467746425.24,0.073965,-0.015687,0.020641,0.002434,0.053333,0.000609,0.073889,0.015686,-0.997143,0.000543,-0.000259,-0.012394,26.927776,13.310328,4.628132,,,,,,
1467746425.25,0.074453,-0.015667,0.020634,0.002441,0.055462,-0.001533,0.074375,0.015666,-0.997107,-0.002781,0.000050,-0.006875,26.927776,13.310328,4.628132,,,,,,
1467746425.26,0.074972,-0.015682,0.020636,0.002452,0.068195,0.000516,0.074892,0.015682,-0.997068,-0.006823,0.002247,-0.006716,26.927776,13.310328,4.628132,,,,,,
1467746425.27,0.075644,-0.015697,0.020620,0.003536,0.080940,-0.001692,0.075562,0.015696,-0.997018,-0.005708,0.002675,-0.004340,26.927776,13.310328,4.628132,,,,,,
1467746425.28,0.076442,-0.015717,0.020603,0.002491,0.098986,-0.000742,0.076358,0.015716,-0.996957,-0.007297,0.002686,-0.004157,26.917187,13.310994,4.687445,,,,,,
1467746425.29,0.077415,-0.015721,0.020590,0.002515,0.118096,-0.000862,0.077328,0.015720,-0.996882,-0.009152,0.001598,-0.003927,26.917187,13.310994,4.687445,,,,,,
1467746425.30,0.078541,-0.015729,0.020566,0.003600,0.132960,-0.002019,0.078450,0.015728,-0.996794,-0.009511,0.001804,-0.005632,26.908419,13.311735,4.735430,,,,,,
1467746425.31,0.079913,-0.015661,0.020539,0.005754,0.151011,-0.003194,0.079818,0.015661,-0.996686,-0.005981,-0.000814,-0.006411,26.908419,13.311735,4.735430,,,,,,
1467746425.32,0.081338,-0.015602,0.020521,0.005761,0.159497,-0.001118,0.081239,0.015602,-0.996573,-0.008286,-0.000297,-0.007502,26.908419,13.311735,4.735430,,,,,,
1467746425.33,0.082896,-0.015533,0.020496,0.005788,0.180730,-0.001252,0.082791,0.015533,-0.996446,-0.010754,-0.000335,-0.002959,26.895884,13.313291,4.801803,,,,,,
1467746425.34,0.084796,-0.015477,0.020458,0.007955,0.209398,-0.002494,0.084684,0.015477,-0.996288,-0.007215,0.000911,-0.004109,26.895884,13.313291,4.801803,,,,,,
1467746425.35,0.086848,-0.015409,0.020430,0.007967,0.218952,-0.002554,0.086729,0.015409,-0.996113,-0.007399,0.000384,-0.007443,26.895884,13.313291,4.801803,,,,,,
1467746425.36,0.088952,-0.015335,0.020390,0.007979,0.228506,-0.002614,0.088824,0.015335,-0.995929,-0.008303,0.000260,-0.005703,26.860773,13.316925,4.984793,,,,,,
1467746425.37,0.091258,-0.015267,0.020342,0.008014,0.255051,-0.003845,0.091121,0.015267,-0.995723,-0.010387,0.000526,-0.001912,26.860773,13.316925,4.984793,,,,,,
1467746425.38,0.093839,-0.015180,0.020285,0.010177,0.281592,-0.004009,0.093691,0.015179,-0.995486,-0.011003,0.000324,-0.004728,26.860773,13.316925,4.984793,,,,,,
1467746425.39,0.096587,-0.015098,0.020222,0.009131,0.295396,-0.005161,0.096426,0.015097,-0.995226,-0.010656,0.000909,-0.005186,26.837528,13.319687,5.101245,,,,,,
1467746425.40,0.099499,-0.014980,0.020157,0.010221,0.314505,-0.005280,0.099324,0.014979,-0.994942,-0.010700,-0.001094,-0.002296,26.837528,13.319687,5.101245,,,,,,
1467746425.41,0.102579,-0.014863,0.020087,0.011323,0.346351,-0.004414,0.102388,0.014863,-0.994634,-0.016847,0.000076,0.000661,26.837528,13.319687,5.101245,,,,,,
1467746425.42,0.106104,-0.014756,0.020022,0.014582,0.398372,-0.004738,0.105893,0.014756,-0.994268,-0.019819,0.001205,0.005117,26.837528,13.319687,5.101245,,,,,,
1467746425.43,0.110173,-0.014631,0.019941,0.014653,0.453583,-0.006148,0.109939,0.014630,-0.993831,-0.021758,0.000720,0.005183,26.775209,13.327688,5.399119,,,,,,
1467746425.44,0.114799,-0.014504,0.019845,0.015773,0.496054,-0.007478,0.114535,0.014503,-0.993313,-0.015872,0.001519,0.001339,26.775209,13.327688,5.399119,,,,,,
1467746425.45,0.119722,-0.014357,0.019748,0.016866,0.518347,-0.007617,0.119424,0.014357,-0.992739,-0.013696,0.000765,-0.002317,26.775209,13.327688,5.399119,,,,,,
1467746425.46,0.124895,-0.014175,0.019651,0.017965,0.545950,-0.007789,0.124558,0.014174,-0.992111,-0.014085,-0.000365,-0.000702,26.675007,13.338238,5.850219,,,,,,
1467746425.47,0.130480,-0.014047,0.019546,0.019083,0.588419,-0.008054,0.130098,0.014046,-0.991402,-0.014360,0.002510,0.003395,26.675007,13.338238,5.850219,,,,,,
1467746425.48,0.136464,-0.013867,0.019421,0.022334,0.633012,-0.009395,0.136028,0.013867,-0.990608,-0.020138,0.001727,0.004783,26.608381,13.344527,6.132468,,,,,,
1467746425.49,0.142975,-0.013646,0.019285,0.023469,0.687162,-0.010798,0.142475,0.013646,-0.989704,-0.026554,-0.000829,0.007450,26.608381,13.344527,6.132468,,,,,,
1467746425.50,0.150264,-0.013444,0.019134,0.022499,0.762548,-0.011272,0.149686,0.013443,-0.988642,-0.028745,0.001205,0.011073,26.526979,13.352655,6.458751,,,,,,
1467746425.51,0.158446,-0.013202,0.018962,0.027926,0.841124,-0.013889,0.157770,0.013201,-0.987388,-0.022227,0.000882,0.012778,26.526979,13.352655,6.458751,,,,,,
1467746425.52,0.167200,-0.012935,0.018779,0.031181,0.889965,-0.014192,0.166409,0.012934,-0.985972,-0.020596,0.001043,0.006861,26.526979,13.352655,6.458751,,,,,,
1467746425.53,0.176475,-0.012656,0.018594,0.031250,0.946237,-0.013480,0.175547,0.012656,-0.984390,-0.027872,0.000909,0.011001,26.420521,13.362617,6.861939,,,,,,
1467746425.54,0.186606,-0.012343,0.018390,0.035626,1.038614,-0.015120,0.185511,0.012343,-0.982565,-0.036387,0.002016,0.018743,26.420521,13.362617,6.861939,,,,,,
1467746425.55,0.197878,-0.012003,0.018153,0.038972,1.157538,-0.016927,0.196575,0.012003,-0.980415,-0.038479,0.002691,0.025658,26.420521,13.362617,6.861939,,,,,,
1467746425.56,0.210281,-0.011624,0.017897,0.043365,1.264777,-0.017595,0.208721,0.011624,-0.977906,-0.033580,0.001285,0.019578,26.121948,13.387693,7.880562,,,,,,
1467746425.57,0.223418,-0.011247,0.017613,0.043437,1.319994,-0.019005,0.221550,0.011246,-0.975084,-0.002556,0.002059,0.004045,26.121948,13.387693,7.880562,,,,,,
1467746425.58,0.235895,-0.010894,0.017334,0.036914,1.212755,-0.018339,0.233700,0.010894,-0.972248,0.012776,-0.004210,-0.035092,26.121948,13.387693,7.880562,,,,,,
1467746425.59,0.247327,-0.010575,0.017066,0.035752,1.132065,-0.019963,0.244799,0.010575,-0.969516,0.007047,-0.000092,-0.019147,25.907314,13.404323,8.533747,,,,,,
1467746425.60,0.258806,-0.010247,0.016801,0.041094,1.153287,-0.015833,0.255913,0.010246,-0.966645,-0.004311,0.005333,-0.006972,25.907314,13.404323,8.533747,,,,,,
1467746425.61,0.269983,-0.009934,0.016527,0.034636,1.092776,-0.018654,0.266702,0.009934,-0.963728,0.030143,-0.009690,-0.024111,25.907314,13.404323,8.533747,,,,,,
1467746425.62,0.280045,-0.009687,0.016286,0.029165,0.980219,-0.014760,0.276386,0.009687,-0.960998,0.015866,0.003466,-0.032380,25.472548,13.437171,9.709862,,,,,,
1467746425.63,0.289698,-0.009425,0.016067,0.032345,0.970658,-0.013632,0.285650,0.009425,-0.958288,0.010828,-0.001659,-0.007990,25.472548,13.437171,9.709862,,,,,,
1467746425.64,0.299213,-0.009163,0.015819,0.029110,0.932443,-0.016589,0.294756,0.009163,-0.955529,0.012525,-0.003227,-0.023277,25.472548,13.437171,9.709862,,,,,,
1467746425.65,0.308171,-0.008970,0.015587,0.026936,0.897405,-0.016372,0.303304,0.008970,-0.952852,-0.022985,-0.001493,-0.010192,25.272161,13.450946,10.201939,,,,,,
1467746425.66,0.317989,-0.008699,0.015338,0.035598,1.014196,-0.016031,0.312645,0.008699,-0.949830,-0.031639,0.010405,0.026719,25.272161,13.450946,10.201939,,,,,,
1467746425.67,0.328678,-0.008415,0.015065,0.036736,1.072595,-0.016396,0.322780,0.008415,-0.946437,-0.013225,-0.004997,-0.008260,25.272161,13.450946,10.201939,,,,,,
1467746425.68,0.338809,-0.008132,0.014808,0.033435,0.988711,-0.014809,0.332353,0.008132,-0.943120,0.011626,0.004960,-0.018657,24.846910,13.480729,11.162014,,,,,,
1467746425.69,0.348356,-0.007899,0.014564,0.031260,0.950490,-0.015636,0.341342,0.007899,-0.939906,0.006253,-0.002650,-0.020086,24.846910,13.480729,11.162014,,,,,,
1467746425.70,0.357893,-0.007644,0.014320,0.031267,0.957920,-0.014618,0.350291,0.007644,-0.936610,-0.009669,0.000718,-0.003835,24.618446,13.495611,11.640029,,,,,,
1467746425.71,0.367785,-0.007384,0.014063,0.034517,1.002514,-0.014894,0.359540,0.007384,-0.933101,-0.024152,0.000764,0.005473,24.618446,13.495611,11.640029,,,,,,
1467746425.72,0.378341,-0.007098,0.013787,0.036736,1.073653,-0.015338,0.369370,0.007098,-0.929255,-0.020509,-0.001376,0.006602,24.618446,13.495611,11.640029,,,,,,
1467746425.73,0.389115,-0.006831,0.013508,0.035662,1.066221,-0.015293,0.379361,0.006831,-0.925223,0.000476,0.000707,-0.010934,24.383799,13.510496,12.107294,,,,,,
1467746425.74,0.399316,-0.006594,0.013235,0.031336,1.011013,-0.016015,0.388780,0.006594,-0.921307,-0.004670,-0.001665,-0.024005,24.383799,13.510496,12.107294,,,,,,
1467746425.75,0.409596,-0.006332,0.012942,0.037760,1.037557,-0.017240,0.398231,0.006332,-0.917263,-0.014976,0.001694,0.001873,24.383799,13.510496,12.107294,,,,,,
1467746425.76,0.420492,-0.006064,0.012638,0.036784,1.109758,-0.016629,0.408202,0.006064,-0.912871,-0.031997,0.000223,0.010009,23.848080,13.543528,13.097009,,,,,,
1467746425.77,0.432238,-0.005781,0.012305,0.040086,1.194703,-0.018223,0.418897,0.005781,-0.908015,-0.035047,0.000292,0.010478,23.848080,13.543528,13.097009,,,,,,
1467746425.78,0.444557,-0.005467,0.011954,0.044405,1.242482,-0.018519,0.430052,0.005467,-0.902788,-0.030058,0.000377,0.009492,23.848080,13.543528,13.097009,,,,,,
1467746425.79,0.457577,-0.005163,0.011597,0.044514,1.330609,-0.018007,0.441770,0.005163,-0.897114,-0.041166,0.003366,0.016712,23.540682,13.562175,13.623264,,,,,,
1467746425.80,0.471489,-0.004830,0.011206,0.046730,1.396445,-0.020546,0.454208,0.004830,-0.890882,-0.005722,0.001517,0.003553,23.540682,13.562175,13.623264,,,,,,
1467746425.81,0.484759,-0.004542,0.010842,0.041277,1.294512,-0.018848,0.465991,0.004542,-0.884778,0.013410,-0.002176,-0.033328,23.540682,13.562175,13.623264,,,,,,
1467746425.82,0.497074,-0.004267,0.010492,0.040115,1.219122,-0.017312,0.476851,0.004267,-0.878974,0.020296,-0.001811,-0.024331,22.783192,13.604874,14.816317,,,,,,
1467746425.83,0.509112,-0.004004,0.010151,0.040093,1.201071,-0.017199,0.487398,0.004004,-0.873171,0.005461,-0.000815,-0.014479,22.783192,13.604874,14.816317,,,,,,
1467746425.84,0.521070,-0.003735,0.009801,0.041151,1.195761,-0.017164,0.497805,0.003735,-0.867281,-0.005267,0.000736,-0.011351,22.783192,13.604874,14.816317,,,,,,
1467746425.85,0.533178,-0.003490,0.009434,0.041187,1.221250,-0.019453,0.508270,0.003490,-0.861191,-0.028396,-0.001324,0.002762,22.410961,13.624923,15.355781,,,,,,
1467746425.86,0.546432,-0.003230,0.009044,0.042437,1.368840,-0.020377,0.519640,0.003230,-0.854379,-0.062654,0.002019,0.029581,22.410961,13.624923,15.355781,,,,,,
1467746425.87,0.561625,-0.002931,0.008565,0.053344,1.569528,-0.025883,0.532560,0.002931,-0.846387,-0.081907,0.002730,0.046842,22.410961,13.624923,15.355781,,,,,,
1467746425.88,0.579010,-0.002567,0.008011,0.062152,1.798875,-0.028377,0.547194,0.002567,-0.837002,-0.088805,0.004894,0.049267,21.563446,13.670469,16.487139,,,,,,
1467746425.89,0.598222,-0.002179,0.007395,0.066586,1.936911,-0.030303,0.563173,0.002179,-0.826336,-0.023653,0.002872,0.031048,21.563446,13.670469,16.487139,,,,,,
1467746425.90,0.616808,-0.001829,0.006808,0.063250,1.828600,-0.026434,0.578434,0.001829,-0.815727,-0.004673,0.003359,-0.024086,21.563446,13.670469,16.487139,,,,,,
1467746425.91,0.635007,-0.001504,0.006241,0.060056,1.828601,-0.026437,0.593182,0.001504,-0.805067,0.005786,0.001105,-0.012698,20.938271,13.703935,17.247627,,,,,,
1467746425.92,0.652956,-0.001173,0.005638,0.061048,1.767022,-0.028178,0.607536,0.001173,-0.794291,0.028557,-0.001478,-0.017812,20.938271,13.703935,17.247627,,,,,,
1467746425.94,0.687793,-0.000610,0.004469,0.060088,1.845605,-0.031866,0.634833,0.000610,-0.772649,-0.063605,-0.000793,0.034200,20.282511,13.736758,17.989187,,,,,,
1467746425.93,0.669902,-0.000876,0.005069,0.057746,1.683138,-0.026591,0.620909,0.000876,-0.783882,-0.003538,-0.000922,-0.023567,20.282511,13.736758,17.989187,,,,,,
1467746425.95,0.708567,-0.000295,0.003756,0.073264,2.160959,-0.035959,0.650746,0.000295,-0.759295,-0.127828,0.004451,0.073657,20.282511,13.736758,17.989187,,,,,,
1467746425.96,0.733452,0.000082,0.002898,0.088739,2.612221,-0.039838,0.669438,-0.000082,-0.742868,-0.176060,0.011312,0.117059,20.282511,13.736758,17.989187,,,,,,
1467746425.97,0.763031,0.000491,0.001895,0.101015,3.057119,-0.045810,0.691115,-0.000491,-0.722744,-0.156035,0.004366,0.117092,18.890375,13.806752,19.396313,,,,,,
1467746425.98,0.796031,0.000921,0.000767,0.112075,3.380972,-0.051023,0.714585,-0.000921,-0.699548,-0.155625,0.009267,0.109323,18.890375,13.806752,19.396313,,,,,,
1467746425.99,0.833444,0.001366,-0.000521,0.128679,3.878961,-0.058388,0.740250,-0.001366,-0.672330,-0.183320,0.009255,0.142941,17.795383,13.858828,20.370243,,,,,,
1467746426.00,0.876359,0.001827,-0.002044,0.150660,4.417299,-0.067064,0.768413,-0.001827,-0.639952,-0.174083,0.011531,0.178420,17.795383,13.858828,20.370243,,,,,,
1467746426.01,0.923614,0.002307,-0.003776,0.168186,4.806975,-0.070555,0.797783,-0.002307,-0.602940,-0.086068,0.012835,0.144245,17.795383,13.858828,20.370243,,,,,,
1467746426.02,0.970768,0.002694,-0.005521,0.158355,4.607363,-0.070377,0.825317,-0.002694,-0.564664,0.142792,-0.001853,0.004132,14.282102,14.015745,22.875099,,,,,,
1467746426.03,1.010908,0.002922,-0.006970,0.126463,3.811004,-0.056899,0.847311,-0.002922,-0.531090,0.238230,-0.012108,-0.163078,14.282102,14.015745,22.875099,,,,,,
1467746426.04,1.045216,0.003032,-0.008207,0.108845,3.350184,-0.051898,0.865029,-0.003032,-0.501712,0.193031,-0.012563,-0.101300,14.282102,14.015745,22.875099,,,,,,
1467746426.05,1.077629,0.003106,-0.009369,0.103332,3.199411,-0.050958,0.880834,-0.003106,-0.473416,0.134150,-0.012122,-0.042301,12.217077,14.102946,23.990408,,,,,,
1467746426.06,1.107872,0.003106,-0.010483,0.096666,2.976439,-0.050630,0.894746,-0.003106,-0.446564,0.061644,-0.008979,-0.039047,12.217077,14.102946,23.990408,,,,,,
1467746426.07,1.138511,0.003106,-0.011640,0.106415,3.107038,-0.052504,0.908006,-0.003106,-0.418945,0.025740,0.006905,0.028167,12.217077,14.102946,23.990408,,,,,,
1467746426.08,1.169294,0.003049,-0.012805,0.103146,3.047579,-0.052134,0.920471,-0.003049,-0.390800,0.014618,-0.003542,-0.002923,9.039783,14.228456,25.288792,,,,,,
1467746426.09,1.200321,0.002994,-0.013964,0.106468,3.154811,-0.049610,0.932151,-0.002994,-0.362057,-0.033927,0.011692,0.037319,9.039783,14.228456,25.288792,,,,,,
1467746426.10,1.233497,0.002890,-0.015203,0.116301,3.352305,-0.051904,0.943648,-0.002890,-0.330939,-0.030943,-0.001458,0.042349,9.039783,14.228456,25.288792,,,,,,
1467746426.11,1.267756,0.002761,-0.016493,0.117482,3.443570,-0.052467,0.954430,-0.002761,-0.298423,-0.026436,0.009765,0.040427,7.447124,14.290338,25.768513,,,,,,
1467746426.12,1.302441,0.002632,-0.017806,0.121733,3.442497,-0.049263,0.964205,-0.002632,-0.265145,0.077040,0.002449,0.006967,7.447124,14.290338,25.768513,,,,,,
1467746426.13,1.332681,0.002440,-0.018948,0.099688,2.842592,-0.046587,0.971781,-0.002440,-0.235871,0.208700,-0.010301,-0.124328,7.447124,14.290338,25.768513,,,,,,
1467746426.14,1.356484,0.002279,-0.019795,0.075514,2.259648,-0.033375,0.977120,-0.002279,-0.212675,0.206458,-0.004038,-0.159761,3.956979,14.421980,26.458241,,,,,,
1467746426.15,1.376373,0.002104,-0.020512,0.061221,1.897583,-0.032183,0.981157,-0.002104,-0.193201,0.185988,-0.017519,-0.117804,3.956979,14.421980,26.458241,,,,,,
1467746426.16,1.393330,0.001924,-0.021085,0.052391,1.654426,-0.027474,0.984292,-0.001924,-0.176536,0.085990,-0.009550,-0.078332,3.956979,14.421980,26.458241,,,,,,
1467746426.17,1.410946,0.001740,-0.021681,0.055799,1.824313,-0.028536,0.987250,-0.001740,-0.159170,-0.009741,-0.003615,0.020071,2.788523,14.462813,26.584597,,,,,,
1467746426.18,1.430724,0.001514,-0.022373,0.066685,2.010132,-0.032884,0.990205,-0.001514,-0.139615,-0.039155,0.003590,0.033719,2.788523,14.462813,26.584597,,,,,,
1467746426.19,1.451770,0.001254,-0.023092,0.067928,2.148171,-0.035877,0.992924,-0.001254,-0.118746,-0.072025,0.004489,0.030779,2.788523,14.462813,26.584597,,,,,,
1467746426.20,1.475827,0.000973,-0.023932,0.085420,2.512361,-0.038144,0.995493,-0.000973,-0.094827,-0.122187,0.015667,0.071206,0.761542,14.529412,26.683437,,,,,,
1467746426.21,1.504302,0.000606,-0.024919,0.097689,2.947709,-0.046184,0.997790,-0.000606,-0.066446,-0.129443,0.006573,0.104974,0.761542,14.529412,26.683437,,,,,,
1467746426.22,1.536275,0.000163,-0.026029,0.110882,3.274746,-0.051415,0.999404,-0.000163,-0.034514,-0.124877,0.013637,0.088423,0.761542,14.529412,26.683437,,,,,,
1467746426.23,1.571950,-0.000381,-0.027237,0.123099,3.671863,-0.057087,0.999999,0.000381,0.001154,-0.122588,0.008576,0.101126,-0.651722,14.576398,26.660709,,,,,,
1467746426.24,1.611643,-0.000997,-0.028576,0.140609,4.048798,-0.060498,0.999165,0.000997,0.040835,-0.096989,0.010966,0.114667,-0.651722,14.576398,26.660709,,,,,,
1467746426.25,1.653679,-0.001726,-0.029947,0.139744,4.200651,-0.065709,0.996566,0.001726,0.082788,-0.020766,0.001066,0.072120,-0.651722,14.576398,26.660709,,,,,,
1467746426.26,1.696245,-0.002523,-0.031290,0.141950,4.262237,-0.066093,0.992139,0.002523,0.125119,0.004321,-0.001546,0.038104,-0.651722,14.576398,26.660709,,,,,,
1467746426.27,1.739168,-0.003408,-0.032578,0.139826,4.261186,-0.069282,0.985853,0.003408,0.167577,0.097658,-0.008093,0.034907,-4.640184,14.704050,26.190634,,,,,,
1467746426.28,1.779469,-0.004306,-0.033746,0.127709,3.941583,-0.065161,0.978298,0.004306,0.207160,0.145070,-0.009265,-0.044654,-4.640184,14.704050,26.190634,,,,,,
1467746426.29,1.816578,-0.005187,-0.034801,0.119886,3.649585,-0.061208,0.969934,0.005187,0.243311,0.148657,-0.003493,-0.053278,-6.877657,14.769531,25.656353,,,,,,
1467746426.30,1.852339,-0.006061,-0.035745,0.114452,3.565700,-0.058559,0.960610,0.006061,0.277832,0.099112,-0.000323,-0.029007,-6.877657,14.769531,25.656353,,,,,,
1467746426.31,1.888696,-0.006982,-0.036767,0.126293,3.671869,-0.057084,0.949871,0.006982,0.312565,0.031468,0.007667,0.038540,-6.877657,14.769531,25.656353,,,,,,
1467746426.32,1.925285,-0.007952,-0.037704,0.118771,3.611358,-0.059905,0.937794,0.007952,0.347100,0.105357,-0.001787,0.006385,-10.654398,14.871231,24.269732,,,,,,
1467746426.33,1.958758,-0.008865,-0.038533,0.108751,3.269451,-0.053513,0.925646,0.008864,0.378287,0.124006,-0.006515,-0.063834,-10.654398,14.871231,24.269732,,,,,,
1467746426.34,1.990516,-0.009740,-0.039317,0.106482,3.161142,-0.050707,0.913160,0.009740,0.407485,0.114123,-0.001775,-0.034011,-10.654398,14.871231,24.269732,,,,,,
1467746426.35,2.020804,-0.010587,-0.040025,0.096645,2.963642,-0.046285,0.900393,0.010587,0.434948,0.140943,-0.009260,-0.048901,-12.343578,14.913013,23.429207,,,,,,
1467746426.36,2.047668,-0.011350,-0.040661,0.088714,2.593060,-0.037582,0.888378,0.011350,0.458972,0.159184,0.000720,-0.078769,-12.343578,14.913013,23.429207,,,,,,
1467746426.37,2.070475,-0.012003,-0.041176,0.071133,2.163029,-0.031709,0.877673,0.012003,0.479109,0.217358,-0.009195,-0.112685,-12.343578,14.913013,23.429207,,,,,,
1467746426.38,2.088006,-0.012532,-0.041549,0.052348,1.622572,-0.025145,0.869134,0.012532,0.494418,0.229743,-0.009358,-0.145678,-14.901481,14.974490,21.849487,,,,,,
1467746426.39,2.100897,-0.012919,-0.041821,0.040071,1.179792,-0.017058,0.862684,0.012919,0.505578,0.220919,-0.009501,-0.130745,-14.901481,14.974490,21.849487,,,,,,
1467746426.40,2.108569,-0.013162,-0.041989,0.020188,0.612790,-0.010329,0.858777,0.013161,0.512180,0.247775,-0.007714,-0.141879,-14.901481,14.974490,21.849487,,,,,,
1467746426.41,2.109913,-0.013201,-0.041995,-0.002973,-0.017924,-0.001074,0.858088,0.013201,0.513334,0.244528,-0.006350,-0.176176,-14.901481,14.974490,21.849487,,,,,,
1467746426.42,2.106687,-0.013088,-0.041905,-0.016211,-0.378942,0.005435,0.859740,0.013088,0.510564,0.151368,-0.002239,-0.125432,-15.760704,14.992898,21.225052,,,,,,
1467746426.43,2.103153,-0.012965,-0.041821,-0.011900,-0.337534,0.005180,0.861541,0.012965,0.507523,0.067124,0.001653,-0.020218,-15.760704,14.992898,21.225052,,,,,,
1467746426.44,2.098574,-0.012847,-0.041664,-0.027039,-0.531821,0.001061,0.863857,0.012847,0.503573,0.068317,-0.005355,-0.027438,-15.615080,14.988946,21.335194,,,,,,
1467746426.45,2.096150,-0.012772,-0.041572,0.001264,-0.035977,-0.000956,0.865076,0.012771,0.501478,-0.190607,0.006562,0.059710,-15.615080,14.988946,21.335194,,,,,,
1467746426.46,2.117378,-0.013613,-0.041512,0.025882,0.899695,-0.016378,0.854227,0.013613,0.519722,-0.231653,0.012083,0.215752,-15.615080,14.988946,21.335194,,,,,,
1467746426.47,2.130499,-0.014054,-0.041794,0.051013,1.408292,-0.021672,0.847329,0.014053,0.530882,-0.213403,0.008240,0.147707,-15.464575,14.982894,21.448763,,,,,,
1467746426.48,2.147665,-0.014568,-0.042101,0.056904,1.852137,-0.029772,0.838086,0.014567,0.545344,-0.198147,0.016469,0.081426,-15.464575,14.982894,21.448763,,,,,,
1467746426.49,2.170469,-0.015313,-0.042519,0.082084,2.391541,-0.040581,0.825423,0.015313,0.564306,-0.140014,0.002967,0.112192,-15.464575,14.982894,21.448763,,,,,,
1467746426.50,2.197654,-0.016169,-0.042958,0.086943,2.862991,-0.047791,0.809769,0.016169,0.586526,-0.195176,0.014593,0.104178,-17.038202,15.001088,20.207838,,,,,,
1467746426.51,2.233017,-0.017340,-0.043538,0.126377,3.732610,-0.059592,0.788510,0.017339,0.614777,-0.238553,0.007090,0.186553,-17.038202,15.001088,20.207838,,,,,,
1467746426.52,2.276960,-0.018795,-0.044213,0.150918,4.609671,-0.073584,0.760723,0.018794,0.648805,-0.256816,0.020787,0.231078,-17.038202,15.001088,20.207838,,,,,,
1467746426.53,2.328600,-0.020560,-0.044952,0.179511,5.323208,-0.085481,0.726194,0.020558,0.687183,-0.191037,0.013087,0.244000,-18.282913,15.022451,19.072248,,,,,,
1467746426.55,2.451150,-0.024895,-0.046323,0.225863,6.601636,-0.108355,0.636681,0.024893,0.770725,-0.064141,0.007700,0.272564,-18.282913,15.022451,19.072248,,,,,,
1467746426.54,2.386427,-0.022572,-0.045659,0.196289,5.958173,-0.094769,0.685235,0.022570,0.727972,-0.154763,0.017225,0.222406,-18.282913,15.022451,19.072248,,,,,,
1467746426.56,2.518887,-0.027350,-0.046807,0.221876,6.817188,-0.110776,0.583017,0.027347,0.812000,0.041693,-0.001178,0.205655,-18.282913,15.022451,19.072248,,,,,,
1467746426.57,2.588746,-0.029912,-0.047170,0.238140,7.048656,-0.113275,0.524877,0.029907,0.850652,0.086466,-0.001724,0.207224,-22.018002,15.074816,14.548096,,,,,,
1467746426.58,2.661142,-0.032604,-0.047353,0.245896,7.285443,-0.117946,0.461933,0.032599,0.886315,0.145565,0.001825,0.214728,-22.018002,15.074816,14.548096,,,,,,
1467746426.59,2.733278,-0.035300,-0.047347,0.240435,7.179259,-0.115157,0.396815,0.035293,0.917220,0.223454,0.007142,0.168596,-23.834469,15.082751,11.318933,,,,,,
1467746426.60,2.804568,-0.037932,-0.047131,0.239268,7.100680,-0.112536,0.330443,0.037923,0.943064,0.266008,-0.007939,0.153662,-23.834469,15.082751,11.318933,,,,,,
1467746426.61,2.873963,-0.040431,-0.046737,0.221955,6.881955,-0.110117,0.264230,0.040420,0.963612,0.301444,-0.001144,0.121272,-23.834469,15.082751,11.318933,,,,,,
1467746426.62,2.940711,-0.042862,-0.046192,0.223699,6.576152,-0.107133,0.199350,0.042849,0.978991,0.343375,-0.014162,0.106931,-26.104460,15.040236,4.004768,,,,,,
1467746426.63,3.002759,-0.045035,-0.045560,0.198576,6.082406,-0.096611,0.138247,0.045020,0.989374,0.377668,-0.009497,0.034994,-26.104460,15.040236,4.004768,,,,,,
1467746426.64,3.059916,-0.047030,-0.044864,0.185165,5.578053,-0.092396,0.081496,0.047013,0.995564,0.382066,-0.016327,0.009792,-26.104460,15.040236,4.004768,,,,,,
1467746426.65,3.111214,-0.048756,-0.044116,0.163084,4.964318,-0.080054,0.030338,0.048736,0.998351,0.413769,-0.005264,-0.027800,-26.429636,14.995234,0.554021,,,,,,
1467746426.66,-3.128019,-0.050209,-0.043421,0.137610,4.187077,-0.069882,-0.013556,0.050188,0.998648,0.426535,-0.018541,-0.097494,-26.429636,14.995234,0.554021,,,,,,
1467746426.67,-3.092226,-0.051367,-0.042802,0.113136,3.365227,-0.055172,-0.049282,0.051345,0.997464,0.442913,-0.015944,-0.137769,-26.429636,14.995234,0.554021,,,,,,
1467746426.68,-3.065344,-0.052237,-0.042312,0.080042,2.461622,-0.039958,-0.076071,0.052214,0.995734,0.434592,-0.013533,-0.187827,-26.103661,14.902884,-4.493623,,,,,,
1467746426.70,-3.036570,-0.053107,-0.041772,0.023700,0.863587,-0.011896,-0.104682,0.053082,0.993088,0.366187,-0.005581,-0.204483,-26.103661,14.902884,-4.493623,,,,,,
1467746426.69,-3.047061,-0.052811,-0.041970,0.053412,1.618538,-0.025117,-0.094260,0.052787,0.994147,0.416342,-0.015860,-0.199241,-26.103661,14.902884,-4.493623,,,,,,
1467746426.71,-3.033611,-0.053203,-0.041709,0.002506,0.103332,-0.001827,-0.107620,0.053178,0.992769,0.341827,-0.013200,-0.197801,-25.884691,14.876387,-5.689061,,,,,,
1467746426.72,-3.038269,-0.053059,-0.041796,-0.020812,-0.649495,0.010322,-0.102995,0.053034,0.993267,0.320295,-0.004190,-0.209667,-25.884691,14.876387,-5.689061,,,,,,
1467746426.73,-3.049875,-0.052689,-0.042027,-0.045094,-1.324804,0.019855,-0.091462,0.052665,0.994415,0.297059,-0.020789,-0.185272,-25.884691,14.876387,-5.689061,,,,,,
1467746426.74,-3.068045,-0.052114,-0.042364,-0.064030,-1.977827,0.032448,-0.073382,0.052090,0.995943,0.280611,-0.006695,-0.169939,-25.899914,14.878268,-5.614376,,,,,,
1467746426.75,-3.092895,-0.051312,-0.042812,-0.090441,-2.653135,0.041979,-0.048614,0.051289,0.997500,0.272781,-0.016850,-0.162676,-25.899914,14.878268,-5.614376,,,,,,
1467746426.76,-3.124371,-0.050285,-0.043362,-0.108301,-3.296602,0.054512,-0.017199,0.050264,0.998588,0.267901,-0.003557,-0.150749,-25.899914,14.878268,-5.614376,,,,,,
1467746426.77,3.121277,-0.049031,-0.043961,-0.131420,-3.897580,0.061451,0.020290,0.049011,0.998592,0.261402,-0.009338,-0.123714,-26.106550,14.903325,-4.475334,,,,,,
1467746426.78,3.078821,-0.047567,-0.044601,-0.145842,-4.348859,0.071718,0.062659,0.047549,0.996902,0.221246,-0.008837,-0.077270,-26.106550,14.903325,-4.475334,,,,,,
1467746426.79,3.032151,-0.045944,-0.045223,-0.161274,-4.764023,0.076436,0.109108,0.045928,0.992968,0.199883,-0.005110,-0.037432,-26.106550,14.903325,-4.475334,,,,,,
1467746426.80,2.982160,-0.044219,-0.045803,-0.164850,-5.063458,0.081503,0.158603,0.044204,0.986352,0.168881,-0.005600,0.005805,-26.441021,14.983541,-0.235502,,,,,,
1467746426.81,2.929970,-0.042372,-0.046290,-0.174677,-5.258825,0.082719,0.209858,0.042359,0.976814,0.129849,0.009124,0.038781,-26.441021,14.983541,-0.235502,,,,,,
1467746426.82,2.876753,-0.040444,-0.046732,-0.179054,-5.342723,0.089627,0.261540,0.040433,0.964345,0.086574,-0.002378,0.087825,-26.441021,14.983541,-0.235502,,,,,,
1467746426.83,2.822665,-0.038462,-0.047049,-0.179143,-5.420222,0.085856,0.313316,0.038453,0.948870,0.066994,0.012634,0.099271,-26.300346,15.022593,2.510585,,,,,,
1467746426.84,2.769341,-0.036496,-0.047271,-0.177903,-5.275827,0.088145,0.363471,0.036488,0.930891,0.009454,0.000209,0.145998,-26.300346,15.022593,2.510585,,,,,,
1467746426.85,2.718152,-0.034602,-0.047369,-0.164868,-5.076203,0.082648,0.410654,0.034595,0.911135,-0.016092,0.007702,0.175871,-26.300346,15.022593,2.510585,,,,,,
1467746426.86,2.668483,-0.032772,-0.047386,-0.165738,-4.921179,0.081675,0.455412,0.032766,0.889678,-0.034956,-0.001195,0.176286,-25.122217,15.074274,8.082703,,,,,,
1467746426.87,2.622121,-0.031049,-0.047307,-0.149255,-4.522994,0.072807,0.496182,0.031044,0.867663,-0.103924,0.012063,0.179517,-25.122217,15.074274,8.082703,,,,,,
1467746426.88,2.579282,-0.029480,-0.047160,-0.141407,-4.215063,0.066626,0.532911,0.029476,0.845658,-0.131803,0.012669,0.159820,-24.205662,15.083057,10.501281,,,,,,
1467746426.89,2.540544,-0.028040,-0.046969,-0.123768,-3.739374,0.060467,0.565285,0.028037,0.824419,-0.150734,0.010629,0.193510,-24.205662,15.083057,10.501281,,,,,,
1467746426.90,2.507673,-0.026830,-0.046757,-0.107044,-3.151123,0.049343,0.592094,0.026826,0.805422,-0.179710,0.010283,0.174802,-24.205662,15.083057,10.501281,,,,,,
1467746426.91,2.479904,-0.025831,-0.046558,-0.087234,-2.641459,0.042973,0.614245,0.025828,0.788693,-0.201311,0.013357,0.168827,-23.247873,15.082849,12.479328,,,,,,
1467746426.92,2.457907,-0.025036,-0.046378,-0.068385,-2.056394,0.031871,0.631456,0.025034,0.775007,-0.204714,0.011420,0.156069,-23.247873,15.082849,12.479328,,,,,,
1467746426.93,2.441649,-0.024451,-0.046237,-0.048489,-1.477716,0.026133,0.643982,0.024449,0.764650,-0.252182,0.020061,0.157622,-23.247873,15.082849,12.479328,,,,,,
1467746426.94,2.431979,-0.024078,-0.046151,-0.027377,-0.787531,0.013310,0.651352,0.024075,0.758394,-0.239654,0.009616,0.168120,-21.875435,15.073812,14.762629,,,,,,
1467746426.95,2.429074,-0.023972,-0.046118,-0.004190,-0.137701,0.002871,0.653554,0.023969,0.756500,-0.241216,0.012835,0.147888,-21.875435,15.073812,14.762629,,,,,,
1467746426.96,2.432098,-0.024076,-0.046145,0.014665,0.451610,-0.008258,0.651262,0.024073,0.758471,-0.228883,0.008367,0.141340,-21.875435,15.073812,14.762629,,,,,,
1467746426.97,2.441392,-0.024426,-0.046233,0.037832,1.087633,-0.017546,0.644179,0.024423,0.764485,-0.222167,0.015601,0.147335,-21.684666,15.072006,15.043256,,,,,,
1467746426.98,2.456621,-0.024975,-0.046363,0.056671,1.666324,-0.027543,0.632453,0.024973,0.774196,-0.198661,0.013342,0.134999,-21.684666,15.072006,15.043256,,,,,,
1467746426.99,2.477372,-0.025731,-0.046548,0.074382,2.199349,-0.034061,0.616242,0.025728,0.787137,-0.150192,0.012419,0.121143,-21.684666,15.072006,15.043256,,,,,,
1467746427.00,2.502233,-0.026642,-0.046726,0.084449,2.575240,-0.042796,0.596470,0.026639,0.802193,-0.138722,0.009631,0.104972,-22.397047,15.078359,13.953671,,,,,,
1467746427.01,2.531240,-0.027667,-0.046912,0.097792,3.026500,-0.045612,0.572937,0.027663,0.819133,-0.119247,0.006913,0.139928,-22.397047,15.078359,13.953671,,,,,,
1467746427.02,2.564858,-0.028891,-0.047087,0.114298,3.439557,-0.056702,0.545062,0.028887,0.837898,-0.075076,0.008284,0.108742,-23.128220,15.082416,12.700231,,,,,,
1467746427.03,2.601343,-0.030221,-0.047240,0.123170,3.724113,-0.057413,0.514115,0.030216,0.857189,-0.062425,0.003460,0.115376,-23.128220,15.082416,12.700231,,,,,,
1467746427.04,2.640888,-0.031633,-0.047335,0.128877,4.021430,-0.064595,0.479804,0.031628,0.876806,0.018716,0.007725,0.097300,-23.128220,15.082416,12.700231,,,,,,
1467746427.05,2.681682,-0.033148,-0.047379,0.137463,4.075578,-0.064926,0.443624,0.033142,0.895600,0.021327,0.000442,0.060806,-23.128220,15.082416,12.700231,,,,,,
1467746427.06,2.722919,-0.034654,-0.047360,0.138634,4.158401,-0.066508,0.406305,0.034647,0.913080,0.050284,0.004248,0.088964,-24.800941,15.078828,9.012876,,,,,,
1467746427.07,2.765625,-0.036228,-0.047251,0.140919,4.277330,-0.070445,0.366932,0.036220,0.929542,0.103604,-0.004589,0.056572,-24.800941,15.078828,9.012876,,,,,,
1467746427.08,2.807239,-0.037745,-0.047087,0.131133,4.118059,-0.067327,0.327924,0.037736,0.943950,0.114672,0.002089,0.016225,-25.488104,15.066360,6.859372,,,,,,
1467746427.09,2.847725,-0.039202,-0.046879,0.132093,4.038417,-0.064698,0.289434,0.039192,0.956395,0.126658,-0.001243,0.035868,-25.488104,15.066360,6.859372,,,,,,
1467746427.10,2.887310,-0.040671,-0.046623,0.133012,3.920557,-0.065022,0.251343,0.040659,0.967044,0.193511,0.003805,-0.017703,-25.488104,15.066360,6.859372,,,,,,
1467746427.11,2.923635,-0.041959,-0.046327,0.111217,3.531833,-0.056213,0.216046,0.041946,0.975482,0.201511,-0.008011,-0.053698,-25.488104,15.066360,6.859372,,,,,,
1467746427.12,2.956387,-0.043092,-0.046028,0.101205,3.194176,-0.050912,0.183978,0.043078,0.981986,0.195432,0.002088,-0.053473,-26.282036,15.024829,2.683058,,,,,,
1467746427.13,2.986335,-0.044107,-0.045736,0.093408,2.928715,-0.043933,0.154484,0.044093,0.987011,0.217968,-0.006403,-0.055462,-26.282036,15.024829,2.683058,,,,,,
1467746427.14,3.012148,-0.045007,-0.045447,0.082187,2.468960,-0.042125,0.128953,0.044992,0.990630,0.235336,-0.011193,-0.103209,-26.282036,15.024829,2.683058,,,,,,
1467746427.15,3.033153,-0.045771,-0.045180,0.068792,1.984770,-0.033779,0.108113,0.045755,0.993085,0.246898,-0.028833,-0.098401,-26.412224,15.002725,1.001147,,,,,,
1467746427.16,3.049442,-0.046395,-0.044952,0.056464,1.501641,-0.025440,0.091921,0.046378,0.994686,0.236890,-0.011985,-0.128795,-26.412224,15.002725,1.001147,,,,,,
1467746427.17,3.060630,-0.046832,-0.044790,0.036649,0.991971,-0.016941,0.080786,0.046815,0.995631,0.233576,-0.004426,-0.149913,-26.412224,15.002725,1.001147,,,,,,
1467746427.18,3.066707,-0.047070,-0.044679,0.020033,0.475946,-0.014785,0.074733,0.047052,0.996093,0.252324,-0.017862,-0.122695,-26.431137,14.969427,-1.000510,,,,,,
1467746427.19,3.051780,-0.045822,-0.045398,0.009720,-0.091269,-0.002717,0.089598,0.045806,0.994924,0.238649,-0.027190,-0.118520,-26.431137,14.969427,-1.000510,,,,,,
1467746427.20,3.046940,-0.045793,-0.045446,-0.005848,-0.610498,0.005846,0.094412,0.045777,0.994480,0.213404,-0.008515,-0.143589,-26.431137,14.969427,-1.000510,,,,,,
1467746427.21,3.037137,-0.045652,-0.045579,-0.016065,-1.103192,0.017442,0.104157,0.045636,0.993513,0.198639,-0.005139,-0.107710,-26.428516,14.988533,-0.753052,,,,,,
1467746427.22,3.023001,-0.045309,-0.045724,-0.037870,-1.501372,0.025239,0.118192,0.045293,0.991957,0.158480,-0.023000,-0.104292,-26.428516,14.988533,-0.753052,,,,,,
1467746427.23,3.005266,-0.044928,-0.045942,-0.039394,-1.865573,0.028586,0.135767,0.044913,0.989722,0.159155,0.009348,-0.091880,-26.428516,14.988533,-0.753052,,,,,,
1467746427.24,2.983119,-0.044156,-0.046182,-0.055785,-2.201106,0.030675,0.157657,0.044142,0.986507,0.148938,-0.030119,-0.041103,-26.425066,15.005573,0.488125,,,,,,
1467746427.25,2.958672,-0.043541,-0.046419,-0.064696,-2.517513,0.030522,0.181730,0.043527,0.982385,0.131853,0.039160,-0.072671,-26.425066,15.005573,0.488125,,,,,,
1467746427.26,2.931651,-0.042745,-0.046627,-0.071397,-2.758554,0.037349,0.208213,0.042732,0.977150,0.088327,-0.002433,-0.028892,-26.425066,15.005573,0.488125,,,,,,
1467746427.27,2.903168,-0.041805,-0.046861,-0.096026,-2.861551,0.043293,0.235966,0.041793,0.970862,0.074337,0.054307,-0.046821,-26.362867,15.022370,1.737030,,,,,,
1467746427.28,2.873586,-0.040768,-0.047095,-0.094064,-2.983682,0.051511,0.264590,0.040757,0.963499,0.083646,0.017517,-0.004179,-26.362867,15.022370,1.737030,,,,,,
1467746427.29,2.843019,-0.039486,-0.047273,-0.126112,-3.061189,0.056223,0.293928,0.039475,0.955012,0.041674,0.056167,-0.053218,-26.362867,15.022370,1.737030,,,,,,
1467746427.30,2.812384,-0.038234,-0.047442,-0.112267,-3.063311,0.053057,0.323058,0.038224,0.945607,0.030885,0.048659,0.012218,-25.956268,15.057166,4.821158,,,,,,
1467746427.31,2.782498,-0.036817,-0.047572,-0.129192,-2.957154,0.064083,0.351188,0.036808,0.935581,-0.033546,-0.000874,0.059551,-25.956268,15.057166,4.821158,,,,,,
1467746427.32,2.753597,-0.035462,-0.047678,-0.128006,-2.870069,0.057152,0.378096,0.035455,0.925087,-0.018050,0.049537,0.036949,-25.956268,15.057166,4.821158,,,,,,
1467746427.33,2.725450,-0.034132,-0.047754,-0.110880,-2.796816,0.057774,0.404000,0.034126,0.914122,-0.020775,-0.034538,0.113038,-25.598881,15.073006,6.418054,,,,,,
1467746427.34,2.698362,-0.032874,-0.047789,-0.117092,-2.663014,0.052671,0.428628,0.032868,0.902883,-0.044656,-0.004014,0.052134,-25.598881,15.073006,6.418054,,,,,,
1467746427.36,2.650467,-0.030909,-0.047769,-0.078135,-2.187304,0.034824,0.471393,0.030904,0.881381,-0.097324,-0.062566,0.144513,-25.172472,15.085754,7.902929,,,,,,
1467746427.35,2.673193,-0.031835,-0.047810,-0.081715,-2.479325,0.046232,0.451230,0.031830,0.891840,-0.077542,-0.036087,0.133230,-25.172472,15.085754,7.902929,,,,,,
1467746427.37,2.631235,-0.030406,-0.047733,-0.044672,-1.843262,0.019926,0.488263,0.030401,0.872167,-0.084775,-0.023245,0.113902,-25.172472,15.085754,7.902929,,,,,,
1467746427.38,2.614507,-0.030013,-0.047622,-0.029470,-1.626629,0.006874,0.502790,0.030008,0.863888,-0.070951,-0.041132,0.121281,-24.290167,15.096073,10.285237,,,,,,
1467746427.39,2.599754,-0.029826,-0.047551,-0.038848,-1.454623,0.011107,0.515483,0.029821,0.856381,-0.116267,0.050059,0.041095,-24.290167,15.096073,10.285237,,,,,,
1467746427.40,2.587410,-0.029537,-0.047508,-0.021435,-1.150962,0.011349,0.526019,0.029533,0.849960,-0.143527,0.029824,0.080628,-24.290167,15.096073,10.285237,,,,,,
1467746427.41,2.579000,-0.029251,-0.047459,-0.027294,-0.728362,0.008693,0.533153,0.029246,0.845513,-0.150569,0.056691,0.060050,-23.952152,15.092996,11.053755,,,,,,
1467746427.42,2.574938,-0.029154,-0.047477,-0.007597,-0.302592,0.007107,0.536585,0.029150,0.843343,-0.155222,0.023142,0.083278,-23.714127,15.092225,11.556583,,,,,,
1467746427.43,2.585636,-0.032207,-0.047123,-0.009238,0.086165,0.004651,0.527482,0.032202,0.848956,-0.151658,0.046579,0.052549,-23.714127,15.092225,11.556583,,,,,,
1467746427.44,2.589258,-0.032206,-0.047169,0.005058,0.450354,0.003446,0.524404,0.032200,0.850860,-0.132803,0.018551,0.081513,-23.714127,15.092225,11.556583,,,,,,
1467746427.45,2.596347,-0.032248,-0.047203,0.007623,0.795441,0.000220,0.518358,0.032242,0.854555,-0.113436,0.011871,0.081068,-23.714127,15.092225,11.556583,,,,,,
1467746427.46,2.606473,-0.032510,-0.047261,0.029291,1.080017,-0.010059,0.509674,0.032505,0.859753,-0.088944,-0.014133,0.083545,-23.937674,15.076842,11.107035,,,,,,
1467746427.47,2.619255,-0.032890,-0.047299,0.041337,1.332744,-0.020147,0.498638,0.032884,0.866187,-0.053829,-0.021654,0.081338,-23.937674,15.076842,11.107035,,,,,,
1467746427.48,2.634049,-0.033449,-0.047349,0.051158,1.517502,-0.024490,0.485760,0.033443,0.873452,-0.034161,-0.012096,0.032233,-23.937674,15.076842,11.107035,,,,,,
1467746427.49,2.650097,-0.034057,-0.047383,0.057697,1.634303,-0.027345,0.471671,0.034050,0.881117,-0.014320,-0.009941,0.028124,-24.189426,15.077472,10.546618,,,,,,
1467746427.50,2.667557,-0.034737,-0.047411,0.061086,1.786145,-0.030422,0.456205,0.034730,0.889197,-0.021299,0.009154,0.024667,-24.189426,15.077472,10.546618,,,,,,
1467746427.51,2.686786,-0.035444,-0.047416,0.065560,1.959215,-0.030439,0.439013,0.035436,0.897782,-0.034365,-0.003439,0.049301,-24.510359,15.076255,9.779495,,,,,,
1467746427.52,2.707668,-0.036231,-0.047403,0.071108,2.131236,-0.035770,0.420159,0.036223,0.906727,-0.016046,0.003801,0.052822,-24.510359,15.076255,9.779495,,,,,,
1467746427.53,2.729644,-0.037080,-0.047371,0.077585,2.200252,-0.037261,0.400120,0.037072,0.915713,0.035991,0.001914,0.020521,-24.510359,15.076255,9.779495,,,,,,
1467746427.54,2.750953,-0.037926,-0.047321,0.070051,2.137604,-0.035811,0.380506,0.037917,0.924001,0.052142,0.007233,-0.015676,-24.510359,15.076255,9.779495,,,,,,
1467746427.55,2.772208,-0.038701,-0.047257,0.067904,2.124861,-0.034669,0.360771,0.038691,0.931852,0.058312,0.012289,-0.015454,-25.228378,15.066958,7.759215,,,,,,
1467746427.56,2.793215,-0.039430,-0.047184,0.066780,2.082380,-0.031210,0.341108,0.039420,0.939197,0.072496,0.011438,-0.019962,-25.228378,15.066958,7.759215,,,,,,
1467746427.57,2.813212,-0.040092,-0.047103,0.058116,1.969828,-0.028384,0.322251,0.040081,0.945805,0.080687,0.003559,-0.033665,-25.228378,15.066958,7.759215,,,,,,
1467746427.58,2.832072,-0.040702,-0.047025,0.056952,1.892311,-0.026835,0.304350,0.040691,0.951691,0.084856,-0.006648,-0.016724,-25.806381,15.050866,5.584948,,,,,,
1467746427.59,2.850116,-0.041328,-0.046927,0.056790,1.759591,-0.028132,0.287122,0.041316,0.957003,0.115558,-0.016734,-0.025148,-25.806381,15.050866,5.584948,,,,,,
1467746427.60,2.865834,-0.041912,-0.046827,0.052202,1.500508,-0.024382,0.272038,0.041900,0.961374,0.140575,-0.014907,-0.060999,-25.806381,15.050866,5.584948,,,,,,
1467746427.61,2.878658,-0.042402,-0.046746,0.041191,1.213821,-0.020466,0.259682,0.042389,0.964763,0.142479,-0.005585,-0.073788,-26.002724,15.042478,4.612151,,,,,,
1467746427.62,2.888910,-0.042796,-0.046678,0.034533,1.003575,-0.015961,0.249774,0.042783,0.967359,0.136121,-0.002057,-0.067456,-26.002724,15.042478,4.612151,,,,,,
1467746427.63,2.897001,-0.043069,-0.046628,0.022479,0.735997,-0.011102,0.241936,0.043056,0.969336,0.139824,0.000661,-0.083838,-26.002724,15.042478,4.612151,,,,,,
1467746427.64,2.902091,-0.043225,-0.046588,0.012510,0.433380,-0.006020,0.236997,0.043212,0.970549,0.146182,-0.004073,-0.088209,-26.200968,15.029295,3.364410,,,,,,
1467746427.65,2.904249,-0.043272,-0.046574,0.001497,0.144569,-0.002091,0.234901,0.043259,0.971056,0.146248,0.000290,-0.089586,-26.200968,15.029295,3.364410,,,,,,
1467746427.66,2.893694,-0.043135,-0.047008,-0.003133,-0.144370,0.002909,0.245140,0.043122,0.968528,0.121254,-0.003648,-0.079246,-26.200968,15.029295,3.364410,,,,,,
1467746427.67,2.890879,-0.042980,-0.047030,-0.016128,-0.315320,0.006097,0.247867,0.042967,0.967841,0.088391,-0.000700,-0.057852,-26.226164,15.027255,3.171686,,,,,,
1467746427.68,2.886582,-0.042783,-0.047060,-0.020586,-0.472468,0.008143,0.252025,0.042769,0.966775,0.087361,0.006226,-0.053277,-26.226164,15.027255,3.171686,,,,,,
1467746427.69,2.880399,-0.042467,-0.047109,-0.031488,-0.666787,0.014673,0.258001,0.042454,0.965211,0.074274,0.003277,-0.058900,-26.226164,15.027255,3.171686,,,,,,
1467746427.70,2.870970,-0.042185,-0.047226,-0.033790,-0.805899,0.014478,0.267094,0.042172,0.962747,0.067897,0.002887,-0.038187,-26.132259,15.043760,3.805252,,,,,,
1467746427.71,2.862136,-0.041750,-0.047303,-0.039256,-0.911030,0.020454,0.275593,0.041738,0.960368,0.053539,-0.005147,-0.031886,-26.132259,15.043760,3.805252,,,,,,
1467746427.72,2.852171,-0.041316,-0.047384,-0.040457,-1.021454,0.020081,0.285155,0.041304,0.957591,0.051668,0.000413,-0.031306,-26.132259,15.043760,3.805252,,,,,,
1467746427.73,2.841106,-0.040834,-0.047464,-0.043801,-1.137195,0.022933,0.295738,0.040823,0.954396,0.055199,-0.006384,-0.024175,-26.052662,15.051048,4.291205,,,,,,
1467746427.74,2.828587,-0.040319,-0.047531,-0.046064,-1.248677,0.020436,0.307670,0.040308,0.950639,0.035333,-0.000574,-0.019197,-26.052662,15.051048,4.291205,,,,,,
1467746427.75,2.816095,-0.039801,-0.047597,-0.047123,-1.241250,0.022518,0.319527,0.039790,0.946741,0.011054,-0.004619,0.006658,-26.052662,15.051048,4.291205,,,,,,
1467746427.76,2.803986,-0.039295,-0.047637,-0.047064,-1.197710,0.020116,0.330974,0.039285,0.942822,-0.006023,0.001807,0.013340,-25.814037,15.064698,5.511802,,,,,,
1467746427.77,2.792531,-0.038809,-0.047679,-0.043780,-1.125509,0.019666,0.341759,0.038799,0.938986,-0.020897,0.003834,0.014490,-25.814037,15.064698,5.511802,,,,,,
1467746427.78,2.781809,-0.038354,-0.047705,-0.041571,-1.063922,0.018218,0.351813,0.038344,0.935285,-0.016531,0.003572,0.017840,-25.814037,15.064698,5.511802,,,,,,
1467746427.79,2.771734,-0.038064,-0.047731,-0.042578,-1.015082,0.020038,0.361221,0.038055,0.931703,-0.017990,0.009232,0.007979,-25.670757,15.069836,6.132038,,,,,,
1467746427.80,2.762080,-0.037611,-0.047761,-0.041436,-0.953497,0.019653,0.370206,0.037602,0.928188,-0.017728,0.002208,0.018848,-25.670757,15.069836,6.132038,,,,,,
1467746427.81,2.753166,-0.037217,-0.047772,-0.040288,-0.890844,0.017132,0.378470,0.037209,0.924865,-0.023688,0.007759,0.015641,-25.670757,15.069836,6.132038,,,,,,
1467746427.82,2.744802,-0.036805,-0.047800,-0.035939,-0.815464,0.018793,0.386199,0.036796,0.921681,-0.026076,0.003365,0.019923,-25.399189,15.077063,7.159122,,,,,,
1467746427.83,2.737405,-0.036438,-0.047815,-0.032613,-0.715647,0.014977,0.393011,0.036430,0.918812,-0.030783,0.000008,0.024883,-25.399189,15.077063,7.159122,,,,,,
1467746427.84,2.730941,-0.036102,-0.047840,-0.030370,-0.623275,0.015464,0.398946,0.036094,0.916264,-0.030615,-0.002113,0.023190,-25.277992,15.080519,7.569060,,,,,,
1467746427.85,2.726350,-0.035639,-0.047816,-0.024937,-0.537256,0.013866,0.403156,0.035631,0.914437,-0.025379,-0.003985,0.023093,-25.277992,15.080519,7.569060,,,,,,
1467746427.86,2.723227,-0.035060,-0.047774,-0.018419,-0.439545,0.010069,0.406018,0.035053,0.913192,-0.028531,-0.007251,0.030365,-25.277992,15.080519,7.569060,,,,,,
1467746427.87,2.721484,-0.034607,-0.047714,-0.015088,-0.333338,0.007278,0.407616,0.034600,0.912498,-0.028420,-0.004617,0.027825,-25.187901,15.082924,7.859050,,,,,,
1467746427.88,2.720468,-0.034097,-0.047667,-0.005382,-0.237755,0.004562,0.408550,0.034091,0.912099,-0.022304,-0.006976,0.026499,-25.187901,15.082924,7.859050,,,,,,
1467746427.89,2.720445,-0.033741,-0.047616,-0.006321,-0.138984,0.002879,0.408575,0.033735,0.912101,-0.023550,-0.005033,0.023186,-25.187901,15.082924,7.859050,,,,,,
1467746427.90,2.721108,-0.033644,-0.047561,-0.000872,-0.044461,-0.000902,0.407972,0.033638,0.912374,-0.020430,-0.001259,0.018931,-25.132044,15.083299,8.035179,,,,,,
1467746427.91,2.722743,-0.033844,-0.047512,0.003520,0.060672,-0.001558,0.406477,0.033837,0.913034,-0.019636,0.003837,0.017721,-25.132044,15.083299,8.035179,,,,,,
1467746427.92,2.724073,-0.033894,-0.047501,0.003642,0.156237,-0.003221,0.405262,0.033888,0.913572,-0.020695,0.009005,0.009264,-25.132044,15.083299,8.035179,,,,,,
1467746427.93,2.727132,-0.034406,-0.047472,0.006946,0.243314,-0.003766,0.402458,0.034399,0.914792,-0.012275,0.009195,0.009021,-25.152477,15.080271,7.976708,,,,,,
1467746427.94,2.730129,-0.034475,-0.047463,0.007037,0.317637,-0.003168,0.399713,0.034468,0.915992,-0.008188,0.008409,0.005593,-25.152477,15.080271,7.976708,,,,,,
1467746427.95,2.733832,-0.034568,-0.047454,0.008192,0.387718,-0.004671,0.396317,0.034561,0.917463,-0.001252,0.005219,0.004855,-25.152477,15.080271,7.976708,,,,,,
1467746427.96,2.737997,-0.034687,-0.047452,0.011426,0.419571,-0.004867,0.392491,0.034680,0.919102,0.021266,0.004840,-0.004978,-25.244507,15.076605,7.687684,,,,,,
1467746427.97,2.739709,-0.034897,-0.047527,0.006029,0.364327,-0.002398,0.390914,0.034890,0.919766,0.041565,0.002143,-0.027889,-25.244507,15.076605,7.687684,,,,,,
1467746427.98,2.739843,-0.034981,-0.047592,-0.002608,0.264497,-0.004974,0.390790,0.034974,0.919815,0.053637,0.001128,-0.037964,-25.244507,15.076605,7.687684,,,,,,
1467746427.99,2.739223,-0.034814,-0.047660,-0.010172,0.184817,0.000840,0.391362,0.034807,0.919578,0.053813,-0.002290,-0.032768,-25.290192,15.077557,7.534137,,,,,,
1467746428.00,2.737373,-0.034746,-0.047716,-0.027337,0.090273,0.006738,0.393064,0.034739,0.918855,0.058383,0.003485,-0.043656,-25.284229,15.081285,7.546663,,,,,,
1467746428.01,2.731341,-0.034224,-0.047906,-0.059627,-0.149809,0.031629,0.398606,0.034217,0.916484,0.096328,-0.000419,-0.088771,-25.284229,15.081285,7.546663,,,,,,
1467746428.02,2.709700,-0.034247,-0.048442,-0.125592,-0.927259,0.057722,0.418345,0.034240,0.907643,0.276479,0.028245,-0.244847,-25.284229,15.081285,7.546663,,,,,,
1467746428.03,2.687983,-0.032492,-0.048466,-0.173554,-2.642084,0.082267,0.437982,0.032487,0.898397,0.572669,-0.015778,-0.361913,-25.217087,15.089460,7.752188,,,,,,
1467746428.04,2.649775,-0.030123,-0.048250,-0.225461,-4.128582,0.091538,0.472014,0.030118,0.881076,0.521211,0.009784,-0.359226,-25.217087,15.089460,7.752188,,,,,,
1467746428.05,2.607375,-0.027883,-0.048018,-0.198814,-4.112658,0.087207,0.508970,0.027880,0.860333,0.005739,0.002378,0.045887,-25.217087,15.089460,7.752188,,,,,,
1467746428.06,2.579185,-0.026436,-0.047881,-0.099567,-2.269356,0.053392,0.533039,0.026433,0.845678,-0.556064,0.016582,0.476420,-24.014851,15.110786,10.892230,,,,,,
1467746428.07,2.574415,-0.026255,-0.048040,0.018448,0.100600,0.013099,0.537069,0.026252,0.843130,-0.799276,0.012536,0.660456,-24.014851,15.110786,10.892230,,,,,,
1467746428.08,2.587945,-0.026900,-0.048331,0.084326,1.660408,-0.015778,0.525603,0.026896,0.850304,-0.562484,0.009404,0.474784,-24.014851,15.110786,10.892230,,,,,,
1467746428.09,2.605550,-0.027756,-0.048559,0.076889,1.658315,-0.025352,0.510541,0.027752,0.859405,-0.061292,-0.018490,0.095154,-23.629364,15.115990,11.698277,,,,,,
1467746428.10,2.613925,-0.028167,-0.048621,0.025405,0.520067,-0.010814,0.503320,0.028163,0.863641,0.291587,-0.038539,-0.234720,-23.629364,15.115990,11.698277,,,,,,
1467746428.11,2.610578,-0.028002,-0.048603,-0.027112,-0.577897,0.011994,0.506210,0.027999,0.861956,0.339661,-0.027709,-0.295977,-23.629364,15.115990,11.698277,,,,,,
1467746428.12,2.601722,-0.027540,-0.048557,-0.053404,-1.139609,0.032521,0.513830,0.027537,0.857450,0.196803,-0.029887,-0.161848,-24.043076,15.125786,10.808829,,,,,,
1467746428.13,2.589742,-0.026920,-0.048671,-0.046027,-1.182117,0.044504,0.524074,0.026916,0.851247,0.016606,0.007278,-0.024343,-24.043076,15.125786,10.808829,,,,,,
1467746428.14,2.579295,-0.026239,-0.048805,-0.051127,-0.996310,0.047592,0.532948,0.026236,0.845741,-0.065937,0.017083,0.048622,-24.043076,15.125786,10.808829,,,,,,
1467746428.15,2.570501,-0.025576,-0.048907,-0.050915,-0.835963,0.041264,0.540374,0.025574,0.841036,-0.088485,0.018204,0.036222,-23.803225,15.130632,11.320780,,,,,,
1467746428.16,2.564637,-0.025063,-0.048901,-0.050535,-0.547125,0.030937,0.545304,0.025060,0.837864,-0.126954,0.030802,0.052639,-23.803225,15.130632,11.320780,,,,,,
1467746428.17,2.562925,-0.024675,-0.048862,-0.027497,-0.027877,0.013866,0.546743,0.024672,0.836937,-0.196508,0.015275,0.127189,-23.803225,15.130632,11.320780,,,,,,
1467746428.18,2.566974,-0.024554,-0.048847,-0.005484,0.532765,0.002920,0.543351,0.024551,0.839147,-0.202591,0.008850,0.146846,-23.470160,15.141993,11.981709,,,,,,
1467746428.19,2.573939,-0.024538,-0.048834,-0.002065,0.706908,-0.001362,0.537493,0.024535,0.842911,-0.090625,-0.003585,0.076095,-23.470160,15.141993,11.981709,,,,,,
1467746428.20,2.580130,-0.024546,-0.048770,-0.014190,0.384128,0.004908,0.532264,0.024544,0.846223,0.035744,-0.009499,-0.039750,-23.470160,15.141993,11.981709,,,,,,
1467746428.21,2.581488,-0.024305,-0.048751,-0.022043,0.077251,0.014276,0.531118,0.024303,0.846949,0.047327,-0.017833,-0.063380,-23.599939,15.141629,11.724489,,,,,,
1467746428.22,2.581531,-0.024032,-0.048810,-0.018973,-0.011960,0.021225,0.531085,0.024029,0.846978,0.020780,-0.013028,-0.026864,-23.599939,15.141629,11.724489,,,,,,
1467746428.23,2.580612,-0.023804,-0.048924,-0.012731,-0.126641,0.023015,0.531866,0.023802,0.846494,0.014735,-0.007033,-0.003263,-23.686937,15.140118,11.549696,,,,,,
1467746428.24,2.582797,-0.023580,-0.048921,-0.013950,-0.255060,0.020626,0.530018,0.023577,0.847659,0.014294,-0.003909,-0.022875,-23.686937,15.140118,11.549696,,,,,,
1467746428.25,2.580037,-0.023383,-0.049012,-0.009712,-0.278410,0.016519,0.532358,0.023381,0.846196,-0.002084,0.008708,-0.013463,-23.670614,15.146049,11.575355,,,,,,
1467746428.26,2.577495,-0.023174,-0.049092,-0.014997,-0.244436,0.018429,0.534510,0.023172,0.844844,-0.034388,0.009055,0.011540,-23.670614,15.146049,11.575355,,,,,,
1467746428.27,2.575164,-0.022988,-0.049204,-0.009666,-0.234888,0.020503,0.536480,0.022986,0.843600,-0.036831,0.002267,0.013730,-23.670614,15.146049,11.575355,,,,,,
1467746428.28,2.572597,-0.022792,-0.049342,-0.010854,-0.325151,0.026391,0.538646,0.022790,0.842224,-0.019527,0.000602,-0.007888,-23.670614,15.146049,11.575355,,,,,,
1467746428.29,2.568829,-0.022490,-0.049475,-0.022676,-0.407973,0.030091,0.541820,0.022488,0.840194,-0.024578,0.000354,-0.022231,-23.597059,15.155662,11.712149,,,,,,
1467746428.30,2.566655,-0.022280,-0.049569,-0.022594,-0.346365,0.027576,0.543647,0.022278,0.839018,-0.050773,0.002808,0.005922,-23.597059,15.155662,11.712149,,,,,,
1467746428.32,2.563710,-0.021693,-0.049758,-0.018979,-0.016137,0.022315,0.546123,0.021691,0.837424,-0.105663,0.008414,0.041268,-23.514917,15.164125,11.865395,,,,,,
1467746428.31,2.564315,-0.021970,-0.049663,-0.018137,-0.193459,0.023428,0.545613,0.021968,0.837749,-0.087743,0.007283,0.029057,-23.514917,15.164125,11.865395,,,,,,
1467746428.33,2.564673,-0.021377,-0.049830,-0.023068,0.125076,0.024618,0.545320,0.021376,0.837955,-0.099153,0.010576,0.034359,-23.514917,15.164125,11.865395,,,,,,
1467746428.34,2.569317,-0.021423,-0.049846,-0.028353,0.161202,0.028643,0.541422,0.021421,0.840478,-0.082453,0.010164,0.011008,-23.514917,15.164125,11.865395,,,,,,
1467746428.35,2.570853,-0.020973,-0.049942,-0.034763,0.150575,0.032961,0.540136,0.020972,0.841316,-0.066183,0.010248,-0.009072,-23.451786,15.176488,11.974038,,,,,,
1467746428.36,2.572404,-0.020539,-0.050074,-0.031555,0.163312,0.033948,0.538835,0.020538,0.842161,-0.056581,0.008790,-0.002897,-23.451786,15.176488,11.974038,,,,,,
1467746428.38,2.579415,-0.019955,-0.050238,-0.021812,0.279090,0.025780,0.532924,0.019953,0.845928,-0.057872,0.003942,0.012486,-23.520617,15.180539,11.833071,,,,,,
1467746428.37,2.574449,-0.020133,-0.050183,-0.026152,0.219597,0.029343,0.537116,0.020132,0.843268,-0.060614,0.005838,0.006646,-23.520617,15.180539,11.833071,,,,,,
1467746428.39,2.582167,-0.019683,-0.050340,-0.013307,0.263167,0.022695,0.530597,0.019682,0.847396,-0.042727,0.003069,-0.001235,-23.520617,15.180539,11.833071,,,,,,
1467746428.40,2.584122,-0.019420,-0.050468,-0.013435,0.164414,0.025443,0.528941,0.019419,0.848436,-0.024410,-0.005305,-0.010835,-23.637552,15.194509,11.579409,,,,,,
1467746428.42,2.587292,-0.018467,-0.050792,-0.007161,0.073112,0.024960,0.526259,0.018466,0.850124,-0.041182,-0.014117,-0.006923,-23.637552,15.194509,11.579409,,,,,,
1467746428.41,2.585222,-0.019196,-0.050632,-0.009260,0.099639,0.026918,0.528010,0.019195,0.849021,-0.035579,-0.009277,-0.014411,-23.637552,15.194509,11.579409,,,,,,
1467746428.43,2.587771,-0.018344,-0.050986,0.000264,0.045510,0.021947,0.525853,0.018343,0.850378,-0.050023,-0.011003,-0.009954,-23.665211,15.203474,11.510946,,,,,,
1467746428.44,2.588467,-0.018289,-0.051171,0.004585,0.086933,0.016370,0.525262,0.018288,0.850744,-0.061486,-0.011880,0.003016,-23.665211,15.203474,11.510946,,,,,,
1467746428.45,2.590013,-0.018311,-0.051316,0.011100,0.177201,0.009423,0.523945,0.018310,0.851555,-0.077076,-0.006027,0.009437,-23.665211,15.203474,11.510946,,,,,,
1467746428.46,2.594626,-0.018196,-0.051402,0.015404,0.212268,0.008144,0.520013,0.018195,0.853965,-0.070016,-0.004996,0.003625,-23.704330,15.223758,11.403140,,,,,,
1467746428.47,2.596826,-0.018284,-0.051575,0.015412,0.223939,0.011264,0.518132,0.018283,0.855105,-0.077489,0.000226,-0.012179,-23.704330,15.223758,11.403140,,,,,,
1467746428.48,2.598993,-0.018357,-0.051752,0.014328,0.210133,0.012414,0.516277,0.018356,0.856225,-0.063121,0.003083,-0.021218,-23.704330,15.223758,11.403140,,,,,,
1467746428.49,2.600784,-0.018383,-0.051933,0.010020,0.174028,0.014765,0.514743,0.018382,0.857148,-0.063494,0.007054,-0.035798,-23.777914,15.230625,11.239594,,,,,,
1467746428.50,2.604851,-0.018707,-0.052070,0.009021,0.227138,0.015494,0.511249,0.018706,0.859229,-0.073246,0.007158,-0.031363,-23.777914,15.230625,11.239594,,,,,,
1467746428.51,2.607597,-0.018741,-0.052254,0.012303,0.294035,0.012949,0.508888,0.018740,0.860629,-0.079566,0.006483,-0.020785,-23.777914,15.230625,11.239594,,,,,,
1467746428.52,2.610949,-0.018842,-0.052400,0.015572,0.342894,0.006259,0.505998,0.018841,0.862329,-0.068682,0.001148,-0.017053,-23.892372,15.247146,10.971272,,,,,,
1467746428.53,2.614446,-0.018937,-0.052515,0.013459,0.352457,0.004068,0.502979,0.018936,0.864091,-0.067677,0.002442,-0.031633,-23.892372,15.247146,10.971272,,,,,,
1467746428.54,2.619249,-0.019187,-0.052606,0.020922,0.356720,0.001919,0.498821,0.019186,0.866493,-0.057140,0.001826,-0.037422,-23.892372,15.247146,10.971272,,,,,,
1467746428.55,2.624798,-0.019358,-0.052690,0.019920,0.406644,0.001605,0.494004,0.019357,0.869244,-0.072388,-0.001077,-0.037594,-23.892372,15.247146,10.971272,,,,,,
1467746428.56,2.629430,-0.019535,-0.052816,0.024255,0.469285,0.002281,0.489970,0.019533,0.871521,-0.068293,-0.000139,-0.035171,-24.076511,15.256841,10.547041,,,,,,
1467746428.57,2.633627,-0.019721,-0.052968,0.020965,0.396016,0.004866,0.486306,0.019719,0.873566,-0.040276,-0.005315,-0.051758,-24.076511,15.256841,10.547041,,,,,,
1467746428.58,2.637272,-0.019864,-0.053130,0.023056,0.368403,0.007170,0.483118,0.019863,0.875330,-0.050470,-0.003673,-0.074106,-24.167736,15.263130,10.327007,,,,,,
1467746428.59,2.642344,-0.020023,-0.053331,0.028439,0.421492,0.010036,0.478670,0.020022,0.877767,-0.054674,-0.002917,-0.049336,-24.167736,15.263130,10.327007,,,,,,
1467746428.60,2.646178,-0.020195,-0.053554,0.023036,0.359907,0.011482,0.475299,0.020194,0.879592,-0.033222,-0.002020,-0.065399,-24.167736,15.263130,10.327007,,,,,,
1467746428.61,2.649042,-0.020296,-0.053738,0.017604,0.271783,0.010964,0.472778,0.020295,0.880948,-0.023056,0.001464,-0.094144,-24.167736,15.263130,10.327007,,,,,,
1467746428.62,2.652400,-0.020573,-0.053912,0.021950,0.333380,0.006324,0.469814,0.020572,0.882526,-0.044597,0.001447,-0.075717,-24.317993,15.281669,9.939590,,,,,,
1467746428.63,2.656470,-0.020766,-0.054094,0.024113,0.365229,0.009320,0.466216,0.020764,0.884427,-0.042281,-0.001111,-0.061231,-24.317993,15.281669,9.939590,,,,,,
1467746428.65,2.661817,-0.021089,-0.054429,0.018688,0.279223,0.006660,0.461477,0.021087,0.886901,-0.013739,-0.002350,-0.091628,-24.389767,15.289675,9.749607,,,,,,
1467746428.64,2.659796,-0.020961,-0.054263,0.019825,0.338690,0.007353,0.463270,0.020960,0.885969,-0.033842,-0.000482,-0.081694,-24.389767,15.289675,9.749607,,,,,,
1467746428.66,2.665085,-0.021264,-0.054580,0.025167,0.348243,0.004105,0.458575,0.021263,0.888401,-0.039325,-0.003822,-0.084995,-24.389767,15.289675,9.749607,,,,,,
1467746428.67,2.668720,-0.021386,-0.054754,0.027330,0.376906,0.004992,0.455341,0.021385,0.890060,-0.028797,-0.004997,-0.070083,-24.389767,15.289675,9.749607,,,,,,
1467746428.68,2.672245,-0.021585,-0.054929,0.025209,0.385395,0.006001,0.452199,0.021583,0.891656,-0.028127,-0.002494,-0.086556,-24.502834,15.305203,9.436710,,,,,,
1467746428.69,2.674289,-0.021816,-0.055119,0.022973,0.301497,0.007589,0.450374,0.021814,0.892574,-0.015315,-0.005807,-0.119456,-24.502834,15.305203,9.436710,,,,,,
1467746428.70,2.676880,-0.021968,-0.055325,0.021844,0.259011,0.013177,0.448058,0.021967,0.893735,-0.001113,-0.004007,-0.111996,-24.553045,15.313544,9.291550,,,,,,
1467746428.71,2.679290,-0.022052,-0.055563,0.016465,0.221839,0.017662,0.445902,0.022050,0.894810,0.021307,-0.002885,-0.125432,-24.553045,15.313544,9.291550,,,,,,
1467746428.72,2.680585,-0.022069,-0.055788,0.009928,0.105041,0.019453,0.444742,0.022067,0.895387,0.025656,-0.003894,-0.123902,-24.553045,15.313544,9.291550,,,,,,
1467746428.73,2.681276,-0.022070,-0.055996,0.008807,0.058325,0.018680,0.444124,0.022069,0.895693,0.020354,-0.002858,-0.119708,-24.553045,15.313544,9.291550,,,,,,
1467746428.74,2.681503,-0.022067,-0.056223,0.008749,0.016906,0.022133,0.443920,0.022066,0.895795,-0.002727,-0.007539,-0.104550,-24.607237,15.335726,9.109831,,,,,,
1467746428.75,2.680094,-0.021962,-0.056504,0.012015,0.073162,0.020720,0.445184,0.021960,0.895170,0.017585,-0.004809,-0.087461,-24.607237,15.335726,9.109831,,,,,,
1467746428.77,2.680978,-0.022017,-0.056992,0.006594,-0.003288,0.022258,0.444391,0.022015,0.895562,0.041037,-0.005276,-0.120355,-24.588839,15.349273,9.136657,,,,,,
1467746428.78,2.680744,-0.022002,-0.057205,0.009758,-0.030891,0.020306,0.444601,0.022001,0.895459,0.040827,-0.005262,-0.120251,-24.588839,15.349273,9.136657,,,,,,
1467746428.76,2.680910,-0.022030,-0.056757,0.017334,0.067853,0.019694,0.444452,0.022028,0.895532,0.026312,-0.005213,-0.123178,-24.588839,15.349273,9.136657,,,,,,
1467746428.79,2.680356,-0.021971,-0.057417,0.006559,-0.033016,0.021380,0.444948,0.021969,0.895287,0.023329,-0.005352,-0.102776,-24.590670,15.361851,9.110551,,,,,,
1467746428.80,2.680409,-0.021914,-0.057619,0.004486,0.012643,0.021092,0.444901,0.021912,0.895311,0.052581,0.000213,-0.111925,-24.590670,15.361851,9.110551,,,,,,
1467746428.81,2.675759,-0.021699,-0.057925,0.000109,-0.074481,0.025892,0.449062,0.021697,0.893237,0.057408,-0.005386,-0.133762,-24.590670,15.361851,9.110551,,,,,,
1467746428.82,2.674436,-0.021553,-0.058145,-0.003165,-0.137128,0.027346,0.450245,0.021551,0.892645,0.063336,-0.006536,-0.117224,-24.590670,15.361851,9.110551,,,,,,
1467746428.83,2.672816,-0.021402,-0.058371,-0.004271,-0.173223,0.025443,0.451692,0.021401,0.891917,0.056013,-0.003701,-0.112880,-24.527973,15.387038,9.236190,,,,,,
1467746428.84,2.670812,-0.021238,-0.058611,-0.004312,-0.198718,0.029860,0.453480,0.021237,0.891014,0.042645,-0.008862,-0.107170,-24.527973,15.387038,9.236190,,,,,,
1467746428.85,2.664756,-0.020738,-0.058954,-0.003195,-0.156295,0.029597,0.458872,0.020737,0.888260,0.093282,-0.009979,-0.092286,-24.492571,15.399495,9.309086,,,,,,
1467746428.86,2.662115,-0.020540,-0.059216,-0.007656,-0.312387,0.033765,0.461219,0.020539,0.887049,0.067971,-0.013291,-0.145533,-24.492571,15.399495,9.309086,,,,,,
1467746428.87,2.658309,-0.020227,-0.059534,-0.014153,-0.385671,0.042734,0.464594,0.020225,0.885293,0.074346,-0.008049,-0.121941,-24.492571,15.399495,9.309086,,,,,,
1467746428.88,2.654349,-0.019891,-0.059901,-0.014192,-0.404804,0.050305,0.468100,0.019890,0.883452,0.090006,-0.009529,-0.106581,-24.492571,15.399495,9.309086,,,,,,
1467746428.89,2.643997,-0.019470,-0.060353,-0.023912,-0.516346,0.049930,0.477224,0.019469,0.878566,0.131053,-0.000990,-0.151119,-24.330902,15.433016,9.670520,,,,,,
1467746428.90,2.636996,-0.018918,-0.060603,-0.040182,-0.759482,0.048245,0.483368,0.018917,0.875213,0.075958,0.003254,-0.133285,-24.330902,15.433016,9.670520,,,,,,
1467746428.92,2.626363,-0.017822,-0.060971,-0.031023,-0.265719,0.034513,0.492656,0.017821,0.870042,0.008229,0.012117,-0.032319,-24.173481,15.456402,10.021584,,,,,,
1467746428.91,2.629874,-0.018293,-0.060803,-0.044296,-0.645864,0.046464,0.489595,0.018292,0.871758,-0.004594,0.006153,-0.032174,-24.173481,15.456402,10.021584,,,,,,
1467746428.93,2.622835,-0.017318,-0.061104,-0.033057,-0.194586,0.030872,0.495727,0.017317,0.868306,0.002961,-0.003081,-0.080342,-24.173481,15.456402,10.021584,,,,,,
1467746428.94,2.621843,-0.016899,-0.061195,-0.030733,-0.042743,0.027793,0.496592,0.016898,0.867820,0.054083,-0.002692,-0.037360,-24.173481,15.456402,10.021584,,,,,,
1467746428.95,2.622083,-0.016564,-0.061282,-0.024275,0.011408,0.026396,0.496386,0.016563,0.867944,0.098615,-0.009803,-0.108666,-23.929558,15.481787,10.553680,,,,,,
1467746428.96,2.620587,-0.016136,-0.061365,-0.035201,-0.206265,0.030943,0.497688,0.016135,0.867206,0.087624,-0.010855,-0.134983,-23.929558,15.481787,10.553680,,,,,,
1467746428.97,2.614622,-0.015165,-0.061560,-0.028772,-0.165972,0.033893,0.502859,0.015165,0.864235,0.104242,-0.015317,-0.050728,-23.913460,15.488441,10.580370,,,,,,
1467746428.98,2.613029,-0.014770,-0.061710,-0.027741,-0.194638,0.033009,0.504238,0.014770,0.863438,0.125766,-0.009963,-0.127751,-23.913460,15.488441,10.580370,,,,,,
1467746428.99,2.609104,-0.014263,-0.061883,-0.037658,-0.449486,0.042049,0.507627,0.014263,0.861459,0.091998,-0.013866,-0.119729,-23.913460,15.488441,10.580370,,,,,,
1467746429.00,2.605031,-0.013715,-0.062082,-0.035427,-0.362431,0.045763,0.511136,0.013714,0.859390,0.065707,-0.009015,-0.045242,-23.913460,15.488441,10.580370,,,,,,
1467746429.01,2.598559,-0.013126,-0.062348,-0.033107,-0.211698,0.043756,0.516691,0.013125,0.856071,0.089845,-0.002536,-0.076713,-23.748100,15.510220,10.915610,,,,,,
1467746429.02,2.595537,-0.012536,-0.062466,-0.049250,-0.357142,0.039330,0.519280,0.012535,0.854513,0.130669,0.010170,-0.131200,-23.748100,15.510220,10.915610,,,,,,
1467746429.04,2.587386,-0.011156,-0.062350,-0.057656,-0.284906,0.028224,0.526236,0.011156,0.850265,0.021982,-0.000643,-0.010345,-23.616440,15.525312,11.176674,,,,,,
1467746429.03,2.590877,-0.011820,-0.062435,-0.065355,-0.476036,0.032608,0.523261,0.011820,0.852091,0.091440,0.010397,-0.090311,-23.616440,15.525312,11.176674,,,,,,
1467746429.05,2.586605,-0.010452,-0.062301,-0.044495,0.016646,0.023153,0.526904,0.010452,0.849861,0.015699,-0.004699,0.012856,-23.616440,15.525312,11.176674,,,,,,
1467746429.06,2.588126,-0.010032,-0.062278,-0.036840,0.172736,0.018988,0.525613,0.010032,0.850665,0.068961,-0.005653,-0.032427,-23.616440,15.525312,11.176674,,,,,,
1467746429.07,2.589705,-0.009596,-0.062253,-0.040076,0.140880,0.020249,0.524271,0.009596,0.851497,0.158834,-0.011168,-0.108486,-23.459904,15.531065,11.493853,,,,,,
1467746429.08,2.588970,-0.009088,-0.062187,-0.050060,-0.180838,0.021193,0.524900,0.009088,0.851115,0.224520,-0.008065,-0.154842,-23.459904,15.531065,11.493853,,,,,,
1467746429.09,2.578856,-0.007593,-0.062182,-0.064356,-0.519641,0.036080,0.533488,0.007593,0.845774,0.122015,-0.022897,-0.093653,-23.489086,15.532022,11.432794,,,,,,
1467746429.10,2.574986,-0.006931,-0.062187,-0.050271,-0.325338,0.034876,0.536759,0.006931,0.843707,0.110412,-0.008136,-0.006625,-23.489086,15.532022,11.432794,,,,,,
1467746429.11,2.572018,-0.006346,-0.062238,-0.048144,-0.325342,0.035942,0.539263,0.006346,0.842114,0.130583,-0.009016,-0.057110,-23.489086,15.532022,11.432794,,,,,,
1467746429.12,2.567415,-0.005684,-0.062256,-0.055812,-0.496334,0.037013,0.543136,0.005684,0.839626,0.154588,-0.004051,-0.072185,-23.489086,15.532022,11.432794,,,,,,
1467746429.13,2.558776,-0.005018,-0.062228,-0.062243,-0.535640,0.034060,0.550371,0.005018,0.834905,0.107878,0.001772,-0.055776,-23.256168,15.539944,11.889086,,,,,,
1467746429.14,2.554301,-0.004338,-0.062129,-0.062077,-0.411395,0.027958,0.554103,0.004338,0.832437,0.092183,0.005229,0.009910,-23.256168,15.539944,11.889086,,,,,,
1467746429.16,2.548696,-0.003163,-0.061783,-0.057540,-0.208560,0.014982,0.558763,0.003163,0.829322,0.105864,-0.005040,-0.020682,-23.085463,15.543041,12.213307,,,,,,
1467746429.15,2.551010,-0.003730,-0.061982,-0.057673,-0.306261,0.020917,0.556841,0.003730,0.830611,0.078260,-0.002265,-0.002608,-23.085463,15.543041,12.213307,,,,,,
1467746429.17,2.542565,-0.002391,-0.061581,-0.059725,-0.252131,0.015254,0.563838,0.002391,0.825882,0.128957,-0.006038,-0.019821,-23.085463,15.543041,12.213307,,,,,,
1467746429.18,2.539391,-0.001795,-0.061383,-0.060894,-0.333892,0.016830,0.566458,0.001795,0.824089,0.142878,-0.004420,-0.034263,-23.085463,15.543041,12.213307,,,,,,
1467746429.19,2.535626,-0.001192,-0.061193,-0.062035,-0.391235,0.019317,0.569556,0.001192,0.821952,0.148355,-0.012956,-0.039786,-22.869703,15.532754,12.625367,,,,,,
1467746429.20,2.530959,-0.000564,-0.060997,-0.061100,-0.493171,0.021022,0.573386,0.000564,0.819285,0.137338,-0.005355,0.005865,-22.869703,15.532754,12.625367,,,,,,
1467746429.21,2.524060,0.000213,-0.060845,-0.057858,-0.452848,0.021838,0.579025,-0.000213,0.815310,0.135498,-0.009050,-0.009676,-22.775888,15.525609,12.802502,,,,,,
1467746429.22,2.519144,0.000807,-0.060607,-0.063276,-0.543072,0.012818,0.583027,-0.000807,0.812453,0.205593,0.003660,-0.044447,-22.775888,15.525609,12.802502,,,,,,
1467746429.23,2.511147,0.001479,-0.060325,-0.073273,-0.866929,0.019097,0.589504,-0.001479,0.807764,0.149326,-0.009888,-0.024698,-22.775888,15.525609,12.802502,,,,,,
1467746429.24,2.503155,0.002129,-0.060072,-0.063527,-0.738453,0.017236,0.595940,-0.002129,0.803026,0.110481,-0.005927,0.036833,-22.775888,15.525609,12.802502,,,,,,
1467746429.25,2.496303,0.002743,-0.059813,-0.064507,-0.673679,0.014700,0.601428,-0.002743,0.798922,0.149747,-0.005893,0.019406,-22.442146,15.509503,13.397579,,,,,,
1467746429.26,2.487689,0.003402,-0.059539,-0.070139,-0.914715,0.019400,0.608286,-0.003402,0.793711,0.151007,-0.007096,-0.016672,-22.442146,15.509503,13.397579,,,,,,
1467746429.27,2.478226,0.004127,-0.059225,-0.077630,-0.946562,0.018528,0.615768,-0.004127,0.787917,0.162003,-0.001610,-0.017195,-22.235384,15.499198,13.749628,,,,,,
1467746429.28,2.468188,0.004890,-0.058877,-0.083060,-1.031504,0.019055,0.623643,-0.004890,0.781694,0.132842,-0.006844,0.027327,-22.235384,15.499198,13.749628,,,,,,
1467746429.29,2.457930,0.005652,-0.058556,-0.076632,-0.993294,0.023079,0.631627,-0.005652,0.775252,0.086787,-0.004404,0.058778,-22.235384,15.499198,13.749628,,,,,,
1467746429.30,2.449267,0.006356,-0.058217,-0.075366,-0.839321,0.017857,0.638316,-0.006356,0.769748,0.109441,-0.004142,0.051709,-22.235384,15.499198,13.749628,,,,,,
1467746429.31,2.440403,0.007037,-0.057863,-0.074393,-0.915766,0.016209,0.645111,-0.007037,0.764056,0.134201,0.002001,0.054105,-21.678249,15.473342,14.639630,,,,,,
1467746429.32,2.430731,0.007725,-0.057465,-0.080846,-0.973091,0.013369,0.652468,-0.007725,0.757777,0.138182,-0.005886,0.007054,-21.678249,15.473342,14.639630,,,,,,
1467746429.33,2.420819,0.008445,-0.057011,-0.083012,-1.004938,0.011437,0.659943,-0.008444,0.751269,0.125061,-0.003717,0.043867,-21.412773,15.458527,15.040504,,,,,,
1467746429.34,2.410849,0.009112,-0.056593,-0.076586,-0.972031,0.013366,0.667396,-0.009112,0.744647,0.079247,-0.002424,0.096188,-21.412773,15.458527,15.040504,,,,,,
1467746429.35,2.402514,0.009756,-0.056165,-0.076358,-0.793643,0.010119,0.673575,-0.009755,0.739054,0.100747,-0.009379,0.062643,-21.412773,15.458527,15.040504,,,,,,
1467746429.36,2.394077,0.010423,-0.055722,-0.081804,-0.886025,0.013886,0.679782,-0.010423,0.733340,0.128003,-0.006530,0.043332,-20.818998,15.420504,15.889210,,,,,,
1467746429.37,2.384547,0.011146,-0.055249,-0.084005,-0.943362,0.014243,0.686735,-0.011145,0.726823,0.093707,0.000418,0.070235,-20.818998,15.420504,15.889210,,,,,,
1467746429.38,2.376215,0.011846,-0.054776,-0.083831,-0.804266,0.013371,0.692761,-0.011846,0.721070,0.099598,-0.007960,0.068221,-20.525875,15.399754,16.285755,,,,,,
1467746429.39,2.368149,0.012526,-0.054303,-0.080642,-0.808514,0.013401,0.698548,-0.012526,0.715453,0.075759,-0.000368,0.098908,-20.525875,15.399754,16.285755,,,,,,
1467746429.40,2.360906,0.013142,-0.053826,-0.076215,-0.681089,0.008348,0.703707,-0.013141,0.710369,0.083540,-0.003445,0.090626,-20.525875,15.399754,16.285755,,,,,,
1467746429.41,2.354544,0.013727,-0.053304,-0.078284,-0.641786,0.002778,0.708206,-0.013727,0.705872,0.097473,-0.003272,0.069366,-20.525875,15.399754,16.285755,,,,,,
1467746429.42,2.347915,0.014295,-0.052772,-0.077230,-0.650281,0.002832,0.712864,-0.014294,0.701157,0.057232,0.002423,0.119110,-20.021496,15.354741,16.942883,,,,,,
1467746429.43,2.343008,0.014798,-0.052276,-0.070570,-0.433677,0.001480,0.716291,-0.014798,0.697645,0.073931,-0.007907,0.108492,-20.021496,15.354741,16.942883,,,,,,
1467746429.44,2.338301,0.015287,-0.051766,-0.072809,-0.522864,0.000973,0.719561,-0.015286,0.694261,0.125501,-0.007861,0.051650,-19.824196,15.330232,17.195198,,,,,,
1467746429.45,2.331672,0.015865,-0.051227,-0.078325,-0.669402,0.006144,0.724141,-0.015864,0.689469,0.063273,-0.002141,0.085250,-19.824196,15.330232,17.195198,,,,,,
1467746429.46,2.326960,0.016423,-0.050717,-0.073725,-0.397583,0.004444,0.727376,-0.016423,0.686043,0.057857,-0.004253,0.130073,-19.824196,15.330232,17.195198,,,,,,
1467746429.47,2.323346,0.016917,-0.050214,-0.070499,-0.375281,0.002178,0.729844,-0.016917,0.683405,0.048507,0.004267,0.110510,-19.627525,15.305155,17.441391,,,,,,
1467746429.48,2.322583,0.017552,-0.049764,-0.069295,-0.262709,0.002538,0.730358,-0.017551,0.682840,0.018941,-0.005810,0.124228,-19.627525,15.305155,17.441391,,,,,,
1467746429.49,2.321677,0.018022,-0.049258,-0.067959,-0.049282,-0.000928,0.730969,-0.018021,0.682172,0.053287,-0.001708,0.105990,-19.627525,15.305155,17.441391,,,,,,
1467746429.50,2.320914,0.018516,-0.048709,-0.074407,-0.097060,-0.000635,0.731483,-0.018515,0.681608,0.043923,-0.000146,0.096666,-19.449247,15.258290,17.680529,,,,,,
1467746429.51,2.320598,0.019014,-0.048214,-0.068949,0.018659,0.003967,0.731692,-0.019013,0.681370,0.024366,0.001038,0.132015,-19.449247,15.258290,17.680529,,,,,,
1467746429.52,2.322023,0.019525,-0.047743,-0.070904,0.160936,0.005202,0.730713,-0.019524,0.682406,0.072205,-0.015266,0.101820,-19.449247,15.258290,17.680529,,,,,,
1467746429.53,2.321886,0.020083,-0.047247,-0.074422,-0.093901,0.008926,0.730798,-0.020081,0.682298,0.093299,-0.003326,0.060469,-19.430269,15.233072,17.723087,,,,,,
1467746429.54,2.323710,0.020886,-0.046803,-0.082933,-0.086437,0.009935,0.729541,-0.020885,0.683618,0.021237,-0.006321,0.131048,-19.430269,15.233072,17.723087,,,,,,
1467746429.55,2.323843,0.021499,-0.046278,-0.078521,0.035668,0.009174,0.729440,-0.021497,0.683707,-0.058511,0.009534,0.227594,-19.430269,15.233072,17.723087,,,,,,
1467746429.56,2.325231,0.022009,-0.045835,-0.066619,0.182200,0.005074,0.728483,-0.022007,0.684711,-0.128324,0.007664,0.275418,-19.430269,15.233072,17.723087,,,,,,
1467746429.57,2.327765,0.022544,-0.045358,-0.071831,0.274574,0.006618,0.726737,-0.022542,0.686546,-0.194251,0.017430,0.316887,-19.480940,15.187565,17.706509,,,,,,
1467746429.58,2.331510,0.023055,-0.044913,-0.066336,0.412602,0.006822,0.724152,-0.023053,0.689255,-0.246781,0.016141,0.343185,-19.480940,15.187565,17.706509,,,,,,
1467746429.59,2.336668,0.023506,-0.044539,-0.055516,0.553811,0.008076,0.720579,-0.023504,0.692974,-0.292890,0.020879,0.352543,-19.548641,15.165627,17.650612,,,,,,
1467746429.60,2.342965,0.023973,-0.044227,-0.055420,0.638740,0.012866,0.716194,-0.023971,0.697490,-0.298271,0.010055,0.335728,-19.548641,15.165627,17.650612,,,,,,
1467746429.61,2.349167,0.024500,-0.043988,-0.052269,0.619600,0.022569,0.711845,-0.024497,0.701909,-0.343437,0.016914,0.336863,-19.548641,15.165627,17.650612,,,,,,
1467746429.62,2.355651,0.025095,-0.043775,-0.054362,0.658870,0.028707,0.707268,-0.025092,0.706500,-0.395745,0.013282,0.367795,-19.915915,15.133722,17.263151,,,,,,
1467746429.63,2.362854,0.025721,-0.043657,-0.052156,0.735292,0.037810,0.702150,-0.025718,0.711564,-0.436296,0.014335,0.380583,-19.915915,15.133722,17.263151,,,,,,
1467746429.64,2.370366,0.026376,-0.043596,-0.048951,0.752265,0.043029,0.696773,-0.026373,0.716807,-0.455761,0.022497,0.382925,-19.915915,15.133722,17.263151,,,,,,
1467746429.65,2.378007,0.027138,-0.043635,-0.055347,0.773457,0.059921,0.691261,-0.027135,0.722095,-0.469475,0.015279,0.370312,-20.141054,15.127520,17.005459,,,,,,
1467746429.66,2.386205,0.027901,-0.043828,-0.039334,0.822266,0.069211,0.685304,-0.027897,0.727723,-0.389314,0.022496,0.336380,-20.141054,15.127520,17.005459,,,,,,
1467746429.67,2.393236,0.028687,-0.044059,-0.040607,0.655564,0.070255,0.680156,-0.028683,0.732507,-0.347163,0.029018,0.284415,-20.141054,15.127520,17.005459,,,,,,
1467746429.68,2.399877,0.029355,-0.044413,-0.023519,0.699086,0.071064,0.675263,-0.029351,0.736993,-0.358048,0.033623,0.311530,-20.613161,15.144076,16.414755,,,,,,
1467746429.69,2.408724,0.030007,-0.044808,-0.017905,0.939036,0.074887,0.668703,-0.030003,0.742924,-0.310671,0.016270,0.297131,-20.613161,15.144076,16.414755,,,,,,
1467746429.70,2.418159,0.030615,-0.045341,-0.012635,0.908221,0.082537,0.661652,-0.030610,0.749186,-0.134782,0.011110,0.167150,-20.613161,15.144076,16.414755,,,,,,
1467746429.71,2.425150,0.031367,-0.045833,-0.025772,0.624720,0.086430,0.656383,-0.031361,0.753776,0.021626,0.006352,0.022546,-20.613161,15.144076,16.414755,,,,,,
1467746429.72,2.429722,0.032105,-0.046387,-0.022850,0.412349,0.090958,0.652915,-0.032100,0.756751,0.111337,0.000636,-0.038489,-21.078608,15.195943,15.762782,,,,,,
1467746429.73,2.433082,0.032902,-0.046888,-0.025104,0.309361,0.089473,0.650352,-0.032896,0.758921,0.158669,-0.007357,-0.076014,-21.078608,15.195943,15.762782,,,,,,
1467746429.74,2.434978,0.033736,-0.047418,-0.035982,0.137334,0.097992,0.648894,-0.033730,0.760131,0.212847,-0.018867,-0.137100,-21.175081,15.226573,15.603109,,,,,,
1467746429.75,2.434794,0.034869,-0.047843,-0.058620,-0.070792,0.107791,0.649008,-0.034862,0.759982,0.244440,-0.033726,-0.201602,-21.175081,15.226573,15.603109,,,,,,
1467746429.76,2.432879,0.035997,-0.048258,-0.064129,-0.228980,0.102391,0.650436,-0.035989,0.758708,0.275376,-0.010840,-0.211528,-21.175081,15.226573,15.603109,,,,,,
1467746429.77,2.429974,0.037135,-0.048573,-0.064205,-0.300103,0.096450,0.652610,-0.037127,0.756784,0.256310,-0.002821,-0.205636,-21.175081,15.226573,15.603109,,,,,,
1467746429.78,2.427013,0.038295,-0.048802,-0.073784,-0.302213,0.093260,0.654819,-0.038286,0.754815,0.256008,-0.011900,-0.226586,-21.063942,15.278758,15.702213,,,,,,
1467746429.79,2.423536,0.039570,-0.049004,-0.086653,-0.365932,0.100034,0.657407,-0.039560,0.752496,0.255251,-0.024024,-0.255991,-21.063942,15.278758,15.702213,,,,,,
1467746429.80,2.423960,0.040515,-0.049262,-0.109059,-0.401985,0.102364,0.657064,-0.040504,0.752746,0.247035,-0.030312,-0.276901,-21.063942,15.278758,15.702213,,,,,,
1467746429.82,2.415725,0.043845,-0.049074,-0.131358,-0.351013,0.104151,0.663147,-0.043831,0.747205,0.122910,-0.002906,-0.147977,-20.932707,15.294542,15.861540,,,,,,
1467746429.81,2.419734,0.042133,-0.049194,-0.134669,-0.445509,0.103676,0.660194,-0.042120,0.749913,0.235161,-0.028574,-0.262044,-20.932707,15.294542,15.861540,,,,,,
1467746429.83,2.413575,0.045338,-0.048920,-0.152475,-0.197063,0.111678,0.664707,-0.045322,0.745728,0.092739,-0.029461,-0.128571,-20.932707,15.294542,15.861540,,,,,,
1467746429.84,2.412409,0.047187,-0.048759,-0.152346,-0.094068,0.111032,0.665519,-0.047170,0.744888,0.079933,-0.000148,-0.095963,-20.715975,15.302621,16.135914,,,,,,
1467746429.85,2.412034,0.049178,-0.048492,-0.160762,-0.010188,0.112627,0.665735,-0.049158,0.744567,0.065924,-0.005758,-0.093292,-20.715975,15.302621,16.135914,,,,,,
1467746429.86,2.412396,0.051131,-0.048217,-0.168155,0.034418,0.110210,0.665400,-0.051109,0.744736,0.099661,-0.002724,-0.096023,-20.657116,15.298004,16.215553,,,,,,
1467746429.87,2.407305,0.052830,-0.047609,-0.166031,0.020576,0.104976,0.669124,-0.052805,0.741272,0.072636,0.009562,-0.067688,-20.657116,15.298004,16.215553,,,,,,
1467746429.88,2.407576,0.054843,-0.047249,-0.173486,0.025877,0.109193,0.668850,-0.054815,0.741373,0.047657,-0.009745,-0.040934,-20.657116,15.298004,16.215553,,,,,,
1467746429.89,2.407635,0.056750,-0.046900,-0.166046,0.000416,0.099780,0.668735,-0.056720,0.741334,-0.012531,0.012317,0.022964,-20.657116,15.298004,16.215553,,,,,,
1467746429.90,2.408119,0.058534,-0.046573,-0.148887,0.088555,0.092857,0.668307,-0.058500,0.741581,-0.127353,0.027342,0.128368,-20.527491,15.268605,16.406750,,,,,,
1467746429.91,2.422549,0.060354,-0.046979,-0.148620,0.301034,0.091526,0.657466,-0.060318,0.751066,-0.203090,-0.000809,0.187884,-20.527491,15.268605,16.406750,,,,,,
1467746429.92,2.426683,0.061876,-0.046772,-0.120745,0.440139,0.082166,0.654294,-0.061837,0.753708,-0.211622,0.033852,0.216980,-20.732653,15.276221,16.139513,,,,,,
1467746429.93,2.431379,0.063313,-0.046621,-0.119632,0.480484,0.082978,0.650689,-0.063271,0.756703,-0.203271,0.023644,0.185588,-20.732653,15.276221,16.139513,,,,,,
1467746429.94,2.436741,0.064672,-0.046525,-0.103571,0.548437,0.080439,0.646566,-0.064627,0.760116,-0.155553,0.020437,0.153214,-20.849382,15.271257,15.993173,,,,,,
1467746429.95,2.438335,0.065365,-0.046229,-0.092908,0.550531,0.075111,0.645325,-0.065318,0.761111,-0.086319,0.020351,0.101743,-20.849382,15.271257,15.993173,,,,,,
1467746429.96,2.443162,0.066470,-0.046237,-0.080241,0.453915,0.070408,0.641596,-0.066421,0.764161,-0.000208,0.017883,0.030776,-20.849382,15.271257,15.993173,,,,,,
1467746429.97,2.446656,0.067470,-0.046229,-0.074001,0.319093,0.060615,0.638880,-0.067419,0.766347,0.055716,0.014425,-0.021199,-20.944828,15.263971,15.874983,,,,,,
1467746429.98,2.449315,0.068349,-0.046195,-0.068745,0.251158,0.052531,0.636802,-0.068296,0.767997,0.087517,0.012632,-0.041098,-20.944828,15.263971,15.874983,,,,,,
1467746429.99,2.449036,0.068428,-0.046045,-0.057151,0.143908,0.046824,0.637012,-0.068374,0.767815,0.111263,0.011810,-0.053948,-20.944828,15.263971,15.874983,,,,,,
1467746430.00,2.449557,0.069107,-0.045966,-0.056207,0.027144,0.034784,0.636582,-0.069052,0.768111,0.100387,0.001455,-0.061522,-21.086006,15.263478,15.687453,,,,,,
1467746430.01,2.449693,0.069618,-0.045843,-0.044479,0.015499,0.019967,0.636456,-0.069561,0.768170,0.076374,0.017102,-0.029446,-21.086006,15.263478,15.687453,,,,,,
1467746430.02,2.449944,0.069994,-0.045693,-0.032730,0.028264,0.009254,0.636246,-0.069937,0.768310,0.051223,0.016333,-0.011214,-21.086006,15.263478,15.687453,,,,,,
1467746430.03,2.447878,0.069968,-0.045410,-0.028512,-0.011036,0.006309,0.637833,-0.069911,0.766995,0.048782,0.005977,-0.018017,-21.087297,15.259850,15.689247,,,,,,
1467746430.04,2.447392,0.070306,-0.045269,-0.037105,-0.062013,0.011943,0.638191,-0.070248,0.766666,0.027046,-0.018772,-0.030521,-21.087297,15.259850,15.689247,,,,,,
1467746430.05,2.446578,0.070668,-0.045089,-0.038181,-0.080049,0.006733,0.638798,-0.070609,0.766127,-0.017872,-0.007669,0.008576,-21.087297,15.259850,15.689247,,,,,,
1467746430.06,2.446207,0.070889,-0.044933,-0.024248,-0.015271,0.001018,0.639072,-0.070829,0.765878,-0.063877,0.016996,0.071432,-21.037718,15.241528,15.773394,,,,,,
1467746430.07,2.451445,0.071295,-0.045159,-0.023128,0.034673,0.003901,0.635034,-0.071235,0.769193,-0.086999,-0.005028,0.079120,-21.037718,15.241528,15.773394,,,,,,
1467746430.08,2.451832,0.071403,-0.045052,-0.011385,0.048489,-0.002561,0.634731,-0.071342,0.769433,-0.102367,0.012184,0.090385,-21.037718,15.241528,15.773394,,,,,,
1467746430.09,2.453163,0.071469,-0.045013,-0.006998,0.163141,0.004176,0.633703,-0.071408,0.770274,-0.100073,0.005292,0.094259,-21.107233,15.244222,15.677628,,,,,,
1467746430.10,2.454917,0.071536,-0.045010,-0.005941,0.154649,0.003166,0.632348,-0.071475,0.771380,-0.027307,-0.010083,0.031766,-21.107233,15.244222,15.677628,,,,,,
1467746430.11,2.454258,0.070684,-0.044918,0.008808,0.011258,-0.006563,0.632895,-0.070625,0.771010,0.022180,0.019570,-0.012465,-21.107233,15.244222,15.677628,,,,,,
1467746430.12,2.454517,0.070577,-0.044893,0.002450,0.033562,-0.007774,0.632700,-0.070518,0.771180,0.041357,0.005210,-0.016419,-21.160263,15.237076,15.612960,,,,,,
1467746430.13,2.454343,0.070435,-0.044816,0.009820,-0.051354,-0.018943,0.632840,-0.070377,0.771077,0.059634,-0.003018,-0.036626,-21.160263,15.237076,15.612960,,,,,,
1467746430.14,2.452830,0.070248,-0.044725,0.007547,-0.166027,-0.018226,0.634015,-0.070191,0.770129,0.033527,0.017487,-0.025653,-21.165319,15.234062,15.609042,,,,,,
1467746430.15,2.450750,0.071086,-0.044600,-0.004177,-0.157555,-0.009771,0.635578,-0.071026,0.768763,0.004162,-0.021610,-0.011271,-21.165319,15.234062,15.609042,,,,,,
1467746430.16,2.448698,0.070973,-0.044564,0.009580,-0.226576,-0.010388,0.637159,-0.070913,0.767464,0.008944,0.010351,0.004967,-21.165319,15.234062,15.609042,,,,,,
1467746430.17,2.445886,0.070919,-0.044505,-0.001154,-0.290288,-0.006806,0.639317,-0.070859,0.765672,-0.007481,-0.003359,-0.001283,-21.105537,15.229279,15.694422,,,,,,
1467746430.18,2.443085,0.070888,-0.044518,0.004177,-0.274381,-0.000514,0.641461,-0.070829,0.763879,-0.038021,-0.004946,0.021567,-21.105537,15.229279,15.694422,,,,,,
1467746430.19,2.444314,0.070655,-0.044756,0.003222,-0.191524,-0.003164,0.640531,-0.070596,0.764680,-0.066954,0.005090,0.052474,-21.105537,15.229279,15.694422,,,,,,
1467746430.20,2.443298,0.070584,-0.044781,0.005495,-0.075791,-0.002823,0.641312,-0.070525,0.764032,-0.057724,0.001281,0.048742,-21.105537,15.229279,15.694422,,,,,,
1467746430.21,2.442805,0.070585,-0.044769,-0.001928,-0.048187,-0.000875,0.641688,-0.070526,0.763716,-0.009151,-0.011825,-0.007261,-21.006332,15.232783,15.823588,,,,,,
1467746430.22,2.442308,0.070628,-0.044707,-0.010445,-0.049241,-0.001941,0.642066,-0.070569,0.763395,0.048455,-0.006549,-0.053174,-21.006332,15.232783,15.823588,,,,,,
1467746430.23,2.436121,0.071790,-0.044129,-0.031760,-0.062020,-0.002943,0.646723,-0.071728,0.759345,0.094610,-0.022846,-0.102881,-21.006332,15.232783,15.823588,,,,,,
1467746430.24,2.434702,0.072036,-0.043950,-0.024432,-0.151233,0.004011,0.647788,-0.071973,0.758413,0.091134,-0.001376,-0.103246,-20.872736,15.217894,16.013569,,,,,,
1467746430.25,2.433568,0.072386,-0.043762,-0.046742,-0.100275,0.011120,0.648631,-0.072323,0.757659,0.042729,-0.015156,-0.051665,-20.872736,15.217894,16.013569,,,,,,
1467746430.26,2.433079,0.072835,-0.043667,-0.040294,-0.027058,0.026634,0.648981,-0.072771,0.757316,-0.035089,-0.009596,0.006706,-20.872736,15.217894,16.013569,,,,,,
1467746430.27,2.437241,0.074591,-0.043842,-0.052987,0.057903,0.034610,0.645739,-0.074522,0.759913,-0.093981,-0.024172,0.031820,-20.830549,15.209081,16.076746,,,,,,
1467746430.28,2.439432,0.075201,-0.043885,-0.047408,0.279785,0.044933,0.644043,-0.075130,0.761291,-0.143967,0.009350,0.107834,-20.830549,15.209081,16.076746,,,,,,
1467746430.29,2.443570,0.075863,-0.044044,-0.032315,0.449631,0.056657,0.640856,-0.075790,0.763911,-0.126726,-0.000992,0.096944,-20.830549,15.209081,16.076746,,,,,,
1467746430.30,2.448309,0.076447,-0.044224,-0.036545,0.459213,0.048077,0.637200,-0.076372,0.766905,-0.029228,-0.003065,0.029680,-20.952690,15.221007,15.905828,,,,,,
1467746430.31,2.451623,0.076523,-0.044244,-0.022703,0.427396,0.029128,0.634651,-0.076448,0.769008,0.031746,0.008943,-0.008053,-20.952690,15.221007,15.905828,,,,,,
1467746430.32,2.456406,0.076850,-0.044210,-0.026864,0.484771,0.015991,0.630950,-0.076774,0.772015,0.042329,0.016868,-0.023541,-20.952690,15.221007,15.905828,,,,,,
1467746430.33,2.461395,0.077086,-0.044244,-0.015131,0.504933,0.018005,0.627079,-0.077010,0.775140,0.025051,0.011458,-0.009606,-21.071129,15.227087,15.742714,,,,,,
1467746430.34,2.465600,0.077354,-0.044232,-0.020594,0.387088,0.014481,0.623801,-0.077277,0.777754,0.066217,-0.001458,-0.049986,-21.071129,15.227087,15.742714,,,,,,
1467746430.35,2.467540,0.076499,-0.044080,-0.007801,0.376480,0.002846,0.622332,-0.076424,0.779013,0.049604,0.025154,-0.020285,-21.071129,15.227087,15.742714,,,,,,
1467746430.36,2.471506,0.076578,-0.044072,-0.005645,0.397715,0.002715,0.619234,-0.076503,0.781471,0.031920,-0.003132,-0.005974,-21.321379,15.222765,15.406357,,,,,,
1467746430.37,2.474873,0.076608,-0.044061,-0.003621,0.310652,0.001134,0.616598,-0.076533,0.783549,0.028666,0.013545,-0.023692,-21.321379,15.222765,15.406357,,,,,,
1467746430.38,2.477628,0.076676,-0.044045,-0.006867,0.272423,0.003499,0.614433,-0.076601,0.785241,-0.002968,0.009981,-0.009469,-21.321379,15.222765,15.406357,,,,,,
1467746430.39,2.482264,0.076906,-0.044228,0.003795,0.288355,0.005540,0.610776,-0.076831,0.788067,-0.036466,-0.004499,0.023059,-21.433004,15.222396,15.251052,,,,,,
1467746430.40,2.485674,0.076846,-0.044301,0.011354,0.369054,0.002913,0.608088,-0.076770,0.790149,-0.070902,0.006351,0.079831,-21.433004,15.222396,15.251052,,,,,,
1467746430.41,2.490437,0.076656,-0.044435,0.023222,0.484799,-0.003123,0.604326,-0.076581,0.793048,-0.058229,0.002439,0.083142,-21.433004,15.222396,15.251052,,,,,,
1467746430.42,2.493754,0.076415,-0.044525,0.028309,0.284136,-0.009311,0.601704,-0.076340,0.795063,0.015926,-0.001953,-0.011554,-21.662390,15.232258,14.913377,,,,,,
1467746430.43,2.495793,0.075640,-0.044533,0.017663,0.284132,-0.008260,0.600116,-0.075568,0.796335,0.016690,0.013816,-0.012522,-21.662390,15.232258,14.913377,,,,,,
1467746430.44,2.498819,0.075330,-0.044574,0.033666,0.292648,-0.018942,0.597718,-0.075259,0.798166,0.026015,-0.002317,-0.014307,-21.662390,15.232258,14.913377,,,,,,
1467746430.45,2.501222,0.074965,-0.044522,0.025087,0.228970,-0.028131,0.595815,-0.074894,0.799622,0.038371,0.008213,-0.020157,-21.749966,15.233518,14.784061,,,,,,
1467746430.46,2.503571,0.074509,-0.044463,0.033632,0.241722,-0.033525,0.593955,-0.074440,0.801047,0.033517,0.003990,-0.010184,-21.749966,15.233518,14.784061,,,,,,
1467746430.47,2.505101,0.073724,-0.044290,0.033652,0.248099,-0.038889,0.592763,-0.073658,0.802002,0.025996,0.006595,-0.010009,-21.749966,15.233518,14.784061,,,,,,
1467746430.48,2.507497,0.073236,-0.044140,0.030447,0.234306,-0.041999,0.590861,-0.073171,0.803449,0.025198,0.000951,-0.019147,-21.907204,15.224675,14.559304,,,,,,
1467746430.49,2.509624,0.072719,-0.044013,0.033609,0.214122,-0.038676,0.589173,-0.072655,0.804734,0.028274,0.005059,-0.017899,-21.907204,15.224675,14.559304,,,,,,
1467746430.50,2.509238,0.072277,-0.043710,0.019678,0.147207,-0.035078,0.589503,-0.072214,0.804532,0.046896,0.001154,-0.033948,-21.907204,15.224675,14.559304,,,,,,
1467746430.51,2.509519,0.071793,-0.043533,0.032297,0.004948,-0.044817,0.589297,-0.071732,0.804726,0.008649,0.011063,0.002190,-21.985556,15.216094,14.449756,,,,,,
1467746430.52,2.509789,0.071294,-0.043353,0.030209,0.041045,-0.042917,0.589101,-0.071234,0.804914,0.007213,-0.007013,0.003985,-21.985556,15.216094,14.449756,,,,,,
1467746430.53,2.509721,0.070768,-0.043190,0.033310,-0.038583,-0.045608,0.589178,-0.070709,0.804904,-0.005865,0.012085,0.004591,-21.985556,15.216094,14.449756,,,,,,
1467746430.54,2.508367,0.070871,-0.043020,0.032154,-0.101244,-0.040955,0.590262,-0.070811,0.804099,0.007562,-0.017308,-0.004280,-22.015394,15.191891,14.429781,,,,,,
1467746430.55,2.507465,0.070377,-0.042846,0.028970,-0.098048,-0.044172,0.591009,-0.070319,0.803594,0.037424,-0.022973,0.000315,-22.015394,15.191891,14.429781,,,,,,
1467746430.56,2.505895,0.069711,-0.042627,0.047010,-0.173398,-0.060712,0.592297,-0.069655,0.802703,0.006626,0.019072,0.019516,-22.015394,15.191891,14.429781,,,,,,
1467746430.57,2.504637,0.069016,-0.042441,0.039615,-0.111836,-0.051526,0.593335,-0.068961,0.801996,0.031359,0.005393,-0.088861,-21.990843,15.182353,14.477178,,,,,,
1467746430.58,2.499647,0.068174,-0.042172,0.022240,-0.343392,-0.024547,0.597364,-0.068121,0.799072,-0.003873,0.016302,-0.098678,-21.990843,15.182353,14.477178,,,,,,
1467746430.59,2.494485,0.068145,-0.042153,-0.003621,-0.546257,0.003311,0.601482,-0.068092,0.795979,-0.042949,-0.007424,0.002529,-21.990843,15.182353,14.477178,,,,,,
1467746430.60,2.489522,0.068191,-0.042182,0.002866,-0.470866,0.000716,0.605423,-0.068139,0.792982,-0.046722,0.007988,0.092150,-21.830585,15.161077,14.739639,,,,,,
1467746430.61,2.485215,0.067954,-0.042236,0.028521,-0.409262,-0.011354,0.608843,-0.067902,0.790379,-0.079058,-0.005066,0.119380,-21.830585,15.161077,14.739639,,,,,,
1467746430.62,2.486981,0.068669,-0.042590,0.016931,-0.307278,-0.011999,0.607417,-0.068615,0.791415,-0.118372,-0.025715,0.069074,-21.830585,15.161077,14.739639,,,,,,
1467746430.63,2.484942,0.068497,-0.042664,0.019223,-0.162900,-0.003322,0.609036,-0.068444,0.790184,-0.058331,-0.009269,0.016762,-21.693693,15.162992,14.938440,,,,,,
1467746430.64,2.483314,0.068492,-0.042754,0.001074,-0.180977,0.009547,0.610322,-0.068438,0.789191,-0.035569,-0.012174,0.003335,-21.693693,15.162992,14.938440,,,,,,
1467746430.65,2.481742,0.068398,-0.042825,0.016070,-0.129983,-0.003532,0.611565,-0.068345,0.788236,0.019645,0.024048,0.006701,-21.693693,15.162992,14.938440,,,,,,
1467746430.66,2.478116,0.069307,-0.042649,0.017251,-0.039744,-0.009413,0.614381,-0.069251,0.785964,0.059645,-0.029549,-0.058288,-21.629925,15.179045,15.014413,,,,,,
1467746430.67,2.477175,0.069454,-0.042546,-0.030802,-0.131070,0.003885,0.615114,-0.069399,0.785378,0.110563,-0.026381,-0.141838,-21.629925,15.179045,15.014413,,,,,,
1467746430.68,2.474109,0.069837,-0.042444,-0.036411,-0.341333,0.015842,0.617502,-0.069780,0.783468,0.066183,0.018556,-0.109227,-21.629925,15.179045,15.014413,,,,,,
1467746430.69,2.470787,0.070359,-0.042320,-0.052371,-0.315872,0.026311,0.620079,-0.070301,0.781383,0.007790,-0.005581,-0.013225,-21.554846,15.173204,15.127859,,,,,,
1467746430.70,2.470292,0.071989,-0.042378,-0.053359,-0.239420,0.032224,0.620394,-0.071927,0.780985,-0.052370,-0.027347,0.026555,-21.554846,15.173204,15.127859,,,,,,
1467746430.71,2.468466,0.072687,-0.042305,-0.056478,-0.167236,0.039219,0.621788,-0.072623,0.779811,-0.064460,-0.010705,0.080449,-21.554846,15.173204,15.127859,,,,,,
1467746430.72,2.467298,0.073208,-0.042318,-0.036144,-0.092905,0.033451,0.622674,-0.073143,0.779056,-0.119668,0.006264,0.096128,-21.394827,15.171256,15.355263,,,,,,
1467746430.73,2.467675,0.073719,-0.042389,-0.032745,0.080149,0.038755,0.622357,-0.073652,0.779261,-0.105572,0.014204,0.085714,-21.394827,15.171256,15.355263,,,,,,
1467746430.74,2.470701,0.073382,-0.042710,-0.029529,0.109866,0.049213,0.620012,-0.073316,0.781159,-0.054643,0.025068,0.009185,-21.394827,15.171256,15.355263,,,,,,
1467746430.75,2.470913,0.073946,-0.042859,-0.034993,-0.012221,0.043586,0.619820,-0.073878,0.781259,-0.034310,0.037639,0.019706,-21.371809,15.174850,15.383738,,,,,,
1467746430.76,2.471086,0.074343,-0.042969,-0.025311,0.048329,0.031507,0.619667,-0.074275,0.781343,0.010445,0.002665,0.016997,-21.371809,15.174850,15.383738,,,,,,
1467746430.77,2.471908,0.074630,-0.043019,-0.013533,0.077032,0.016437,0.619011,-0.074561,0.781835,0.060585,0.014945,-0.000646,-21.371809,15.174850,15.383738,,,,,,
1467746430.78,2.468705,0.074936,-0.042827,0.001295,-0.000488,0.006294,0.621498,-0.074866,0.779831,0.085290,-0.008951,-0.045913,-21.419962,15.192544,15.299071,,,,,,
1467746430.79,2.468114,0.075080,-0.042865,-0.011588,-0.074826,0.013134,0.621952,-0.075010,0.779454,0.078335,-0.018481,-0.082128,-21.419962,15.192544,15.299071,,,,,,
1467746430.80,2.466676,0.075273,-0.042877,-0.013826,-0.162951,0.012620,0.623063,-0.075202,0.778548,0.027709,0.007285,-0.018676,-21.419962,15.192544,15.299071,,,,,,
1467746430.81,2.465503,0.075296,-0.042881,0.003331,-0.086475,-0.000616,0.623974,-0.075225,0.777816,0.000614,0.021666,0.030427,-21.359491,15.189100,15.386778,,,,,,
1467746430.82,2.464831,0.075889,-0.042925,0.005524,-0.020669,0.006428,0.624469,-0.075817,0.777361,0.004986,-0.017460,-0.011949,-21.359491,15.189100,15.386778,,,,,,
1467746430.83,2.463597,0.076021,-0.042971,-0.005318,-0.169327,0.011607,0.625422,-0.075948,0.776582,-0.012430,0.012914,0.000746,-21.359491,15.189100,15.386778,,,,,,
1467746430.84,2.461415,0.076042,-0.043046,0.001041,-0.201170,0.006491,0.627113,-0.075968,0.775215,-0.078346,0.027842,0.067086,-21.279440,15.193084,15.493398,,,,,,
1467746430.85,2.460556,0.076128,-0.043188,0.002258,-0.057865,0.019431,0.627776,-0.076054,0.774670,-0.066145,-0.003612,0.053821,-21.279440,15.193084,15.493398,,,,,,
1467746430.86,2.461514,0.075036,-0.043603,0.015932,-0.204367,0.016101,0.627085,-0.074966,0.775335,-0.048075,0.030044,0.050684,-21.279440,15.193084,15.493398,,,,,,
1467746430.87,2.458778,0.074991,-0.043791,0.013730,-0.272303,0.010138,0.629206,-0.074921,0.773619,-0.078547,0.000260,0.085527,-21.228380,15.198924,15.557577,,,,,,
1467746430.88,2.457104,0.074945,-0.043979,0.010719,-0.121535,0.012382,0.630502,-0.074875,0.772568,-0.065378,-0.011810,0.054291,-21.228380,15.198924,15.557577,,,,,,
1467746430.89,2.455999,0.074936,-0.044105,0.007525,-0.130013,0.007110,0.631356,-0.074866,0.771871,-0.005471,0.018301,0.029872,-21.228380,15.198924,15.557577,,,,,,
1467746430.90,2.451179,0.074652,-0.044063,0.025569,-0.174646,0.007406,0.635082,-0.074583,0.768835,0.074283,0.003004,-0.044913,-21.156904,15.221400,15.632788,,,,,,
1467746430.91,2.448866,0.074631,-0.044237,0.010541,-0.264903,0.012215,0.636860,-0.074562,0.767366,0.144329,0.004326,-0.124772,-21.156904,15.221400,15.632788,,,,,,
1467746430.92,2.444730,0.074555,-0.044375,0.012446,-0.458129,0.004913,0.640032,-0.074486,0.764729,0.127607,-0.001701,-0.113011,-21.156904,15.221400,15.632788,,,,,,
1467746430.93,2.440411,0.074429,-0.044411,0.014670,-0.402881,-0.008204,0.643335,-0.074360,0.761965,0.105948,0.005940,-0.069475,-21.046127,15.224480,15.778637,,,,,,
1467746430.94,2.432348,0.074940,-0.044063,0.014781,-0.317966,-0.014057,0.649433,-0.074870,0.756724,0.100018,-0.020864,-0.088160,-21.046127,15.224480,15.778637,,,,,,
1467746430.95,2.428697,0.074752,-0.044021,0.011498,-0.392284,-0.015723,0.652200,-0.074682,0.754359,0.098532,0.000799,-0.093607,-21.046127,15.224480,15.778637,,,,,,
1467746430.96,2.424026,0.074519,-0.043887,0.007159,-0.475071,-0.026917,0.655729,-0.074450,0.751317,-0.005552,0.012820,-0.009984,-20.725161,15.218983,16.203081,,,,,,
1467746430.97,2.420829,0.074136,-0.043803,0.029801,-0.253159,-0.030415,0.658146,-0.074068,0.749238,-0.047718,0.001299,0.055846,-20.725161,15.218983,16.203081,,,,,,
1467746430.98,2.421870,0.074608,-0.043959,0.006427,-0.180969,-0.012791,0.657342,-0.074539,0.749897,-0.075738,-0.016724,0.032101,-20.605982,15.212447,16.360458,,,,,,
1467746430.99,2.419990,0.074435,-0.044020,0.019200,-0.172501,-0.005380,0.658759,-0.074366,0.748669,-0.080589,0.006342,0.049243,-20.605982,15.212447,16.360458,,,,,,
1467746431.00,2.419611,0.074335,-0.043982,0.004528,0.005903,-0.011836,0.659048,-0.074266,0.748425,-0.054861,0.008348,0.036304,-20.605982,15.212447,16.360458,,,,,,
1467746431.01,2.420633,0.074107,-0.044003,0.019591,0.129068,-0.013658,0.658294,-0.074039,0.749111,-0.011368,-0.001248,0.002217,-20.586502,15.218541,16.379303,,,,,,
1467746431.02,2.419895,0.073898,-0.043815,0.011057,0.116312,-0.013587,0.658857,-0.073831,0.748637,0.038043,0.002054,-0.043635,-20.586502,15.218541,16.379303,,,,,,
1467746431.03,2.420589,0.073649,-0.043779,0.016337,0.071731,-0.019689,0.658349,-0.073583,0.749107,-0.013513,0.012273,0.004921,-20.586502,15.218541,16.379303,,,,,,
1467746431.04,2.422813,0.073308,-0.043761,0.027252,0.276668,-0.026286,0.656698,-0.073242,0.750589,-0.007528,-0.006531,0.030310,-20.607241,15.211179,16.360052,,,,,,
1467746431.05,2.425988,0.072829,-0.043741,0.039034,0.317037,-0.036107,0.654335,-0.072765,0.752696,-0.001106,0.028545,0.030156,-20.607241,15.211179,16.360052,,,,,,
1467746431.06,2.430043,0.071640,-0.043867,0.051773,0.276705,-0.040102,0.651333,-0.071579,0.755408,-0.027584,0.015213,0.016564,-20.607241,15.211179,16.360052,,,,,,
1467746431.07,2.433361,0.070899,-0.043915,0.063605,0.363781,-0.045958,0.648857,-0.070839,0.757605,-0.071633,0.012948,0.068399,-20.703920,15.209123,16.239454,,,,,,
1467746431.08,2.438231,0.070059,-0.044052,0.075527,0.532599,-0.045941,0.645199,-0.070002,0.760801,-0.066616,0.004114,0.075869,-20.703920,15.209123,16.239454,,,,,,
1467746431.09,2.444118,0.069216,-0.044094,0.063898,0.588898,-0.052692,0.640746,-0.069161,0.764632,-0.039305,-0.007880,0.020235,-20.703920,15.209123,16.239454,,,,,,
1467746431.10,2.449841,0.068853,-0.044061,0.065056,0.664282,-0.054226,0.636376,-0.068799,0.768305,0.015235,-0.020770,-0.030985,-21.025730,15.213472,15.816403,,,,,,
1467746431.11,2.456341,0.068225,-0.043911,0.036259,0.624954,-0.055068,0.631395,-0.068172,0.772459,0.066771,-0.016590,-0.076505,-21.025730,15.213472,15.816403,,,,,,
1467746431.12,2.461757,0.067483,-0.043722,0.046819,0.541089,-0.063047,0.627235,-0.067431,0.775906,0.036690,0.010775,-0.029232,-21.025730,15.213472,15.816403,,,,,,
1467746431.13,2.467904,0.066790,-0.043524,0.041580,0.620707,-0.056101,0.622482,-0.066741,0.779783,0.087815,-0.026094,-0.058561,-21.229372,15.207283,15.548054,,,,,,
1467746431.14,2.468950,0.065912,-0.043147,0.039139,0.377517,-0.051387,0.621702,-0.065865,0.780479,0.087038,0.007347,-0.070320,-21.229372,15.207283,15.548054,,,,,,
1467746431.15,2.471180,0.065252,-0.043062,0.050620,0.201238,-0.044948,0.619987,-0.065206,0.781898,0.005013,0.034047,0.002007,-21.229372,15.207283,15.548054,,,,,,
1467746431.16,2.473642,0.064538,-0.043104,0.053848,0.238382,-0.038791,0.618089,-0.064493,0.783458,-0.000719,-0.002951,0.015004,-21.496756,15.180793,15.202719,,,,,,
1467746431.17,2.474603,0.063874,-0.043199,0.066381,0.049366,-0.034399,0.617362,-0.063831,0.784086,-0.063819,0.037616,0.059100,-21.496756,15.180793,15.202719,,,,,,
1467746431.18,2.478988,0.062505,-0.043728,0.069500,0.001590,-0.023454,0.613971,-0.062465,0.786853,-0.087085,0.017772,0.089917,-21.496756,15.180793,15.202719,,,,,,
1467746431.19,2.478624,0.061566,-0.044026,0.102441,-0.072714,-0.036793,0.614293,-0.061527,0.786675,-0.086156,0.061252,0.111610,-21.559843,15.182390,15.111514,,,,,,
1467746431.20,2.477796,0.060452,-0.044377,0.103514,-0.072703,-0.041050,0.614986,-0.060415,0.786220,-0.117794,0.006628,0.101811,-21.559843,15.182390,15.111514,,,,,,
1467746431.21,2.477470,0.059380,-0.044698,0.113155,-0.025989,-0.041333,0.615282,-0.059346,0.786070,-0.118959,0.023304,0.110429,-21.559843,15.182390,15.111514,,,,,,
1467746431.22,2.482660,0.058936,-0.045372,0.099353,0.015457,-0.036279,0.611210,-0.058902,0.789273,-0.121632,-0.018369,0.074786,-21.625877,15.214988,14.983830,,,,,,
1467746431.23,2.483378,0.058491,-0.045664,0.043972,0.071643,0.005891,0.610660,-0.058457,0.789733,-0.051074,-0.085265,-0.033797,-21.625877,15.214988,14.983830,,,,,,
1467746431.24,2.482313,0.058342,-0.045996,0.026594,-0.186393,0.017072,0.611505,-0.058309,0.789089,0.037970,-0.007762,-0.060284,-21.625877,15.214988,14.983830,,,,,,
1467746431.25,2.479333,0.058359,-0.046249,0.009396,-0.307445,0.023136,0.613854,-0.058326,0.787262,0.033210,-0.012063,-0.042191,-21.709852,15.238923,14.837357,,,,,,
1467746431.26,2.474564,0.058299,-0.046387,0.011501,-0.333993,0.019046,0.617603,-0.058266,0.784328,0.043392,0.002938,-0.016888,-21.709852,15.238923,14.837357,,,,,,
1467746431.27,2.470454,0.058157,-0.046580,0.027397,-0.418901,0.003627,0.620827,-0.058124,0.781790,0.005577,0.036548,0.032602,-21.709852,15.238923,14.837357,,,,,,
1467746431.28,2.467123,0.057822,-0.046731,0.041405,-0.311622,-0.012998,0.623440,-0.057790,0.779733,0.064701,0.031331,0.008262,-21.507721,15.262425,15.105163,,,,,,
,,,,,,,,,,,,,,,,29.719967,-95.399109,10.415558,-1.000000,-1.000000,1467746431.30
1467746431.29,2.463241,0.057034,-0.046903,0.076434,-0.446403,-0.042987,0.626490,-0.057003,0.777342,0.144323,0.046093,-0.059706,-21.507721,15.262425,15.105163,,,,,,
1467746431.30,2.455046,0.054741,-0.046752,0.091119,-0.712791,-0.094531,0.632921,-0.054713,0.772281,0.069502,0.046153,-0.019214,-21.507721,15.262425,15.105163,,,,,,
1467746431.31,2.447489,0.053057,-0.046396,0.123181,-0.687203,-0.138302,0.638797,-0.053032,0.767546,-0.364672,0.101005,0.385408,-21.404854,15.269132,15.243868,,,,,,
1467746431.32,2.449498,0.050655,-0.046801,0.218286,0.480656,-0.117855,0.637333,-0.050633,0.768924,-0.248722,-0.039959,0.391675,-21.404854,15.269132,15.243868,,,,,,
1467746431.33,2.452235,0.049050,-0.046910,0.116594,0.086711,-0.091004,0.635277,-0.049030,0.770727,-0.098335,-0.084057,-0.032934,-21.404854,15.269132,15.243868,,,,,,
1467746431.34,2.450065,0.047700,-0.046800,0.086388,-0.223326,-0.086961,0.636989,-0.047682,0.769396,-0.206676,0.008558,0.092786,-21.313202,15.256350,15.384439,,,,,,
1467746431.35,2.454408,0.046505,-0.047241,0.121481,0.699175,-0.024586,0.633677,-0.046488,0.772199,-0.254252,-0.065679,0.254442,-21.313202,15.256350,15.384439,,,,,,
1467746431.36,2.461845,0.046308,-0.047559,0.032952,0.624808,0.006661,0.627923,-0.046291,0.776897,-0.016443,-0.070789,-0.078243,-21.313202,15.256350,15.384439,,,,,,
1467746431.37,2.464889,0.045820,-0.047948,0.064476,0.277606,0.000355,0.625569,-0.045804,0.778823,0.079570,0.065610,-0.092208,-21.367083,15.260675,15.305202,,,,,,
1467746431.38,2.470314,0.045469,-0.048274,0.051063,0.625872,0.002415,0.621345,-0.045453,0.782218,0.177010,-0.021472,-0.132498,-21.367083,15.260675,15.305202,,,,,,
1467746431.39,2.475945,0.044957,-0.048579,0.053058,0.495311,-0.011667,0.616944,-0.044942,0.785723,0.295470,0.005849,-0.267320,-21.367083,15.260675,15.305202,,,,,,
1467746431.40,2.478648,0.044769,-0.048678,0.047384,0.185324,-0.029951,0.614824,-0.044754,0.787394,0.397170,0.001877,-0.375254,-21.689371,15.293031,14.811618,,,,,,
1467746431.41,2.479050,0.044006,-0.048615,0.059991,-0.002531,-0.061758,0.614528,-0.043991,0.787667,0.435841,0.015000,-0.373849,-21.689371,15.293031,14.811618,,,,,,
1467746431.42,2.477697,0.042942,-0.048348,0.068349,-0.180830,-0.092565,0.615622,-0.042929,0.786871,0.377512,0.009421,-0.330771,-21.689371,15.293031,14.811618,,,,,,
1467746431.43,2.475226,0.041681,-0.048010,0.081064,-0.250880,-0.104886,0.617597,-0.041669,0.785390,0.233142,0.003110,-0.203237,-21.743732,15.292325,14.732431,,,,,,
1467746431.44,2.473243,0.040655,-0.047640,0.049190,-0.168093,-0.087342,0.619179,-0.040644,0.784197,0.078376,-0.057821,-0.131548,-21.743732,15.292325,14.732431,,,,,,
1467746431.45,2.468898,0.040183,-0.047192,0.036444,-0.110829,-0.068553,0.622593,-0.040172,0.781514,0.039165,-0.033360,-0.061681,-21.743732,15.292325,14.732431,,,,,,
1467746431.46,2.467442,0.039671,-0.046869,0.016132,-0.154391,-0.054463,0.623743,-0.039661,0.780623,0.006048,-0.014981,-0.047682,-21.647299,15.248203,14.918996,,,,,,
1467746431.47,2.465759,0.039254,-0.046588,0.013971,-0.166093,-0.045876,0.625066,-0.039244,0.779585,-0.017705,0.001356,0.001910,-21.647299,15.248203,14.918996,,,,,,
1467746431.48,2.464652,0.038917,-0.046374,0.012991,-0.083298,-0.036816,0.625937,-0.038907,0.778902,-0.067206,0.003873,0.043546,-21.647299,15.248203,14.918996,,,,,,
1467746431.49,2.462624,0.038981,-0.046148,0.021676,0.061069,-0.032389,0.627514,-0.038971,0.777629,-0.072536,0.008758,0.067021,-21.616762,15.230663,14.981062,,,,,,
1467746431.50,2.463967,0.038675,-0.046013,0.013265,0.153438,-0.028719,0.626476,-0.038665,0.778481,-0.067928,-0.002198,0.041343,-21.616762,15.230663,14.981062,,,,,,
1467746431.51,2.466070,0.038406,-0.045883,0.012294,0.233065,-0.026026,0.624844,-0.038397,0.779805,-0.062161,0.005163,0.034099,-21.616762,15.230663,14.981062,,,,,,
1467746431.53,2.470499,0.038369,-0.045440,0.009395,0.469822,-0.028577,0.621385,-0.038359,0.782565,-0.047518,0.012267,0.048535,-21.638264,15.210635,14.970360,,,,,,
1467746431.52,2.469410,0.038202,-0.045732,0.005014,0.373224,-0.025848,0.622241,-0.038192,0.781893,-0.065738,-0.005112,0.035108,-21.638264,15.210635,14.970360,,,,,,
1467746431.54,2.475184,0.038316,-0.045233,-0.014062,0.460249,-0.017896,0.617713,-0.038307,0.785470,-0.047385,-0.025292,0.006522,-21.638264,15.210635,14.970360,,,,,,
1467746431.55,2.479309,0.038258,-0.045068,-0.002423,0.401844,-0.017518,0.614469,-0.038249,0.788013,-0.053312,0.010341,0.041791,-21.710224,15.198943,14.877767,,,,,,
1467746431.56,2.483545,0.038177,-0.044907,-0.004505,0.440069,-0.017760,0.611128,-0.038168,0.790611,-0.093092,0.012350,0.090141,-21.710224,15.198943,14.877767,,,,,,
1467746431.57,2.484659,0.038278,-0.044655,0.003006,0.496295,-0.012783,0.610244,-0.038268,0.791288,-0.118530,0.009338,0.117968,-21.710224,15.198943,14.877767,,,,,,
1467746431.59,2.493443,0.038048,-0.044618,0.018890,0.436808,-0.006008,0.603275,-0.038039,0.796625,-0.141071,0.025069,0.133657,-21.929432,15.178169,14.574391,,,,,,
1467746431.58,2.489163,0.038218,-0.044590,0.001852,0.431514,-0.008120,0.606675,-0.038208,0.794031,-0.131150,0.007401,0.110693,-21.929432,15.178169,14.574391,,,,,,
1467746431.60,2.498377,0.037843,-0.044679,0.017908,0.502641,-0.006422,0.599342,-0.037834,0.799599,-0.116462,0.006295,0.119850,-21.929432,15.178169,14.574391,,,,,,
1467746431.61,2.506489,0.037205,-0.044935,0.029528,0.428336,-0.004880,0.592851,-0.037197,0.804453,-0.083634,0.012630,0.079092,-22.059187,15.176765,14.378726,,,,,,
1467746431.62,2.510347,0.036993,-0.045054,0.023073,0.378429,-0.002445,0.589747,-0.036984,0.806741,-0.066660,0.008374,0.060004,-22.059187,15.176765,14.378726,,,,,,
1467746431.63,2.514185,0.036831,-0.045187,0.020946,0.385854,0.000700,0.586650,-0.036822,0.809003,-0.058177,0.003146,0.056567,-22.059187,15.176765,14.378726,,,,,,
1467746431.64,2.517800,0.036609,-0.045338,0.026225,0.346570,-0.001177,0.583726,-0.036601,0.811125,-0.029390,0.011210,0.035524,-22.356220,15.189442,13.898558,,,,,,
1467746431.65,2.521889,0.036034,-0.045505,0.028304,0.297747,-0.005128,0.580417,-0.036026,0.813522,-0.014804,0.008713,0.022888,-22.356220,15.189442,13.898558,,,,,,
1467746431.66,2.524802,0.035815,-0.045612,0.022966,0.291370,-0.001900,0.578049,-0.035807,0.815216,-0.016297,0.001505,0.006134,-22.356220,15.189442,13.898558,,,,,,
1467746431.67,2.527783,0.035590,-0.045701,0.024043,0.292445,-0.007228,0.575621,-0.035582,0.816942,0.000749,0.003493,0.013594,-22.465576,15.196287,13.713511,,,,,,
1467746431.68,2.530213,0.035399,-0.045809,0.019685,0.223413,-0.000413,0.573638,-0.035391,0.818344,0.000977,-0.001809,-0.010605,-22.465576,15.196287,13.713511,,,,,,
1467746431.69,2.532966,0.034914,-0.045924,0.019678,0.215986,-0.000368,0.571393,-0.034907,0.819934,-0.014173,0.009410,0.007047,-22.465576,15.196287,13.713511,,,,,,
1467746431.70,2.535412,0.034781,-0.046050,0.015455,0.249957,0.002608,0.569388,-0.034774,0.821333,-0.010047,-0.008744,0.012667,-22.620398,15.205167,13.446568,,,,,,
