timestamp,attitude_roll,attitude_pitch,attitude_yaw,rotation_rate_x,rotation_rate_y,rotation_rate_z,gravity_x,gravity_y,gravity_z,user_acc_x,user_acc_y,user_acc_z,magnetic_field_x,magnetic_field_y,magnetic_field_z,latitude(degree),longitude(degree),altitude(meter),speed(m/s),course(degree),timestamp
1467746736.41,2.445706,-0.156161,-0.024857,-0.007127,-0.291537,0.004150,0.633266,0.155527,0.758146,-0.770885,-0.133432,-1.758116,23.353180,47.294861,-0.559956,,,,,,
1467746736.42,2.442522,-0.156036,-0.024836,-0.010355,-0.317022,0.005371,0.635689,0.155403,0.756141,-0.812340,-0.137978,-1.754921,23.353180,47.294861,-0.559956,,,,,,
1467746736.43,2.439920,-0.155965,-0.024835,-0.003867,-0.239511,0.003827,0.637661,0.155333,0.754493,-0.821240,-0.127074,-1.719550,23.353180,47.294861,-0.559956,,,,,,
1467746736.44,2.437842,-0.155920,-0.024838,-0.003818,-0.202345,0.002529,0.639232,0.155289,0.753172,-0.836681,-0.137024,-1.733778,23.354168,47.292652,-0.690357,,,,,,
1467746736.46,2.435122,-0.155870,-0.024872,0.000597,-0.078116,0.001754,0.641283,0.155239,0.751436,-0.847231,-0.139477,-1.722445,23.354279,47.290943,-0.795494,,,,,,
1467746736.45,2.436113,-0.155885,-0.024853,-0.000572,-0.158815,0.003324,0.640537,0.155254,0.752070,-0.840961,-0.129314,-1.725947,23.354168,47.292652,-0.690357,,,,,,
1467746736.47,2.434799,-0.155881,-0.024894,0.001737,-0.019714,0.000325,0.641525,0.155250,0.751228,-0.849380,-0.133354,-1.723747,23.354279,47.290943,-0.795494,,,,,,
1467746736.48,2.434908,-0.155893,-0.024907,0.001786,0.019572,0.000079,0.641442,0.155263,0.751296,-0.838646,-0.141087,-1.733398,23.354279,47.290943,-0.795494,,,,,,
,,,,,,,,,,,,,,,,29.719968,-95.399050,9.682452,-1.000000,-1.000000,1467746765.23
,,,,,,,,,,,,,,,,29.719967,-95.399048,9.682452,-1.000000,-1.000000,1467746735.76
1467746736.49,2.435224,-0.155911,-0.024922,0.002870,0.033378,-0.001071,0.641203,0.155280,0.751496,-0.827070,-0.134681,-1.736207,23.009476,44.177341,3.434082,,,,,,
1467746736.50,2.435461,-0.155928,-0.024930,0.001783,0.017449,0.000092,0.641023,0.155297,0.751646,-0.816026,-0.139168,-1.743712,23.009476,44.177341,3.434082,,,,,,
,,,,,,,,,,,,,,,,29.719968,-95.399050,9.682452,-1.000000,-1.000000,1467746765.23
1467746736.51,2.435400,-0.155935,-0.024940,0.000682,-0.012281,0.000277,0.641068,0.155304,0.751607,-0.815613,-0.134064,-1.743169,23.009476,44.177341,3.434082,,,,,,
1467746736.52,2.435326,-0.155942,-0.024935,-0.000370,-0.003783,-0.000842,0.641123,0.155311,0.751558,-0.825022,-0.135078,-1.738054,23.007351,44.177593,3.445057,,,,,,
1467746736.53,2.435596,-0.155966,-0.024942,0.002803,0.038850,-0.001094,0.640918,0.155335,0.751728,-0.835315,-0.130920,-1.728855,23.007351,44.177593,3.445057,,,,,,
1467746736.54,2.436357,-0.156017,-0.024968,0.006060,0.090874,-0.000353,0.640340,0.155385,0.752210,-0.843206,-0.135640,-1.727003,23.007351,44.177593,3.445057,,,,,,
1467746736.55,2.437750,-0.156079,-0.024998,0.008275,0.155649,-0.002886,0.639286,0.155446,0.753094,-0.840885,-0.132283,-1.724697,23.002939,44.178585,3.461756,,,,,,
1467746736.56,2.439673,-0.156166,-0.025032,0.009397,0.201306,-0.003171,0.637827,0.155532,0.754312,-0.831049,-0.135543,-1.730890,23.002939,44.178585,3.461756,,,,,,
1467746736.57,2.441819,-0.156259,-0.025068,0.008355,0.219357,-0.003285,0.636198,0.155624,0.755668,-0.825208,-0.135864,-1.740760,23.002939,44.178585,3.461756,,,,,,
,,,,,,,,,,,,,,,,29.719968,-95.399050,9.682452,-1.000000,-1.000000,1467746765.38
1467746736.58,2.444207,-0.156343,-0.025116,0.009452,0.248019,-0.001335,0.634383,0.155707,0.757175,-0.822051,-0.137625,-1.739872,22.989170,44.180244,3.531389,,,,,,
1467746736.59,2.446932,-0.156451,-0.025152,0.011627,0.277761,-0.005777,0.632307,0.155813,0.758888,-0.810697,-0.136679,-1.741584,22.989170,44.180244,3.531389,,,,,,
1467746736.60,2.429386,-0.164194,-0.028409,0.009533,0.269136,-0.005739,0.644716,0.163457,0.746742,-0.815142,-0.146031,-1.735587,22.989170,44.180244,3.531389,,,,,,
1467746736.61,2.411540,-0.172165,-0.031864,0.009558,0.254133,-0.003531,0.657050,0.171315,0.734123,-0.821616,-0.150228,-1.724953,22.902214,44.268494,2.942018,,,,,,
1467746736.62,2.393331,-0.179998,-0.035531,0.011743,0.256128,-0.005685,0.669374,0.179028,0.721032,-0.823824,-0.157192,-1.710794,22.902214,44.268494,2.942018,,,,,,
1467746736.63,2.374547,-0.187278,-0.039393,0.009581,0.196526,-0.002134,0.681877,0.186185,0.707375,-0.831581,-0.166974,-1.712456,22.902214,44.268494,2.942018,,,,,,
1467746736.64,2.355058,-0.194208,-0.043423,0.005328,0.160297,-0.002990,0.694602,0.192989,0.693025,-0.840979,-0.177090,-1.695146,22.902214,44.268494,2.942018,,,,,,
1467746736.65,2.335754,-0.201705,-0.047570,0.006447,0.164410,-0.003030,0.706786,0.200340,0.678467,-0.856475,-0.180550,-1.669342,22.575821,44.532982,-0.111485,,,,,,
1467746736.66,2.316164,-0.208574,-0.051889,0.006467,0.140918,-0.002897,0.718913,0.207065,0.663543,-0.868144,-0.192843,-1.661208,22.575821,44.532982,-0.111485,,,,,,
1467746736.67,2.296634,-0.215797,-0.056289,0.003312,0.133355,-0.002867,0.730596,0.214126,0.648367,-0.885198,-0.197280,-1.644323,22.575821,44.532982,-0.111485,,,,,,
1467746736.68,2.276910,-0.222865,-0.060888,0.005493,0.133224,-0.003943,0.742071,0.221025,0.632834,-0.890737,-0.203645,-1.625754,22.336861,44.622692,-1.657307,,,,,,
1467746736.69,2.256830,-0.229769,-0.065663,0.003376,0.106541,-0.001664,0.753429,0.227753,0.616825,-0.898479,-0.209457,-1.617191,22.336861,44.622692,-1.657307,,,,,,
1467746736.70,2.236235,-0.236502,-0.070648,0.004459,0.080923,-0.001517,0.764748,0.234304,0.600218,-0.902672,-0.214742,-1.599806,22.336861,44.622692,-1.657307,,,,,,
,,,,,,,,,,,,,,,,29.719968,-95.399050,9.682452,-1.000000,-1.000000,1467746765.40
1467746736.71,2.215254,-0.243049,-0.075773,0.003396,0.041504,-0.001286,0.775930,0.240664,0.583107,-0.914327,-0.222048,-1.585686,21.673355,44.726849,-4.758264,,,,,,
1467746736.72,2.215413,-0.243074,-0.075797,0.002293,0.010712,-0.001094,0.775832,0.240688,0.583228,-0.913741,-0.220546,-1.584738,21.673355,44.726849,-4.758264,,,,,,
1467746736.73,2.194056,-0.249956,-0.081063,0.004474,0.011639,-0.001112,0.786747,0.247361,0.565546,-0.933765,-0.227876,-1.559839,21.673355,44.726849,-4.758264,,,,,,
1467746736.74,2.172943,-0.256868,-0.086441,0.003479,0.027433,-0.001227,0.797083,0.254052,0.547829,-0.949488,-0.234582,-1.538460,21.475624,44.732525,-5.537634,,,,,,
1467746736.75,2.151752,-0.263376,-0.092004,0.004595,0.029420,-0.000189,0.807113,0.260342,0.529897,-0.958175,-0.243176,-1.522314,21.475624,44.732525,-5.537634,,,,,,
1467746736.76,2.130422,-0.269494,-0.097715,0.002520,0.030353,-0.001277,0.816866,0.266244,0.511708,-0.967638,-0.251763,-1.507451,21.475624,44.732525,-5.537634,,,,,,
1467746736.77,2.109159,-0.275847,-0.103568,0.005771,0.035527,-0.001321,0.826092,0.272362,0.493347,-0.976940,-0.253624,-1.485932,20.474577,44.707081,-8.656524,,,,,,
1467746736.78,2.087742,-0.281765,-0.109584,0.003691,0.033271,-0.001324,0.835051,0.278052,0.474738,-0.983245,-0.261740,-1.468299,20.474577,44.707081,-8.656524,,,,,,
1467746736.79,2.065991,-0.287685,-0.115783,0.004778,0.011898,-0.000140,0.843716,0.283733,0.455674,-0.984677,-0.262585,-1.452790,20.474577,44.707081,-8.656524,,,,,,
,,,,,,,,,,,,,,,,29.719970,-95.399155,9.664897,-1.000000,-1.000000,1467746765.62
1467746736.80,2.043299,-0.292615,-0.122210,0.001561,-0.047699,0.001279,0.852582,0.288457,0.435771,-0.979810,-0.272618,-1.442530,19.893944,44.650013,-10.172218,,,,,,
1467746736.81,2.019895,-0.297456,-0.128756,-0.000588,-0.106231,0.001629,0.861279,0.293089,0.415088,-0.984539,-0.274794,-1.424929,19.893944,44.650013,-10.172218,,,,,,
1467746736.82,1.996021,-0.302235,-0.135373,-0.002735,-0.160520,0.003016,0.869656,0.297655,0.393827,-0.998395,-0.280001,-1.400144,19.893944,44.650013,-10.172218,,,,,,
1467746736.84,1.946400,-0.311084,-0.148899,-0.005972,-0.279708,0.003730,0.885635,0.306091,0.349227,-1.012206,-0.288787,-1.356643,18.595270,44.419472,-13.190645,,,,,,
1467746736.83,1.971519,-0.306804,-0.142096,-0.001689,-0.220112,0.002311,0.877782,0.302014,0.371869,-1.005239,-0.284313,-1.378781,18.595270,44.419472,-13.190645,,,,,,
1467746736.85,1.920899,-0.315233,-0.155723,-0.008113,-0.328686,0.005085,0.893051,0.310038,0.326092,-1.025879,-0.293330,-1.332684,18.595270,44.419472,-13.190645,,,,,,
1467746736.86,1.895210,-0.319445,-0.162553,-0.010240,-0.368104,0.005315,0.899886,0.314040,0.302628,-1.043044,-0.296660,-1.304291,17.821655,44.262585,-14.699616,,,,,,
1467746736.87,1.869539,-0.323908,-0.169443,-0.010179,-0.360801,0.004190,0.906009,0.318274,0.279014,-1.064975,-0.300269,-1.270866,17.821655,44.262585,-14.699616,,,,,,
1467746736.88,1.844395,-0.328647,-0.176389,-0.007943,-0.315276,0.003892,0.911276,0.322763,0.255737,-1.088415,-0.304360,-1.236923,17.821655,44.262585,-14.699616,,,,,,
1467746736.89,1.820038,-0.333532,-0.183384,-0.007808,-0.244270,0.004497,0.915694,0.327382,0.233076,-1.106765,-0.307714,-1.208998,15.944746,43.912540,-17.615913,,,,,,
1467746736.90,1.796843,-0.338833,-0.190460,-0.002306,-0.141405,0.002779,0.919150,0.332387,0.211383,-1.127539,-0.309270,-1.176700,15.944746,43.912540,-17.615913,,,,,,
1467746736.91,1.796182,-0.338826,-0.190461,-0.000054,-0.046900,0.000059,0.919291,0.332380,0.210777,-1.124782,-0.310743,-1.172782,15.944746,43.912540,-17.615913,,,,,,
1467746736.92,1.795954,-0.338836,-0.190504,0.005307,-0.017172,-0.000122,0.919336,0.332390,0.210566,-1.112772,-0.311241,-1.187250,14.870894,43.732346,-18.952702,,,,,,
1467746736.93,1.795656,-0.338839,-0.190515,-0.000042,-0.037344,-0.000000,0.919398,0.332392,0.210292,-1.088648,-0.312815,-1.201991,14.870894,43.732346,-18.952702,,,,,,
1467746736.94,1.794718,-0.338831,-0.190521,-0.002269,-0.113795,0.001541,0.919597,0.332385,0.209430,-1.068630,-0.317096,-1.212176,14.870894,43.732346,-18.952702,,,,,,
1467746736.95,1.792816,-0.338798,-0.190486,-0.005595,-0.218912,0.002197,0.920005,0.332353,0.207683,-1.057136,-0.317278,-1.220622,14.831603,43.731068,-18.986412,,,,,,
1467746736.96,1.789813,-0.338746,-0.190425,-0.008933,-0.330406,0.005022,0.920641,0.332304,0.204923,-1.052081,-0.315657,-1.223462,14.831603,43.731068,-18.986412,,,,,,
1467746736.97,1.785690,-0.338668,-0.190299,-0.014405,-0.448263,0.005756,0.921504,0.332231,0.201131,-1.046031,-0.316576,-1.217610,14.831603,43.731068,-18.986412,,,,,,
1467746736.98,1.779287,-0.338517,-0.190145,-0.020077,-0.717973,0.012764,0.922822,0.332088,0.195237,-1.020753,-0.311275,-1.233109,14.740476,43.732170,-19.054714,,,,,,
1467746736.99,1.770589,-0.338331,-0.189886,-0.029907,-0.915463,0.013993,0.924546,0.331913,0.187215,-1.031815,-0.316120,-1.234670,14.740476,43.732170,-19.054714,,,,,,
1467746737.00,1.760438,-0.338120,-0.189617,-0.030093,-1.061995,0.015976,0.926467,0.331714,0.177834,-1.047789,-0.312687,-1.196297,14.740476,43.732170,-19.054714,,,,,,
1467746737.01,1.748855,-0.337878,-0.189264,-0.037723,-1.201090,0.017905,0.928543,0.331486,0.167105,-1.074601,-0.315800,-1.181235,14.189831,43.742363,-19.445332,,,,,,
1467746737.02,1.736575,-0.337618,-0.188899,-0.037784,-1.246754,0.020320,0.930610,0.331241,0.155704,-1.116310,-0.307910,-1.150730,14.189831,43.742363,-19.445332,,,,,,
1467746737.03,1.724363,-0.337371,-0.188553,-0.034561,-1.228696,0.017017,0.932523,0.331008,0.144341,-1.153516,-0.309127,-1.118096,14.189831,43.742363,-19.445332,,,,,,
1467746737.04,1.711585,-0.337144,-0.188184,-0.037872,-1.320012,0.018651,0.934366,0.330793,0.132424,-1.137750,-0.312574,-1.107965,13.733891,43.751926,-19.748819,,,,,,
1467746737.05,1.697982,-0.336887,-0.187758,-0.045406,-1.381599,0.021158,0.936165,0.330551,0.119713,-1.164543,-0.311691,-1.110588,13.733891,43.751926,-19.748819,,,,,,
1467746737.06,1.684251,-0.336625,-0.187329,-0.043288,-1.390094,0.021214,0.937807,0.330303,0.106858,-1.186037,-0.307552,-1.071702,13.247791,43.761715,-20.056787,,,,,,
1467746737.07,1.669733,-0.336350,-0.186875,-0.047687,-1.500522,0.022966,0.939349,0.330044,0.093240,-1.182025,-0.310223,-1.064386,13.247791,43.761715,-20.056787,,,,,,
1467746737.08,1.653824,-0.336075,-0.186370,-0.051049,-1.636429,0.022751,0.940804,0.329784,0.078293,-1.184457,-0.307796,-1.059250,13.247791,43.761715,-20.056787,,,,,,
1467746737.09,1.637700,-0.335788,-0.185840,-0.051023,-1.612013,0.024727,0.942039,0.329513,0.063120,-1.233436,-0.307953,-1.018107,12.095823,43.787796,-20.716816,,,,,,
1467746737.10,1.622584,-0.335535,-0.185361,-0.044499,-1.506892,0.021945,0.942968,0.329274,0.048878,-1.277350,-0.303242,-0.966435,12.095823,43.787796,-20.716816,,,,,,
1467746737.11,1.607627,-0.335289,-0.184866,-0.047715,-1.522820,0.023106,0.943675,0.329042,0.034772,-1.278590,-0.304078,-0.959363,12.095823,43.787796,-20.716816,,,,,,
1467746737.12,1.592689,-0.335045,-0.184380,-0.045544,-1.489905,0.022902,0.944169,0.328811,0.020674,-1.309556,-0.300415,-0.948088,11.457295,43.802834,-21.045397,,,,,,
1467746737.14,1.564592,-0.334615,-0.183483,-0.043387,-1.467608,0.022764,0.944519,0.328406,-0.005860,-1.307647,-0.309088,-0.914260,11.457295,43.802834,-21.045397,,,,,,
1467746737.13,1.578802,-0.334831,-0.183941,-0.041148,-1.382662,0.021169,0.944436,0.328609,0.007561,-1.324959,-0.297756,-0.907677,11.457295,43.802834,-21.045397,,,,,,
1467746737.15,1.549182,-0.334384,-0.182945,-0.053111,-1.579096,0.024518,0.944392,0.328187,-0.020416,-1.300074,-0.297074,-0.918717,11.457295,43.802834,-21.045397,,,,,,
1467746737.16,1.533397,-0.334146,-0.182431,-0.045683,-1.597153,0.025703,0.944030,0.327963,-0.035323,-1.323623,-0.305868,-0.887727,10.245647,43.831570,-21.602940,,,,,,
1467746737.17,1.517088,-0.333927,-0.181846,-0.058558,-1.677841,0.025132,0.943400,0.327756,-0.050717,-1.324183,-0.299527,-0.856586,10.245647,43.831570,-21.602940,,,,,,
1467746737.18,1.499983,-0.333705,-0.181277,-0.051208,-1.759603,0.025652,0.942467,0.327546,-0.066851,-1.328621,-0.301316,-0.853178,9.581479,43.848068,-21.872564,,,,,,
1467746737.19,1.481354,-0.333468,-0.180627,-0.058874,-1.924188,0.029870,0.941136,0.327322,-0.084403,-1.352314,-0.301306,-0.828424,9.581479,43.848068,-21.872564,,,,,,
1467746737.20,1.461302,-0.333201,-0.179925,-0.063286,-2.039934,0.034849,0.939341,0.327069,-0.103265,-1.369303,-0.289136,-0.762015,9.581479,43.848068,-21.872564,,,,,,
1467746737.21,1.440947,-0.332973,-0.179210,-0.066516,-2.074960,0.030808,0.937119,0.326854,-0.122373,-1.371002,-0.298732,-0.753039,8.015209,43.889023,-22.413761,,,,,,
1467746737.22,1.419220,-0.332731,-0.178433,-0.072066,-2.249104,0.036152,0.934317,0.326626,-0.142715,-1.397726,-0.295040,-0.736756,8.015209,43.889023,-22.413761,,,,,,
1467746737.23,1.396071,-0.332511,-0.177558,-0.078582,-2.352093,0.035727,0.930834,0.326418,-0.164316,-1.442064,-0.292116,-0.658087,8.015209,43.889023,-22.413761,,,,,,
1467746737.24,1.373152,-0.332293,-0.176754,-0.071078,-2.311748,0.035482,0.926894,0.326211,-0.185618,-1.430358,-0.295129,-0.632329,8.015209,43.889023,-22.413761,,,,,,
1467746737.25,1.349389,-0.332098,-0.175889,-0.077638,-2.448718,0.036334,0.922283,0.326027,-0.207604,-1.425961,-0.293938,-0.624000,6.052029,43.943520,-22.917385,,,,,,
1467746737.26,1.323851,-0.331898,-0.174957,-0.082131,-2.630292,0.040662,0.916745,0.325838,-0.231102,-1.393628,-0.292803,-0.596824,6.052029,43.943520,-22.917385,,,,,,
1467746737.27,1.295832,-0.331713,-0.173886,-0.096330,-2.913790,0.043490,0.909969,0.325663,-0.256712,-1.401256,-0.293238,-0.565112,4.936777,43.975502,-23.122496,,,,,,
1467746737.28,1.264946,-0.331534,-0.172746,-0.097750,-3.191990,0.048427,0.901663,0.325494,-0.284707,-1.397711,-0.292947,-0.509925,4.936777,43.975502,-23.122496,,,,,,
1467746737.29,1.231155,-0.331384,-0.171488,-0.118336,-3.468065,0.055460,0.891575,0.325352,-0.315023,-1.369282,-0.290516,-0.460032,4.936777,43.975502,-23.122496,,,,,,
1467746737.30,1.193577,-0.331229,-0.170213,-0.116775,-3.920398,0.059363,0.879158,0.325205,-0.348315,-1.322609,-0.290339,-0.446775,3.593163,44.015968,-23.292706,,,,,,
1467746737.31,1.150302,-0.331184,-0.168485,-0.153723,-4.502271,0.071491,0.863279,0.325163,-0.386028,-1.389830,-0.289992,-0.328297,3.593163,44.015968,-23.292706,,,,,,
1467746737.32,1.103927,-0.331159,-0.166789,-0.144448,-4.752852,0.069878,0.844462,0.325140,-0.425638,-1.431651,-0.279791,-0.197592,3.593163,44.015968,-23.292706,,,,,,
1467746737.33,1.055964,-0.331286,-0.164909,-0.161634,-4.867527,0.073773,0.823049,0.325259,-0.465615,-1.557363,-0.280551,-0.051765,-0.106705,44.130444,-23.352928,,,,,,
1467746737.34,1.008705,-0.331429,-0.163155,-0.148701,-4.746481,0.070898,0.800094,0.325395,-0.503952,-1.566924,-0.274461,0.048127,-0.106705,44.130444,-23.352928,,,,,,
1467746737.35,0.962784,-0.331673,-0.161400,-0.150686,-4.629685,0.071228,0.776052,0.325625,-0.540104,-1.541066,-0.278842,0.099171,-0.106705,44.130444,-23.352928,,,,,,
1467746737.36,0.916009,-0.331918,-0.159710,-0.144494,-4.779414,0.076431,0.749885,0.325856,-0.575751,-1.536796,-0.280889,0.130149,-2.283148,44.204842,-23.099476,,,,,,
1467746737.37,0.868466,-0.332344,-0.157885,-0.157295,-4.803821,0.073378,0.721569,0.326259,-0.610650,-1.550701,-0.271679,0.264718,-2.283148,44.204842,-23.099476,,,,,,
1467746737.38,0.821729,-0.332779,-0.156213,-0.146520,-4.704014,0.071698,0.692147,0.326670,-0.643598,-1.527841,-0.268657,0.333341,-2.283148,44.204842,-23.099476,,,,,,
1467746737.39,0.775031,-0.333320,-0.154504,-0.156165,-4.751793,0.073053,0.661225,0.327182,-0.675080,-1.498551,-0.277652,0.360078,-6.433271,44.354145,-22.004299,,,,,,
1467746737.40,0.727063,-0.333918,-0.152800,-0.154195,-4.877090,0.074905,0.627965,0.327747,-0.705862,-1.506963,-0.259678,0.472525,-6.433271,44.354145,-22.004299,,,,,,
1467746737.41,0.679497,-0.334651,-0.151086,-0.162564,-4.753925,0.077318,0.593542,0.328440,-0.734735,-1.570989,-0.280313,0.595438,-6.433271,44.354145,-22.004299,,,,,,
1467746737.42,0.635006,-0.335304,-0.149603,-0.129129,-4.420521,0.069938,0.560148,0.329056,-0.760234,-1.502104,-0.248230,0.692470,-8.434765,44.431705,-21.155251,,,,,,
1467746737.43,0.591643,-0.336075,-0.148133,-0.148263,-4.393969,0.070817,0.526524,0.329784,-0.783591,-1.479863,-0.283626,0.649771,-8.434765,44.431705,-21.155251,,,,,,
1467746737.44,0.548050,-0.336847,-0.146750,-0.132295,-4.403522,0.066635,0.491743,0.330513,-0.805574,-1.408095,-0.253060,0.765138,-8.434765,44.431705,-21.155251,,,,,,
1467746737.45,0.504404,-0.337743,-0.145356,-0.148277,-4.406708,0.069832,0.455982,0.331358,-0.826003,-1.388523,-0.289885,0.772521,-11.955947,44.576992,-19.047672,,,,,,
1467746737.46,0.460727,-0.338645,-0.144025,-0.134471,-4.440684,0.066866,0.419349,0.332209,-0.844857,-1.297721,-0.249857,0.865899,-11.955947,44.576992,-19.047672,,,,,,
1467746737.47,0.415290,-0.339685,-0.142640,-0.154940,-4.615897,0.077524,0.380402,0.333190,-0.862716,-1.300507,-0.293029,0.875564,-11.955947,44.576992,-19.047672,,,,,,
1467746737.48,0.369418,-0.340722,-0.141324,-0.139014,-4.661545,0.071440,0.340316,0.334167,-0.878929,-1.192535,-0.243439,0.988427,-13.520623,44.646545,-17.797337,,,,,,
1467746737.49,0.321757,-0.341914,-0.139992,-0.160546,-4.835696,0.082090,0.297929,0.335291,-0.893766,-1.187974,-0.298014,1.013304,-13.520623,44.646545,-17.797337,,,,,,
1467746737.50,0.273265,-0.343195,-0.138707,-0.153200,-4.931245,0.076310,0.254139,0.336497,-0.906743,-1.095356,-0.245891,1.107503,-13.520623,44.646545,-17.797337,,,,,,
1467746737.51,0.223017,-0.344605,-0.137453,-0.171517,-5.095829,0.082646,0.208170,0.337825,-0.917900,-1.069086,-0.296046,1.149406,-16.466011,44.791031,-14.679932,,,,,,
1467746737.52,0.171674,-0.346108,-0.136284,-0.165249,-5.201996,0.076932,0.160702,0.339239,-0.926872,-1.040462,-0.244634,1.257744,-16.466011,44.791031,-14.679932,,,,,,
1467746737.53,0.120500,-0.347642,-0.135187,-0.170467,-5.109631,0.081670,0.113017,0.340682,-0.933361,-1.068843,-0.289947,1.341274,-16.466011,44.791031,-14.679932,,,,,,
1467746737.54,0.072111,-0.349216,-0.134207,-0.162770,-4.791691,0.069083,0.067700,0.342161,-0.937199,-1.013989,-0.251402,1.427968,-16.466011,44.791031,-14.679932,,,,,,
1467746737.55,0.026182,-0.350630,-0.133369,-0.144398,-4.561312,0.076172,0.024586,0.343489,-0.938835,-1.015370,-0.292189,1.455543,-18.913839,44.931980,-10.781940,,,,,,
1467746737.56,-0.016878,-0.352088,-0.132588,-0.141873,-4.256558,0.067876,-0.015842,0.344859,-0.938521,-0.950116,-0.249537,1.511275,-18.913839,44.931980,-10.781940,,,,,,
1467746737.57,-0.056585,-0.353373,-0.131943,-0.124394,-3.899807,0.067785,-0.053060,0.346064,-0.936709,-0.914393,-0.295710,1.529040,-19.731655,44.988583,-8.919404,,,,,,
1467746737.58,-0.093234,-0.354635,-0.131396,-0.118719,-3.634333,0.056546,-0.087306,0.347248,-0.933701,-0.792882,-0.258472,1.522980,-19.731655,44.988583,-8.919404,,,,,,
1467746737.59,-0.129290,-0.355839,-0.130899,-0.116599,-3.633287,0.061864,-0.120853,0.348377,-0.929531,-0.724300,-0.294986,1.488049,-19.731655,44.988583,-8.919404,,,,,,
1467746737.60,-0.165276,-0.357112,-0.130446,-0.118676,-3.597176,0.058442,-0.154144,0.349570,-0.924143,-0.608337,-0.265311,1.531290,-20.296810,45.033840,-7.270427,,,,,,
1467746737.61,-0.201909,-0.358354,-0.130041,-0.118850,-3.728851,0.063525,-0.187801,0.350733,-0.917452,-0.503529,-0.295725,1.492357,-20.296810,45.033840,-7.270427,,,,,,
1467746737.62,-0.241737,-0.359751,-0.129675,-0.129948,-4.095156,0.061554,-0.224065,0.352041,-0.908770,-0.390574,-0.270605,1.488008,-20.296810,45.033840,-7.270427,,,,,,
1467746737.63,-0.284966,-0.361282,-0.129348,-0.143104,-4.378683,0.075028,-0.262976,0.353474,-0.897719,-0.405114,-0.308155,1.554793,-21.025818,45.111362,-3.968170,,,,,,
1467746737.64,-0.328420,-0.362832,-0.129104,-0.136649,-4.342555,0.064163,-0.301548,0.354924,-0.884928,-0.346523,-0.267720,1.635401,-21.025818,45.111362,-3.968170,,,,,,
1467746737.65,-0.371932,-0.364445,-0.129056,-0.141937,-4.306468,0.069253,-0.339548,0.356431,-0.870439,-0.391257,-0.300889,1.663805,-21.025818,45.111362,-3.968170,,,,,,
1467746737.66,-0.412522,-0.365953,-0.129001,-0.131886,-3.944377,0.059541,-0.374373,0.357839,-0.855451,-0.385179,-0.273626,1.751828,-21.223164,45.148914,-2.004812,,,,,,
1467746737.67,-0.448301,-0.367251,-0.128977,-0.115309,-3.463386,0.055477,-0.404533,0.359051,-0.841092,-0.370156,-0.295956,1.756909,-21.223164,45.148914,-2.004812,,,,,,
1467746737.68,-0.479872,-0.368436,-0.128976,-0.100963,-3.064150,0.050858,-0.430684,0.360156,-0.827525,-0.283122,-0.281848,1.738628,-21.223164,45.148914,-2.004812,,,,,,
1467746737.69,-0.509456,-0.369545,-0.129124,-0.089036,-2.893208,0.049797,-0.454778,0.361191,-0.814075,-0.155894,-0.299088,1.683368,-21.160990,45.199516,1.443178,,,,,,
1467746737.70,-0.539916,-0.370901,-0.129585,-0.095497,-2.957972,0.047003,-0.479108,0.362455,-0.799426,-0.042437,-0.290632,1.623416,-21.160990,45.199516,1.443178,,,,,,
1467746737.71,-0.571221,-0.372149,-0.129865,-0.098889,-3.107702,0.053260,-0.503651,0.363618,-0.783657,0.040379,-0.306917,1.618740,-21.160990,45.199516,1.443178,,,,,,
1467746737.72,-0.604033,-0.373411,-0.130140,-0.105511,-3.297758,0.052316,-0.528827,0.364794,-0.766334,0.124835,-0.296053,1.596900,-21.001564,45.209278,2.814533,,,,,,
1467746737.73,-0.639465,-0.374790,-0.130526,-0.112205,-3.530313,0.061218,-0.555341,0.366077,-0.746715,0.152830,-0.314411,1.613521,-21.001564,45.209278,2.814533,,,,,,
1467746737.74,-0.685059,-0.378802,-0.134371,-0.112242,-3.572836,0.059344,-0.587864,0.369808,-0.719485,0.190723,-0.300899,1.632403,-21.001564,45.209278,2.814533,,,,,,
1467746737.75,-0.723027,-0.380643,-0.135432,-0.113343,-3.603640,0.059534,-0.614300,0.371517,-0.696140,0.273571,-0.313763,1.621951,-20.314116,45.187141,6.190767,,,,,,
1467746737.76,-0.762055,-0.382361,-0.136387,-0.121006,-3.770351,0.061634,-0.640552,0.373112,-0.671178,0.335300,-0.315541,1.604634,-20.314116,45.187141,6.190767,,,,,,
1467746737.77,-0.802252,-0.384018,-0.137304,-0.127595,-3.931748,0.062639,-0.666562,0.374649,-0.644464,0.398602,-0.313934,1.582620,-20.314116,45.187141,6.190767,,,,,,
1467746737.78,-0.845731,-0.386479,-0.139122,-0.136207,-4.002915,0.067330,-0.693251,0.376930,-0.614269,0.501372,-0.323814,1.587155,-19.733753,45.178703,7.894915,,,,,,
1467746737.79,-0.888972,-0.388031,-0.139958,-0.138802,-4.374548,0.069658,-0.718702,0.378367,-0.583358,0.593397,-0.318537,1.517669,-19.733753,45.178703,7.894915,,,,,,
1467746737.80,-0.936252,-0.389935,-0.141151,-0.156173,-4.633640,0.076586,-0.744888,0.380129,-0.548311,0.674621,-0.335817,1.522264,-19.733753,45.178703,7.894915,,,,,,
1467746737.81,-0.986036,-0.391936,-0.142415,-0.159763,-4.950062,0.078566,-0.770615,0.381978,-0.510142,0.854660,-0.333608,1.482951,-17.929829,45.150017,11.526647,,,,,,
1467746737.83,-1.104333,-0.396110,-0.145473,-0.210335,-6.194524,0.103350,-0.824006,0.385833,-0.414907,1.024933,-0.344924,1.423452,-17.929829,45.150017,11.526647,,,,,,
1467746737.82,-1.041976,-0.393837,-0.143713,-0.191622,-5.712458,0.096088,-0.797304,0.383735,-0.465891,0.943483,-0.347587,1.394098,-17.929829,45.150017,11.526647,,,,,,
1467746737.84,-1.169465,-0.397935,-0.147062,-0.210770,-6.536433,0.108687,-0.848614,0.387515,-0.360121,1.084225,-0.352252,1.449095,-16.528320,45.132133,13.519302,,,,,,
1467746737.85,-1.238255,-0.399760,-0.148960,-0.232502,-6.883634,0.111907,-0.870690,0.389197,-0.300707,1.147469,-0.348319,1.383639,-16.528320,45.132133,13.519302,,,,,,
1467746737.86,-1.310331,-0.401554,-0.151063,-0.241424,-7.201118,0.117083,-0.889408,0.390849,-0.237045,1.251667,-0.351054,1.365142,-16.528320,45.132133,13.519302,,,,,,
1467746737.87,-1.385263,-0.403277,-0.153372,-0.247087,-7.469753,0.119826,-0.903995,0.392434,-0.169672,1.309909,-0.348809,1.304712,-12.144703,45.051929,17.767838,,,,,,
1467746737.88,-1.461776,-0.404832,-0.155856,-0.250391,-7.558940,0.119318,-0.913712,0.393864,-0.100010,1.334229,-0.355961,1.289326,-12.144703,45.051929,17.767838,,,,,,
1467746737.89,-1.537569,-0.406231,-0.158461,-0.244911,-7.432591,0.119596,-0.918110,0.395150,-0.030518,1.326770,-0.352792,1.240067,-12.144703,45.051929,17.767838,,,,,,
1467746737.90,-1.610757,-0.407384,-0.161076,-0.234929,-7.121476,0.113396,-0.917427,0.396209,0.036680,1.306191,-0.362609,1.190966,-9.236713,44.985313,19.592623,,,,,,
1467746737.91,-1.679457,-0.408326,-0.163616,-0.219439,-6.652173,0.112598,-0.912374,0.397074,0.099531,1.308141,-0.360697,1.105685,-9.236713,44.985313,19.592623,,,,,,
1467746737.92,-1.743441,-0.409045,-0.166043,-0.207133,-6.194516,0.100159,-0.903861,0.397733,0.157616,1.338386,-0.367048,0.995155,-9.236713,44.985313,19.592623,,,,,,
1467746737.93,-1.802441,-0.409570,-0.168353,-0.193671,-5.658295,0.090423,-0.892791,0.398215,0.210591,1.291152,-0.360679,0.902233,-3.255289,44.821365,21.755802,,,,,,
1467746737.94,-1.853931,-0.409964,-0.170347,-0.157515,-4.851330,0.081141,-0.880619,0.398576,0.256217,1.262440,-0.367723,0.857827,-3.255289,44.821365,21.755802,,,,,,
1467746737.95,-1.897461,-0.410190,-0.172035,-0.136328,-4.100626,0.069002,-0.868550,0.398784,0.294266,1.232365,-0.357249,0.755035,-3.255289,44.821365,21.755802,,,,,,
1467746737.96,-1.932510,-0.410346,-0.173401,-0.104332,-3.221446,0.055005,-0.857647,0.398927,0.324499,1.207851,-0.364122,0.698847,-0.785419,44.745007,22.138973,,,,,,
1467746737.97,-1.958234,-0.410418,-0.174382,-0.074408,-2.306148,0.035456,-0.848990,0.398992,0.346441,1.221670,-0.361334,0.636026,-0.785419,44.745007,22.138973,,,,,,
1467746737.98,-1.975646,-0.410464,-0.175009,-0.046802,-1.532084,0.022114,-0.842812,0.399035,0.361163,1.236947,-0.366030,0.558545,-0.785419,44.745007,22.138973,,,,,,
1467746737.99,-1.985269,-0.410468,-0.175388,-0.023429,-0.735723,0.009691,-0.839296,0.399038,0.369256,1.210710,-0.362921,0.531027,1.963001,44.658150,22.241016,,,,,,
1467746738.00,-1.985523,-0.410484,-0.175360,0.012910,0.211407,-0.003664,-0.839197,0.399054,0.369466,1.200967,-0.365332,0.559992,1.963001,44.658150,22.241016,,,,,,
1467746738.01,-1.976463,-0.410476,-0.174990,0.038537,1.107577,-0.016710,-0.842512,0.399046,0.361850,1.216322,-0.364332,0.552884,1.963001,44.658150,22.241016,,,,,,
1467746738.02,-1.959358,-0.410469,-0.174270,0.066114,1.861461,-0.027797,-0.848581,0.399040,0.347387,1.267190,-0.366783,0.554483,2.186089,44.651474,22.233616,,,,,,
1467746738.03,-1.935710,-0.410401,-0.173296,0.086060,2.468828,-0.041166,-0.856583,0.398977,0.327234,1.314637,-0.369802,0.559744,2.186089,44.651474,22.233616,,,,,,
1467746738.04,-1.905993,-0.410304,-0.172084,0.106012,3.087864,-0.050351,-0.865964,0.398888,0.301651,1.300504,-0.366387,0.610488,2.186089,44.651474,22.233616,,,,,,
1467746738.05,-1.869316,-0.410125,-0.170582,0.132444,3.774861,-0.063149,-0.876512,0.398724,0.269715,1.316499,-0.368969,0.695601,0.390171,44.713799,22.212391,,,,,,
1467746738.06,-1.826337,-0.409855,-0.168857,0.149172,4.371598,-0.071132,-0.887395,0.398476,0.231834,1.330891,-0.364007,0.753350,0.390171,44.713799,22.212391,,,,,,
1467746738.07,-1.778886,-0.409465,-0.166968,0.162430,4.748543,-0.077741,-0.897545,0.398119,0.189513,1.377556,-0.365694,0.792115,0.390171,44.713799,22.212391,,,,,,
1467746738.08,-1.727346,-0.408977,-0.164929,0.178954,5.182824,-0.084706,-0.906308,0.397671,0.143053,1.371594,-0.364376,0.890318,-1.403002,44.772957,22.051764,,,,,,
1467746738.09,-1.672338,-0.408331,-0.162792,0.188916,5.478012,-0.090805,-0.913058,0.397078,0.093033,1.412096,-0.365507,0.950821,-1.403002,44.772957,22.051764,,,,,,
1467746738.10,-1.616260,-0.407562,-0.160660,0.187902,5.520482,-0.090008,-0.917141,0.396372,0.041726,1.414959,-0.364832,0.981575,-1.403002,44.772957,22.051764,,,,,,
1467746738.11,-1.559477,-0.406684,-0.158579,0.191239,5.628792,-0.093877,-0.918379,0.395566,-0.010396,1.392637,-0.366116,1.067601,-6.020010,44.913662,20.961611,,,,,,
1467746738.12,-1.501865,-0.405680,-0.156480,0.197687,5.679750,-0.092062,-0.916652,0.394643,-0.063286,1.376827,-0.359640,1.134010,-6.020010,44.913662,20.961611,,,,,,
1467746738.13,-1.445430,-0.404586,-0.154518,0.187886,5.508799,-0.088870,-0.912051,0.393638,-0.114943,1.380923,-0.362938,1.149611,-6.020010,44.913662,20.961611,,,,,,
1467746738.14,-1.391766,-0.403471,-0.152739,0.175802,5.221041,-0.081756,-0.905004,0.392613,-0.163777,1.363073,-0.357182,1.177464,-8.412677,44.979527,19.973368,,,,,,
1467746738.15,-1.341829,-0.402334,-0.151141,0.164642,4.810133,-0.080254,-0.896135,0.391567,-0.208848,1.361269,-0.360576,1.188173,-8.412677,44.979527,19.973368,,,,,,
1467746738.16,-1.296915,-0.401252,-0.149757,0.145896,4.305768,-0.070723,-0.886262,0.390571,-0.248988,1.326478,-0.355720,1.192347,-8.412677,44.979527,19.973368,,,,,,
1467746738.17,-1.258164,-0.400243,-0.148554,0.131246,3.667620,-0.062477,-0.876325,0.389642,-0.283257,1.285977,-0.353006,1.180947,-12.371490,45.074127,17.553791,,,,,,
1467746738.19,-1.198983,-0.398650,-0.146842,0.084925,2.412554,-0.040815,-0.858614,0.388174,-0.334817,1.227236,-0.350790,1.191842,-12.371490,45.074127,17.553791,,,,,,
1467746738.18,-1.225229,-0.399382,-0.147599,0.107112,3.113350,-0.051574,-0.866837,0.388849,-0.312073,1.247300,-0.363153,1.208298,-12.371490,45.074127,17.553791,,,,,,
1467746738.20,-1.180243,-0.398126,-0.146310,0.058422,1.670340,-0.026606,-0.852377,0.387691,-0.350925,1.188437,-0.357570,1.174564,-13.632017,45.100819,16.521219,,,,,,
1467746738.21,-1.168149,-0.397780,-0.145975,0.038469,1.049184,-0.018473,-0.848194,0.387373,-0.361261,1.139286,-0.352018,1.200632,-13.632017,45.100819,16.521219,,,,,,
1467746738.22,-1.161795,-0.397593,-0.145777,0.019640,0.480046,-0.007471,-0.845948,0.387200,-0.366672,1.113953,-0.353829,1.216815,-13.632017,45.100819,16.521219,,,,,,
1467746738.23,-1.161893,-0.397580,-0.145748,-0.001429,-0.179340,0.003030,-0.845989,0.387188,-0.366590,1.108074,-0.347454,1.197004,-14.684824,45.121624,15.532589,,,,,,
1467746738.24,-1.168352,-0.397741,-0.145891,-0.023495,-0.785633,0.012133,-0.848281,0.387337,-0.361094,1.095275,-0.352028,1.199351,-14.684824,45.121624,15.532589,,,,,,
1467746738.25,-1.180355,-0.398043,-0.146187,-0.040141,-1.318659,0.018653,-0.852446,0.387615,-0.350842,1.087416,-0.347729,1.203702,-14.684824,45.121624,15.532589,,,,,,
1467746738.26,-1.197279,-0.398490,-0.146616,-0.058848,-1.791172,0.029049,-0.858100,0.388027,-0.336302,1.089652,-0.351726,1.217009,-14.579052,45.120594,15.634876,,,,,,
1467746738.27,-1.219122,-0.399063,-0.147198,-0.074390,-2.291286,0.036427,-0.865032,0.388555,-0.317404,1.123424,-0.354620,1.196707,-14.579052,45.120594,15.634876,,,,,,
1467746738.28,-1.246394,-0.399755,-0.147937,-0.093174,-2.827501,0.045094,-0.873110,0.389193,-0.293612,1.158633,-0.352739,1.178881,-14.579052,45.120594,15.634876,,,,,,
1467746738.29,-1.278474,-0.400551,-0.148844,-0.106532,-3.284081,0.052202,-0.881782,0.389925,-0.265366,1.183692,-0.351839,1.167329,-13.270075,45.097233,16.822931,,,,,,
1467746738.30,-1.314354,-0.401427,-0.149921,-0.120798,-3.614310,0.059581,-0.890402,0.390733,-0.233477,1.185904,-0.353761,1.176547,-13.270075,45.097233,16.822931,,,,,,
1467746738.31,-1.353428,-0.402339,-0.151095,-0.128690,-3.959401,0.064931,-0.898495,0.391572,-0.198440,1.247494,-0.352586,1.154647,-12.058685,45.072338,17.774670,,,,,,
1467746738.32,-1.396066,-0.403283,-0.152433,-0.142923,-4.266263,0.070034,-0.905772,0.392440,-0.159896,1.242168,-0.358840,1.125198,-12.058685,45.072338,17.774670,,,,,,
1467746738.33,-1.440264,-0.404171,-0.153847,-0.142020,-4.398983,0.068739,-0.911607,0.393257,-0.119674,1.278672,-0.354530,1.115005,-12.058685,45.072338,17.774670,,,,,,
1467746738.34,-1.485404,-0.405041,-0.155329,-0.145304,-4.463763,0.073400,-0.915737,0.394056,-0.078388,1.271588,-0.362165,1.103000,-10.521886,45.038628,18.806343,,,,,,
1467746738.35,-1.530387,-0.405853,-0.156869,-0.146306,-4.419158,0.069925,-0.918016,0.394803,-0.037117,1.270555,-0.356686,1.059852,-10.521886,45.038628,18.806343,,,,,,
1467746738.36,-1.574028,-0.406571,-0.158411,-0.140776,-4.255641,0.067841,-0.918477,0.395463,0.002969,1.275167,-0.359879,1.050315,-10.521886,45.038628,18.806343,,,,,,
1467746738.38,-1.652895,-0.407697,-0.161260,-0.120841,-3.650408,0.058743,-0.914944,0.396496,0.075285,1.271344,-0.360577,0.972124,-6.926022,44.949348,20.602251,,,,,,
1467746738.37,-1.615055,-0.407189,-0.159876,-0.129754,-3.962580,0.062821,-0.917338,0.396030,0.040626,1.252864,-0.357395,1.008553,-6.926022,44.949348,20.602251,,,,,,
1467746738.39,-1.687052,-0.408147,-0.162541,-0.107576,-3.262854,0.055261,-0.911662,0.396909,0.106466,1.257213,-0.358549,0.920038,-6.926022,44.949348,20.602251,,,,,,
1467746738.40,-1.717572,-0.408481,-0.163674,-0.096497,-2.930495,0.045736,-0.907858,0.397216,0.134217,1.306280,-0.361922,0.870742,-5.245165,44.903210,21.190950,,,,,,
1467746738.41,-1.744592,-0.408768,-0.164710,-0.086440,-2.552498,0.043376,-0.903788,0.397479,0.158675,1.268992,-0.359104,0.815858,-5.245165,44.903210,21.190950,,,,,,
1467746738.42,-1.766118,-0.408975,-0.165510,-0.063329,-1.968491,0.030156,-0.900082,0.397669,0.178076,1.256619,-0.364817,0.819269,-5.245165,44.903210,21.190950,,,,,,
1467746738.43,-1.782143,-0.409122,-0.166112,-0.047776,-1.457763,0.023775,-0.897056,0.397804,0.192464,1.256019,-0.360908,0.788737,-2.763859,44.831089,21.803688,,,,,,
1467746738.44,-1.792713,-0.409199,-0.166509,-0.028940,-0.883316,0.012740,-0.894942,0.397875,0.201928,1.229414,-0.365053,0.763327,-2.763859,44.831089,21.803688,,,,,,
1467746738.45,-1.796379,-0.409229,-0.166624,-0.003571,-0.189957,0.003095,-0.894184,0.397902,0.205205,1.219715,-0.359373,0.778849,-2.763859,44.831089,21.803688,,,,,,
1467746738.46,-1.793509,-0.409204,-0.166461,0.018519,0.432269,-0.008237,-0.894779,0.397880,0.202640,1.228000,-0.363883,0.772961,-2.172926,44.813507,21.906487,,,,,,
1467746738.47,-1.784594,-0.409142,-0.166078,0.038434,1.023695,-0.016184,-0.896574,0.397823,0.194661,1.231260,-0.358684,0.765453,-2.172926,44.813507,21.906487,,,,,,
1467746738.48,-1.769929,-0.409016,-0.165455,0.058304,1.573720,-0.027065,-0.899381,0.397706,0.181501,1.260053,-0.365953,0.785250,-2.172926,44.813507,21.906487,,,,,,
1467746738.49,-1.750786,-0.408831,-0.164670,0.070517,1.967651,-0.032717,-0.902763,0.397537,0.164265,1.300605,-0.361420,0.782542,-2.678930,44.832417,21.811565,,,,,,
1467746738.50,-1.728558,-0.408583,-0.163806,0.077285,2.263903,-0.038826,-0.906288,0.397309,0.144176,1.324440,-0.367326,0.789830,-2.678930,44.832417,21.811565,,,,,,
1467746738.51,-1.702860,-0.408303,-0.162801,0.090508,2.616421,-0.043152,-0.909804,0.397052,0.120856,1.319289,-0.365421,0.830514,-2.678930,44.832417,21.811565,,,,,,
1467746738.52,-1.674391,-0.407950,-0.161690,0.098262,2.848963,-0.048861,-0.913015,0.396729,0.094924,1.349752,-0.364334,0.862978,-3.594372,44.860912,21.620491,,,,,,
1467746738.53,-1.644834,-0.407559,-0.160561,0.100333,2.928989,-0.048254,-0.915576,0.396370,0.067911,1.358477,-0.364876,0.869864,-3.594372,44.860912,21.620491,,,,,,
1467746738.54,-1.613534,-0.407113,-0.159389,0.108070,3.151970,-0.051774,-0.917429,0.395960,0.039232,1.320368,-0.361796,0.921751,-3.594372,44.860912,21.620491,,,,,,
1467746738.55,-1.579904,-0.406594,-0.158125,0.114706,3.344162,-0.056166,-0.918435,0.395483,0.008365,1.325463,-0.364890,0.989133,-6.088964,44.934624,20.896660,,,,,,
1467746738.56,-1.546144,-0.406035,-0.156881,0.114670,3.320793,-0.052826,-0.918415,0.394970,-0.022645,1.330448,-0.360363,0.993440,-6.088964,44.934624,20.896660,,,,,,
1467746738.57,-1.512036,-0.405430,-0.155653,0.116871,3.372829,-0.056343,-0.917347,0.394414,-0.053966,1.304752,-0.362401,1.029796,-6.088964,44.934624,20.896660,,,,,,
1467746738.58,-1.478208,-0.404800,-0.154459,0.113591,3.305934,-0.054863,-0.915244,0.393835,-0.084984,1.317512,-0.356909,1.066536,-7.507957,44.974472,20.341927,,,,,,
1467746738.59,-1.446311,-0.404176,-0.153368,0.103733,3.091446,-0.050334,-0.912312,0.393261,-0.114160,1.307957,-0.360363,1.059839,-7.507957,44.974472,20.341927,,,,,,
1467746738.60,-1.416570,-0.403545,-0.152344,0.100269,2.878023,-0.047934,-0.908759,0.392681,-0.141276,1.305136,-0.359097,1.086894,-7.507957,44.974472,20.341927,,,,,,
1467746738.61,-1.389413,-0.402984,-0.151433,0.089262,2.600880,-0.039821,-0.904804,0.392165,-0.165941,1.291981,-0.362303,1.102785,-10.121206,45.042145,19.016649,,,,,,
1467746738.62,-1.366361,-0.402451,-0.150674,0.074863,2.158113,-0.035994,-0.900943,0.391675,-0.186794,1.308338,-0.354993,1.083370,-10.121206,45.042145,19.016649,,,,,,
1467746738.63,-1.347637,-0.402013,-0.150061,0.061577,1.758870,-0.029245,-0.897455,0.391272,-0.203667,1.271204,-0.361059,1.091302,-10.121206,45.042145,19.016649,,,,,,
1467746738.64,-1.332327,-0.401646,-0.149554,0.051556,1.414842,-0.023904,-0.894371,0.390934,-0.217418,1.254876,-0.357410,1.116420,-11.084976,45.065598,18.414173,,,,,,
1467746738.65,-1.321976,-0.401382,-0.149197,0.033832,0.874378,-0.015210,-0.892173,0.390690,-0.226689,1.268760,-0.354436,1.101795,-11.084976,45.065598,18.414173,,,,,,
1467746738.66,-1.317388,-0.401246,-0.149035,0.012897,0.320113,-0.006433,-0.891175,0.390566,-0.230792,1.264802,-0.359453,1.071781,-11.084976,45.065598,18.414173,,,,,,
1467746738.67,-1.317820,-0.401241,-0.149010,-0.001565,-0.166200,0.001925,-0.891276,0.390561,-0.230408,1.263103,-0.359601,1.086472,-11.997231,45.087543,17.777685,,,,,,
1467746738.68,-1.323392,-0.401328,-0.149164,-0.018178,-0.683281,0.001958,-0.892514,0.390641,-0.225430,1.246548,-0.359696,1.067761,-11.997231,45.087543,17.777685,,,,,,
1467746738.69,-1.333741,-0.401547,-0.149337,-0.028324,-1.123939,0.010034,-0.894716,0.390842,-0.216162,1.257692,-0.420582,1.119162,-11.997231,45.087543,17.777685,,,,,,
1467746738.70,-1.347858,-0.401897,-0.149848,-0.047995,-1.485016,0.038890,-0.897544,0.391165,-0.203479,1.228019,-0.221854,1.010593,-11.888941,45.085716,17.854902,,,,,,
1467746738.71,-1.365728,-0.402283,-0.150324,-0.071819,-1.827925,0.026115,-0.900889,0.391520,-0.187378,1.235164,-0.429636,1.200501,-11.888941,45.085716,17.854902,,,,,,
1467746738.72,-1.384510,-0.402807,-0.151015,-0.059184,-1.886424,0.060557,-0.904048,0.392002,-0.170388,1.221278,-0.284275,1.079094,-11.888941,45.085716,17.854902,,,,,,
1467746738.73,-1.405563,-0.403254,-0.151837,-0.094576,-2.134792,0.034403,-0.907261,0.392414,-0.151289,1.200703,-0.354862,0.996504,-10.738322,45.061760,18.627731,,,,,,
1467746738.74,-1.429021,-0.403801,-0.152695,-0.074694,-2.388614,0.050917,-0.910348,0.392917,-0.129937,1.270806,-0.337619,1.072961,-10.738322,45.061760,18.627731,,,,,,
1467746738.75,-1.455206,-0.404382,-0.153750,-0.106887,-2.601997,0.043708,-0.913211,0.393451,-0.106031,1.190814,-0.371554,0.992170,-10.738322,45.061760,18.627731,,,,,,
1467746738.76,-1.480894,-0.404858,-0.154580,-0.083331,-2.500070,0.040963,-0.915446,0.393889,-0.082523,1.290324,-0.394819,1.157108,-9.876936,45.037395,19.155825,,,,,,
1467746738.77,-1.506044,-0.405288,-0.155458,-0.087552,-2.487297,0.030234,-0.917063,0.394283,-0.059465,1.247141,-0.391430,0.995546,-9.876936,45.037395,19.155825,,,,,,
1467746738.78,-1.531781,-0.405732,-0.156208,-0.067435,-2.570139,0.035032,-0.918115,0.394691,-0.035839,1.217767,-0.336463,0.974987,-8.844611,45.009514,19.717581,,,,,,
1467746738.79,-1.557347,-0.406198,-0.157183,-0.087555,-2.477761,0.037626,-0.918547,0.395120,-0.012355,1.246778,-0.358987,1.005473,-8.844611,45.009514,19.717581,,,,,,
1467746738.80,-1.580196,-0.406567,-0.157946,-0.070099,-2.156020,0.027110,-0.918443,0.395459,0.008633,1.250627,-0.342373,1.015903,-8.844611,45.009514,19.717581,,,,,,
1467746738.81,-1.599104,-0.406847,-0.158561,-0.049427,-1.797153,0.029137,-0.918005,0.395716,0.025994,1.257727,-0.346292,0.956001,-6.795420,44.958088,20.626661,,,,,,
1467746738.82,-1.616638,-0.407070,-0.159189,-0.061036,-1.711146,0.030715,-0.917320,0.395920,0.042081,1.243050,-0.342423,0.923099,-6.795420,44.958088,20.626661,,,,,,
1467746738.83,-1.632547,-0.407321,-0.159833,-0.058635,-1.488181,0.033577,-0.916436,0.396150,0.056663,1.237923,-0.345598,0.891640,-6.795420,44.958088,20.626661,,,,,,
1467746738.84,-1.644365,-0.407508,-0.160361,-0.041031,-1.046459,0.023373,-0.915628,0.396322,0.067483,1.243463,-0.352392,0.929328,-6.024734,44.938103,20.907799,,,,,,
1467746738.85,-1.652212,-0.407636,-0.160706,-0.026739,-0.696057,0.015868,-0.915019,0.396441,0.074662,1.237941,-0.410524,0.930648,-6.024734,44.938103,20.907799,,,,,,
1467746738.86,-1.657730,-0.407708,-0.160827,-0.009414,-0.487914,0.000742,-0.914565,0.396506,0.079707,1.270477,-0.380530,0.898717,-6.024734,44.938103,20.907799,,,,,,
1467746738.87,-1.659974,-0.407720,-0.160887,-0.000450,-0.130093,-0.000429,-0.914379,0.396517,0.081759,1.259075,-0.361453,0.859037,-5.140079,44.911503,21.199133,,,,,,
1467746738.88,-1.658645,-0.407653,-0.160684,0.020230,0.209705,-0.014248,-0.914514,0.396455,0.080546,1.287118,-0.348848,0.896749,-5.140079,44.911503,21.199133,,,,,,
1467746738.89,-1.654159,-0.407548,-0.160485,0.022712,0.499562,-0.010742,-0.914907,0.396359,0.076446,1.256826,-0.362103,0.868409,-5.140079,44.911503,21.199133,,,,,,
1467746738.90,-1.647630,-0.407453,-0.160128,0.032538,0.690687,-0.014059,-0.915425,0.396272,0.070474,1.273884,-0.335206,0.872245,-5.140079,44.911503,21.199133,,,,,,
1467746738.91,-1.638016,-0.407333,-0.159800,0.035077,1.027260,-0.009781,-0.916107,0.396162,0.061673,1.257629,-0.356611,0.891528,-5.361708,44.923000,21.119722,,,,,,
1467746738.92,-1.625942,-0.407196,-0.159359,0.034292,1.241759,-0.016449,-0.916839,0.396037,0.050611,1.292327,-0.337595,0.882235,-5.361708,44.923000,21.119722,,,,,,
1467746738.93,-1.612123,-0.407054,-0.158924,0.046187,1.392520,-0.014190,-0.917507,0.395906,0.037939,1.282604,-0.366548,0.894205,-5.825296,44.935768,20.969234,,,,,,
1467746738.94,-1.597141,-0.406879,-0.158447,0.044221,1.512523,-0.021331,-0.918042,0.395745,0.024191,1.312024,-0.356636,0.927454,-5.825296,44.935768,20.969234,,,,,,
1467746738.95,-1.580833,-0.406648,-0.157855,0.056080,1.626136,-0.024161,-0.918406,0.395533,0.009218,1.295923,-0.370173,0.926268,-5.825296,44.935768,20.969234,,,,,,
1467746738.96,-1.564166,-0.406395,-0.157308,0.051865,1.655877,-0.027545,-0.918532,0.395301,-0.006090,1.276930,-0.366263,0.972262,-6.434512,44.950798,20.757872,,,,,,
1467746738.97,-1.546228,-0.406098,-0.156689,0.059509,1.806652,-0.029547,-0.918392,0.395028,-0.022568,1.283260,-0.376351,0.992188,-6.434512,44.950798,20.757872,,,,,,
1467746738.98,-1.527677,-0.405770,-0.156023,0.062724,1.818339,-0.032811,-0.917945,0.394726,-0.039605,1.300132,-0.370022,0.989480,-6.434512,44.950798,20.757872,,,,,,
1467746738.99,-1.509832,-0.405439,-0.155342,0.064755,1.746124,-0.028098,-0.917222,0.394422,-0.055987,1.274354,-0.368391,0.997134,-7.885866,44.988770,20.166561,,,,,,
1467746739.00,-1.492306,-0.405084,-0.154674,0.062592,1.713221,-0.032151,-0.916240,0.394096,-0.072064,1.304179,-0.364250,1.019009,-7.885866,44.988770,20.166561,,,,,,
1467746739.01,-1.475961,-0.404735,-0.154066,0.057075,1.565621,-0.026973,-0.915076,0.393775,-0.087043,1.277518,-0.357627,1.000739,-7.885866,44.988770,20.166561,,,,,,
1467746739.02,-1.461243,-0.404431,-0.153529,0.051564,1.418031,-0.024989,-0.913815,0.393496,-0.100514,1.278531,-0.348986,1.021092,-8.609949,45.009319,19.821613,,,,,,
1467746739.03,-1.447786,-0.404156,-0.153053,0.045005,1.288482,-0.019925,-0.912487,0.393242,-0.112815,1.272259,-0.346688,1.024589,-8.609949,45.009319,19.821613,,,,,,
1467746739.04,-1.436403,-0.403945,-0.152708,0.028756,1.068694,-0.017498,-0.911226,0.393049,-0.123205,1.270876,-0.347227,1.022588,-8.609949,45.009319,19.821613,,,,,,
1467746739.05,-1.427312,-0.403784,-0.152449,0.024206,0.841462,-0.012885,-0.910131,0.392900,-0.131493,1.266012,-0.358660,1.041131,-8.609949,45.009319,19.821613,,,,,,
1467746739.06,-1.420455,-0.403661,-0.152269,0.016478,0.626973,-0.008354,-0.909256,0.392787,-0.137738,1.258469,-0.360317,1.049237,-9.728989,45.038166,19.229591,,,,,,
1467746739.07,-1.415714,-0.403571,-0.152123,0.013014,0.413549,-0.005954,-0.908628,0.392705,-0.142053,1.265439,-0.370213,1.053048,-9.728989,45.038166,19.229591,,,,,,
1467746739.08,-1.413600,-0.403517,-0.152038,0.007335,0.132171,-0.003131,-0.908346,0.392655,-0.143977,1.271444,-0.371430,1.044779,-10.041080,45.044369,19.053814,,,,,,
1467746739.09,-1.414488,-0.403512,-0.152014,0.001638,-0.160892,0.001895,-0.908476,0.392650,-0.143170,1.267591,-0.372295,1.046201,-10.041080,45.044369,19.053814,,,,,,
1467746739.10,-1.418123,-0.403692,-0.152033,-0.008334,-0.437015,0.024906,-0.908920,0.392816,-0.139856,1.355148,-0.387964,0.991404,-10.041080,45.044369,19.053814,,,,,,
1467746739.11,-1.428261,-0.404665,-0.152895,-0.133071,-1.301459,0.102585,-0.909912,0.393711,-0.130580,2.245362,-0.386448,0.422450,-10.080855,45.049000,19.021843,,,,,,
1467746739.12,-1.476944,-0.406084,-0.155018,-0.244864,-6.413947,0.120700,-0.914632,0.395015,-0.086093,3.782063,-0.378169,-0.152234,-10.080855,45.049000,19.021843,,,,,,
1467746739.13,-1.599104,-0.407828,-0.160563,-0.604409,-13.764668,0.181344,-0.917617,0.396617,0.025983,3.670958,-0.452281,-0.109860,-10.080855,45.049000,19.021843,,,,,,
1467746739.14,-1.771951,-0.409546,-0.169080,-0.791307,-17.497019,0.279077,-0.898806,0.398192,0.183277,1.945040,-0.366210,1.103878,-8.872608,45.009869,19.704189,,,,,,
1467746739.15,-1.928617,-0.410557,-0.178217,-0.729419,-13.833046,0.357283,-0.858825,0.399120,0.321128,-2.105211,-0.256221,2.779274,-8.872608,45.009869,19.704189,,,,,,
1467746739.16,-1.954207,-0.413358,-0.180709,0.155506,2.490521,0.310077,-0.849286,0.401687,0.342579,-3.256747,-0.210052,4.997311,-8.872608,45.009869,19.704189,,,,,,
1467746739.17,-1.816019,-0.414977,-0.175006,0.589894,15.478216,-0.133921,-0.887748,0.403169,0.222167,3.344856,-0.316148,1.858201,1.641647,44.566795,22.449326,,,,,,
1467746739.18,-1.744411,-0.413684,-0.171763,0.084812,2.277326,-0.144241,-0.901881,0.401985,0.158172,3.866359,-0.527611,-2.555343,1.641647,44.566795,22.449326,,,,,,
1467746739.19,-1.810683,-0.412780,-0.175084,-0.375697,-7.389282,-0.017015,-0.889779,0.401158,0.217637,1.965798,-0.488087,-0.414750,1.641647,44.566795,22.449326,,,,,,
1467746739.20,-1.842804,-0.411869,-0.175965,0.021638,-1.336072,-0.080129,-0.882682,0.400323,0.246198,0.714713,-0.452096,2.028689,-3.038990,44.743195,21.947159,,,,,,
1467746739.21,-1.818045,-0.411725,-0.173515,0.238987,3.096721,-0.061941,-0.888563,0.400191,0.224285,0.689741,-0.400984,1.352604,-3.038990,44.743195,21.947159,,,,,,
1467746739.22,-1.791549,-0.411923,-0.171221,0.188568,2.002992,-0.020005,-0.894115,0.400372,0.200648,2.032330,-0.437115,0.212026,-3.038990,44.743195,21.947159,,,,,,
1467746739.23,-1.801377,-0.412205,-0.170713,-0.006116,-2.066880,0.034065,-0.891990,0.400630,0.209400,2.347267,-0.394435,-0.323414,-2.078402,44.741646,22.062000,,,,,,
1467746739.24,-1.840406,-0.412595,-0.171997,-0.116271,-4.107689,0.075495,-0.882990,0.400988,0.244004,1.708002,-0.370379,0.241088,-2.078402,44.741646,22.062000,,,,,,
1467746739.25,-1.872886,-0.413034,-0.172994,-0.052764,-2.718868,0.061526,-0.874432,0.401390,0.272497,1.136700,-0.337624,0.906931,-2.078402,44.741646,22.062000,,,,,,
1467746739.26,-1.884719,-0.413344,-0.173129,0.008315,-0.746008,0.026860,-0.871028,0.401674,0.282786,1.074123,-0.324144,0.875234,-0.967880,44.731266,22.159500,,,,,,
1467746739.27,-1.886645,-0.413563,-0.173164,-0.001540,-0.114230,0.022888,-0.870398,0.401874,0.284436,1.270697,-0.341495,0.547000,-0.967880,44.731266,22.159500,,,,,,
1467746739.28,-1.888930,-0.413765,-0.173574,-0.039007,-0.262884,0.031234,-0.869669,0.402060,0.286399,1.421747,-0.392004,0.428506,-0.967880,44.731266,22.159500,,,,,,
1467746739.29,-1.891760,-0.413944,-0.174180,-0.049590,-0.206612,0.034064,-0.868786,0.402223,0.288836,1.376095,-0.395601,0.501065,0.163937,44.708710,22.225445,,,,,,
1467746739.30,-1.890416,-0.414094,-0.174677,-0.029796,0.286069,0.025672,-0.869116,0.402361,0.287649,1.346198,-0.403322,0.604364,0.163937,44.708710,22.225445,,,,,,
1467746739.31,-1.884615,-0.414250,-0.174881,-0.010150,0.660891,0.018018,-0.870711,0.402503,0.282584,1.384459,-0.386268,0.574472,0.163937,44.708710,22.225445,,,,,,
1467746739.32,-1.877627,-0.414357,-0.174906,0.007995,0.681082,0.008330,-0.872623,0.402601,0.276479,1.495258,-0.391630,0.511729,0.215252,44.689560,22.263498,,,,,,
1467746739.33,-1.872214,-0.414476,-0.174925,-0.003959,0.495261,0.013741,-0.874061,0.402710,0.271737,1.491371,-0.382019,0.454963,0.215252,44.689560,22.263498,,,,,,
1467746739.34,-1.867841,-0.414679,-0.175021,0.001277,0.442139,0.024724,-0.875163,0.402897,0.267888,1.445186,-0.377094,0.485987,0.215252,44.689560,22.263498,,,,,,
1467746739.36,-1.859306,-0.415305,-0.175156,-0.002092,0.317883,0.035080,-0.877176,0.403469,0.260338,1.504953,-0.383236,0.460976,-0.261326,44.686848,22.268452,,,,,,
1467746739.35,-1.863000,-0.414974,-0.175061,0.005585,0.489903,0.029751,-0.876336,0.403166,0.263614,1.478600,-0.393584,0.517880,-0.261326,44.686848,22.268452,,,,,,
1467746739.37,-1.857616,-0.415639,-0.175411,-0.012948,0.156486,0.039274,-0.877485,0.403774,0.258816,1.447554,-0.389706,0.495517,-0.261326,44.686848,22.268452,,,,,,
1467746739.38,-1.854744,-0.415951,-0.175596,-0.005218,0.368857,0.032628,-0.878104,0.404060,0.256260,1.385428,-0.385459,0.576152,-0.424210,44.688457,22.262711,,,,,,
1467746739.39,-1.849058,-0.416207,-0.175673,0.001499,0.620519,0.024670,-0.879447,0.404294,0.251234,1.392967,-0.379941,0.580263,-0.424210,44.688457,22.262711,,,,,,
1467746739.40,-1.842645,-0.416418,-0.175714,0.002594,0.637519,0.020306,-0.880958,0.404487,0.245567,1.410057,-0.390953,0.542657,-0.424210,44.688457,22.262711,,,,,,
1467746739.41,-1.836131,-0.416605,-0.175651,0.013277,0.657703,0.014868,-0.882466,0.404658,0.239803,1.423146,-0.392986,0.554432,-0.746048,44.685085,22.261017,,,,,,
1467746739.42,-1.829231,-0.416786,-0.175511,0.016514,0.691679,0.014658,-0.884029,0.404824,0.233689,1.421962,-0.396233,0.555709,-0.746048,44.685085,22.261017,,,,,,
1467746739.43,-1.822413,-0.416964,-0.175405,0.011156,0.664074,0.014826,-0.885532,0.404987,0.227639,1.437396,-0.390613,0.542747,-0.746048,44.685085,22.261017,,,,,,
1467746739.44,-1.816640,-0.417086,-0.175374,0.005689,0.541984,0.010264,-0.886783,0.405098,0.222511,1.453724,-0.384804,0.537514,-1.028963,44.691509,22.236835,,,,,,
1467746739.45,-1.811904,-0.417198,-0.175270,0.014103,0.453859,0.007632,-0.887783,0.405201,0.218298,1.434994,-0.401630,0.573908,-1.028963,44.691509,22.236835,,,,,,
1467746739.46,-1.807069,-0.417294,-0.175064,0.022667,0.485718,0.004247,-0.888790,0.405288,0.213993,1.425946,-0.398452,0.585811,-1.028963,44.691509,22.236835,,,,,,
1467746739.47,-1.802772,-0.417403,-0.174784,0.028920,0.375290,0.003881,-0.889659,0.405388,0.210162,1.449183,-0.399711,0.556485,-1.499689,44.703564,22.185787,,,,,,
1467746739.49,-1.798314,-0.417683,-0.174199,0.023341,0.175668,0.007257,-0.890476,0.405644,0.206169,1.410617,-0.391301,0.556069,-1.499689,44.703564,22.185787,,,,,,
1467746739.48,-1.800213,-0.417549,-0.174457,0.032960,0.207512,0.009195,-0.890136,0.405521,0.207872,1.437713,-0.400699,0.549773,-1.499689,44.703564,22.185787,,,,,,
1467746739.50,-1.796101,-0.417797,-0.173953,0.024478,0.229826,0.004789,-0.890885,0.405748,0.204188,1.386140,-0.390550,0.590963,-1.640841,44.717022,22.148636,,,,,,
1467746739.51,-1.793249,-0.417898,-0.173715,0.022420,0.288223,0.005485,-0.891424,0.405840,0.201637,1.367254,-0.385607,0.594002,-1.640841,44.717022,22.148636,,,,,,
1467746739.52,-1.789513,-0.418008,-0.173483,0.022551,0.394400,0.005884,-0.892127,0.405940,0.198295,1.357307,-0.381511,0.603325,-1.640841,44.717022,22.148636,,,,,,
1467746739.53,-1.784891,-0.418123,-0.173301,0.017179,0.470137,0.007571,-0.892989,0.406046,0.194160,1.361174,-0.381922,0.594827,-1.857599,44.738903,22.087240,,,,,,
1467746739.54,-1.779620,-0.418255,-0.173169,0.015130,0.541267,0.011381,-0.893947,0.406167,0.189439,1.346797,-0.388635,0.598525,-1.857599,44.738903,22.087240,,,,,,
1467746739.55,-1.773217,-0.418413,-0.173034,0.014219,0.665496,0.011665,-0.895079,0.406311,0.183698,1.359343,-0.393539,0.612429,-1.857599,44.738903,22.087240,,,,,,
1467746739.56,-1.766973,-0.418560,-0.173016,0.003468,0.587981,0.015334,-0.896150,0.406445,0.178094,1.394670,-0.387067,0.566321,-2.065018,44.746620,22.053169,,,,,,
1467746739.57,-1.761787,-0.418729,-0.173002,0.005503,0.513651,0.016867,-0.896994,0.406599,0.173432,1.386252,-0.401732,0.596878,-2.065018,44.746620,22.053169,,,,,,
1467746739.58,-1.756106,-0.418860,-0.172932,0.011980,0.574188,0.010107,-0.897912,0.406720,0.168323,1.412133,-0.389172,0.622861,-2.065018,44.746620,22.053169,,,,,,
1467746739.59,-1.750925,-0.418987,-0.172813,0.012939,0.490305,0.010634,-0.898722,0.406835,0.163660,1.399362,-0.396139,0.605551,-2.556015,44.755173,21.984262,,,,,,
1467746739.60,-1.746302,-0.419135,-0.172681,0.017136,0.442519,0.012002,-0.899409,0.406971,0.159492,1.416606,-0.392277,0.596260,-2.556015,44.755173,21.984262,,,,,,
1467746739.61,-1.742798,-0.419320,-0.172533,0.015897,0.311903,0.018143,-0.899889,0.407139,0.156327,1.406328,-0.400135,0.585921,-2.556015,44.755173,21.984262,,,,,,
1467746739.62,-1.740075,-0.419542,-0.172411,0.014762,0.258808,0.020603,-0.900222,0.407342,0.153861,1.406157,-0.396844,0.590127,-2.758856,44.761818,21.946182,,,,,,
1467746739.63,-1.738041,-0.419750,-0.172340,0.007198,0.167502,0.019039,-0.900449,0.407532,0.152016,1.433546,-0.391388,0.590401,-2.758856,44.761818,21.946182,,,,,,
1467746739.64,-1.737386,-0.419963,-0.172354,0.001714,0.041147,0.020891,-0.900463,0.407727,0.151411,1.410793,-0.395016,0.583208,-2.758856,44.761818,21.946182,,,,,,
1467746739.65,-1.736765,-0.420201,-0.172349,0.004958,0.085733,0.023808,-0.900461,0.407944,0.150836,1.373117,-0.396042,0.615644,-2.917175,44.773537,21.901762,,,,,,
1467746739.66,-1.735237,-0.420455,-0.172280,0.010377,0.163239,0.024392,-0.900588,0.408176,0.149443,1.384094,-0.402057,0.630113,-2.917175,44.773537,21.901762,,,,,,
1467746739.67,-1.734298,-0.420710,-0.172289,-0.000406,0.054940,0.025060,-0.900625,0.408409,0.148580,1.422094,-0.394508,0.581522,-2.917175,44.773537,21.901762,,,,,,
1467746739.68,-1.734505,-0.420952,-0.172397,-0.005827,-0.022569,0.025541,-0.900497,0.408630,0.148750,1.391433,-0.393081,0.569130,-2.942347,44.778152,21.888954,,,,,,
1467746739.69,-1.733512,-0.421167,-0.172458,-0.000271,0.157944,0.021221,-0.900558,0.408826,0.147842,1.358871,-0.400571,0.629288,-2.942347,44.778152,21.888954,,,,,,
1467746739.70,-1.730963,-0.421382,-0.172527,-0.004392,0.272612,0.023691,-0.900845,0.409022,0.145532,1.369503,-0.388514,0.619727,-2.942347,44.778152,21.888954,,,,,,
1467746739.71,-1.728690,-0.421629,-0.172715,-0.015125,0.211021,0.028324,-0.901073,0.409248,0.143468,1.402615,-0.399390,0.572703,-2.995485,44.779385,21.879223,,,,,,
1467746739.73,-1.727669,-0.422197,-0.173295,-0.022801,0.040063,0.033647,-0.900990,0.409765,0.142512,1.413487,-0.400061,0.571676,-2.995485,44.779385,21.879223,,,,,,
1467746739.72,-1.727850,-0.421901,-0.172979,-0.021711,0.057057,0.031412,-0.901084,0.409496,0.142694,1.437262,-0.393093,0.562613,-2.995485,44.779385,21.879223,,,,,,
1467746739.74,-1.727029,-0.422481,-0.173526,-0.015301,0.070863,0.029203,-0.900966,0.410024,0.141917,1.456752,-0.411123,0.616979,-3.041758,44.774025,21.883812,,,,,,
1467746739.75,-1.727946,-0.422732,-0.173789,-0.019825,-0.142554,0.029473,-0.900734,0.410254,0.142727,1.472648,-0.410452,0.552158,-3.041758,44.774025,21.883812,,,,,,
1467746739.76,-1.729933,-0.423044,-0.174017,-0.013493,-0.178673,0.035028,-0.900322,0.410538,0.144496,1.441307,-0.421646,0.568806,-3.041758,44.774025,21.883812,,,,,,
1467746739.77,-1.731614,-0.423359,-0.174133,-0.002836,-0.174425,0.032883,-0.899950,0.410825,0.145989,1.479128,-0.407193,0.607490,-2.948284,44.761307,21.922579,,,,,,
1467746739.78,-1.734192,-0.423670,-0.174275,-0.009343,-0.271043,0.032418,-0.899444,0.411109,0.148288,1.457321,-0.407218,0.569471,-2.948284,44.761307,21.922579,,,,,,
1467746739.79,-1.736998,-0.423983,-0.174454,-0.012538,-0.267862,0.034524,-0.898898,0.411394,0.150789,1.447146,-0.400789,0.547895,-2.948284,44.761307,21.922579,,,,,,
1467746739.80,-1.739518,-0.424294,-0.174698,-0.017823,-0.237067,0.034325,-0.898389,0.411677,0.153032,1.464322,-0.400889,0.573576,-2.827816,44.760311,21.940477,,,,,,
1467746739.81,-1.742435,-0.424576,-0.174968,-0.021096,-0.303953,0.032612,-0.897824,0.411934,0.155633,1.480497,-0.395897,0.547309,-2.827816,44.760311,21.940477,,,,,,
1467746739.82,-1.745715,-0.424881,-0.175304,-0.025362,-0.303960,0.035802,-0.897185,0.412212,0.158554,1.460402,-0.411220,0.537567,-2.827816,44.760311,21.940477,,,,,,
1467746739.83,-1.748561,-0.425231,-0.175607,-0.020000,-0.266811,0.039832,-0.896588,0.412531,0.161082,1.488126,-0.416392,0.575414,-2.523497,44.748104,22.002403,,,,,,
1467746739.84,-1.751740,-0.425590,-0.175902,-0.021137,-0.323089,0.041248,-0.895926,0.412858,0.163904,1.495764,-0.415391,0.543234,-2.523497,44.748104,22.002403,,,,,,
1467746739.85,-1.755298,-0.425957,-0.176219,-0.021155,-0.335834,0.042392,-0.895188,0.413193,0.167064,1.483384,-0.416672,0.525975,-2.523497,44.748104,22.002403,,,,,,
1467746739.86,-1.757478,-0.426317,-0.176463,-0.014535,-0.154263,0.039131,-0.894675,0.413521,0.168987,1.474113,-0.418953,0.607578,-2.360729,44.740990,22.034914,,,,,,
1467746739.87,-1.758149,-0.426622,-0.176717,-0.019713,-0.044883,0.034182,-0.894438,0.413798,0.169564,1.481489,-0.406306,0.546821,-2.360729,44.740990,22.034914,,,,,,
1467746739.88,-1.759412,-0.426934,-0.177105,-0.030489,-0.140451,0.039029,-0.894096,0.414082,0.170669,1.520775,-0.410603,0.513245,-2.360729,44.740990,22.034914,,,,,,
1467746739.89,-1.760565,-0.427303,-0.177535,-0.031455,-0.055518,0.042753,-0.893749,0.414418,0.171671,1.498867,-0.415806,0.559042,-2.134317,44.726120,22.088131,,,,,,
1467746739.90,-1.760890,-0.427625,-0.178043,-0.039936,-0.027904,0.041507,-0.893562,0.414711,0.171937,1.529686,-0.400474,0.493606,-2.134317,44.726120,22.088131,,,,,,
1467746739.91,-1.762075,-0.427983,-0.178651,-0.049618,-0.103293,0.044099,-0.893212,0.415036,0.172967,1.545022,-0.423932,0.537483,-2.134317,44.726120,22.088131,,,,,,
1467746739.92,-1.763319,-0.428308,-0.179199,-0.042150,-0.093738,0.042982,-0.892863,0.415332,0.174052,1.557734,-0.415393,0.562474,-2.072725,44.712204,22.122139,,,,,,
1467746739.93,-1.763513,-0.428614,-0.179723,-0.041983,0.031570,0.036874,-0.892705,0.415611,0.174201,1.529683,-0.432411,0.541222,-2.072725,44.712204,22.122139,,,,,,
1467746739.94,-1.763652,-0.428889,-0.180151,-0.032451,-0.014084,0.033976,-0.892568,0.415861,0.174303,1.584234,-0.421659,0.600142,-2.072725,44.712204,22.122139,,,,,,
1467746739.95,-1.764202,-0.429126,-0.180650,-0.043118,-0.033185,0.031957,-0.892376,0.416076,0.174775,1.562267,-0.419433,0.509261,-1.959141,44.679054,22.199327,,,,,,
1467746739.96,-1.764967,-0.429339,-0.181167,-0.039965,-0.068223,0.031115,-0.892155,0.416270,0.175440,1.595463,-0.421778,0.539419,-1.959141,44.679054,22.199327,,,,,,
1467746739.97,-1.765808,-0.429558,-0.181627,-0.038873,-0.045926,0.030976,-0.891917,0.416469,0.176174,1.581096,-0.417979,0.580845,-1.959141,44.679054,22.199327,,,,,,
1467746739.98,-1.766530,-0.429800,-0.182217,-0.049550,-0.065042,0.034279,-0.891691,0.416689,0.176797,1.592817,-0.427416,0.519690,-1.911648,44.662033,22.237690,,,,,,
1467746739.99,-1.768403,-0.430090,-0.182820,-0.049714,-0.189284,0.039316,-0.891240,0.416952,0.178444,1.620152,-0.428992,0.565269,-1.911648,44.662033,22.237690,,,,,,
1467746740.00,-1.770197,-0.430368,-0.183511,-0.057092,-0.128758,0.038929,-0.890805,0.417205,0.180019,1.593838,-0.426818,0.536488,-1.911648,44.662033,22.237690,,,,,,
1467746740.01,-1.772147,-0.430566,-0.184221,-0.059291,-0.199871,0.029793,-0.890371,0.417385,0.181740,1.644552,-0.427730,0.560127,-1.753239,44.622570,22.329781,,,,,,
1467746740.03,-1.778030,-0.430872,-0.185721,-0.062539,-0.249763,0.025844,-0.889161,0.417664,0.186948,1.635682,-0.431931,0.565096,-1.753239,44.622570,22.329781,,,,,,
1467746740.02,-1.775191,-0.430748,-0.184929,-0.062591,-0.282693,0.031373,-0.889739,0.417550,0.184433,1.632385,-0.430490,0.555984,-1.753239,44.622570,22.329781,,,,,,
1467746740.04,-1.780761,-0.431018,-0.186393,-0.060406,-0.243399,0.027935,-0.888588,0.417796,0.189363,1.632713,-0.427699,0.605650,-1.626673,44.597107,22.390144,,,,,,
1467746740.05,-1.784651,-0.431168,-0.187206,-0.072327,-0.406916,0.031078,-0.887783,0.417933,0.192805,1.672100,-0.440866,0.532629,-1.626673,44.597107,22.390144,,,,,,
1467746740.06,-1.790049,-0.431369,-0.188072,-0.073534,-0.509928,0.038110,-0.886648,0.418115,0.197576,1.660054,-0.432672,0.566218,-1.626673,44.597107,22.390144,,,,,,
1467746740.07,-1.794859,-0.431562,-0.188991,-0.077684,-0.424979,0.036508,-0.885608,0.418290,0.201821,1.643222,-0.442063,0.568214,-1.268631,44.539101,22.528328,,,,,,
1467746740.08,-1.799654,-0.431756,-0.189960,-0.081971,-0.444095,0.038753,-0.884551,0.418466,0.206046,1.647796,-0.435861,0.587838,-1.268631,44.539101,22.528328,,,,,,
1467746740.09,-1.804499,-0.431902,-0.190961,-0.088350,-0.445139,0.033431,-0.883483,0.418599,0.210315,1.659210,-0.436284,0.558575,-1.268631,44.539101,22.528328,,,,,,
1467746740.10,-1.810170,-0.432046,-0.191996,-0.087423,-0.553446,0.035175,-0.882218,0.418730,0.215308,1.683701,-0.440733,0.563837,-1.035913,44.504173,22.609116,,,,,,
1467746740.11,-1.816005,-0.432173,-0.193016,-0.091640,-0.519466,0.034958,-0.880895,0.418845,0.220439,1.663533,-0.434852,0.581532,-1.035913,44.504173,22.609116,,,,,,
1467746740.12,-1.821852,-0.432255,-0.194141,-0.098076,-0.562988,0.032031,-0.879558,0.418919,0.225578,1.693858,-0.444050,0.565774,-1.035913,44.504173,22.609116,,,,,,
1467746740.13,-1.828579,-0.432294,-0.195208,-0.092829,-0.634114,0.026096,-0.878005,0.418955,0.231484,1.690367,-0.430750,0.583671,-0.510147,44.424232,22.783630,,,,,,
1467746740.14,-1.835689,-0.432229,-0.196345,-0.103536,-0.693549,0.019007,-0.876363,0.418896,0.237729,1.715077,-0.444683,0.548145,-0.510147,44.424232,22.783630,,,,,,
1467746740.15,-1.843569,-0.432203,-0.197405,-0.091884,-0.736036,0.022478,-0.874472,0.418872,0.244630,1.683539,-0.437320,0.571013,-0.510147,44.424232,22.783630,,,,,,
1467746740.16,-1.851615,-0.432150,-0.198545,-0.102599,-0.789124,0.023865,-0.872497,0.418824,0.251664,1.723739,-0.450791,0.554015,-0.193768,44.380070,22.874407,,,,,,
1467746740.17,-1.861245,-0.432125,-0.199686,-0.101721,-0.935656,0.025849,-0.870044,0.418801,0.260057,1.713565,-0.446313,0.543410,-0.193768,44.380070,22.874407,,,,,,
1467746740.18,-1.871233,-0.432025,-0.200885,-0.108120,-0.951568,0.021685,-0.867443,0.418711,0.268746,1.719570,-0.444315,0.538871,-0.193768,44.380070,22.874407,,,,,,
1467746740.19,-1.881071,-0.431892,-0.202007,-0.099546,-0.913336,0.017196,-0.864810,0.418589,0.277284,1.682742,-0.442912,0.565993,0.621031,44.287651,23.045275,,,,,,
1467746740.21,-1.899418,-0.431453,-0.204260,-0.110211,-0.934555,0.013060,-0.859751,0.418191,0.293163,1.705347,-0.455194,0.515385,0.621031,44.287651,23.045275,,,,,,
1467746740.20,-1.889894,-0.431692,-0.203050,-0.098361,-0.829433,0.009219,-0.862409,0.418408,0.284930,1.688810,-0.438138,0.570112,0.621031,44.287651,23.045275,,,,,,
1467746740.22,-1.908970,-0.431291,-0.205370,-0.101644,-0.886792,0.018092,-0.856975,0.418044,0.301384,1.680538,-0.445906,0.537773,1.043337,44.241848,23.117893,,,,,,
1467746740.23,-1.918124,-0.431102,-0.206559,-0.105881,-0.867681,0.019032,-0.854255,0.417872,0.309243,1.690330,-0.459880,0.529609,1.043337,44.241848,23.117893,,,,,,
1467746740.24,-1.926925,-0.430954,-0.207690,-0.102633,-0.819910,0.021929,-0.851559,0.417737,0.316771,1.675884,-0.444700,0.545870,1.043337,44.241848,23.117893,,,,,,
1467746740.25,-1.936168,-0.430783,-0.208965,-0.116595,-0.910165,0.025674,-0.848661,0.417582,0.324653,1.717405,-0.465220,0.484978,1.887943,44.142921,23.253056,,,,,,
1467746740.26,-1.946140,-0.430639,-0.210193,-0.108095,-0.922914,0.026827,-0.845437,0.417451,0.333122,1.686929,-0.444795,0.508568,1.887943,44.142921,23.253056,,,,,,
1467746740.27,-1.955142,-0.430461,-0.211388,-0.109051,-0.840087,0.024178,-0.842473,0.417289,0.340747,1.692632,-0.455757,0.511716,1.887943,44.142921,23.253056,,,,,,
1467746740.28,-1.964354,-0.430277,-0.212603,-0.109103,-0.879376,0.025489,-0.839369,0.417123,0.348523,1.678129,-0.447793,0.503070,2.333925,44.089752,23.313366,,,,,,
1467746740.29,-1.973459,-0.430109,-0.213853,-0.112254,-0.840097,0.028433,-0.836226,0.416970,0.356178,1.667296,-0.451211,0.493950,2.333925,44.089752,23.313366,,,,,,
1467746740.30,-1.981753,-0.429884,-0.215045,-0.103624,-0.764690,0.019453,-0.833329,0.416765,0.363139,1.654114,-0.450716,0.496724,2.756994,44.037956,23.365009,,,,,,
1467746740.31,-1.989254,-0.429584,-0.216183,-0.108833,-0.681852,0.013606,-0.830695,0.416493,0.369430,1.646507,-0.435933,0.503434,2.756994,44.037956,23.365009,,,,,,
1467746740.32,-1.997077,-0.429156,-0.217433,-0.125954,-0.764638,0.004528,-0.827942,0.416104,0.375991,1.658814,-0.465664,0.461717,2.756994,44.037956,23.365009,,,,,,
1467746740.33,-2.004511,-0.428653,-0.218579,-0.108723,-0.621282,-0.003805,-0.825314,0.415646,0.382224,1.533841,-0.432187,0.561319,3.507902,43.930939,23.465588,,,,,,
1467746740.34,-2.007942,-0.428216,-0.219611,-0.106094,-0.209327,0.002129,-0.824162,0.415249,0.385129,1.403096,-0.433239,0.736117,3.507902,43.930939,23.465588,,,,,,
1467746740.35,-2.010124,-0.427903,-0.220822,-0.115684,-0.182833,0.022178,-0.823438,0.414964,0.386983,1.244138,-0.441056,0.768413,3.507902,43.930939,23.465588,,,,,,
1467746740.36,-2.012609,-0.427661,-0.222083,-0.109285,-0.165862,0.027400,-0.822564,0.414744,0.389070,1.069863,-0.413202,0.929060,3.740818,43.879498,23.525787,,,,,,
1467746740.37,-2.011319,-0.427462,-0.223168,-0.092725,0.303446,0.024473,-0.823140,0.414563,0.388044,0.993520,-0.420560,0.994997,3.740818,43.879498,23.525787,,,,,,
1467746740.38,-2.005946,-0.427430,-0.224137,-0.078493,0.642108,0.039395,-0.825225,0.414534,0.383622,0.952193,-0.442976,0.945984,3.740818,43.879498,23.525787,,,,,,
1467746740.39,-1.998958,-0.427523,-0.225255,-0.086884,0.767363,0.053503,-0.827851,0.414618,0.377829,0.956162,-0.413229,0.938043,3.694340,43.779671,23.718319,,,,,,
1467746740.40,-1.990897,-0.427760,-0.226221,-0.066529,0.876701,0.059224,-0.830780,0.414834,0.371104,0.950759,-0.409738,0.941335,3.694340,43.779671,23.718319,,,,,,
1467746740.41,-1.980996,-0.428140,-0.227125,-0.056707,1.091140,0.072792,-0.834269,0.415179,0.362797,1.019205,-0.416217,0.897625,3.694340,43.779671,23.718319,,,,,,
1467746740.42,-1.968467,-0.428749,-0.227800,-0.030905,1.304523,0.081059,-0.838515,0.415733,0.352219,1.295684,-0.450905,0.645599,3.694340,43.779671,23.718319,,,,,,
1467746740.43,-1.958851,-0.429285,-0.228607,-0.044209,0.872396,0.076305,-0.841657,0.416221,0.344055,1.391416,-0.403038,0.563203,2.876308,43.711334,23.956472,,,,,,
1467746740.44,-1.951810,-0.429827,-0.229134,-0.024166,0.709954,0.068828,-0.843849,0.416714,0.338037,1.472786,-0.458019,0.500556,2.876308,43.711334,23.956472,,,,,,
1467746740.45,-1.944861,-0.430343,-0.229740,-0.028418,0.715265,0.068791,-0.845978,0.417182,0.332086,1.604889,-0.448951,0.412604,2.876308,43.711334,23.956472,,,,,,
1467746740.46,-1.939986,-0.430905,-0.230150,-0.018150,0.404166,0.065430,-0.847368,0.417693,0.327873,1.672761,-0.451980,0.308831,2.527012,43.690277,24.034149,,,,,,
1467746740.47,-1.938474,-0.431357,-0.230741,-0.034455,0.128123,0.060758,-0.847686,0.418104,0.326523,1.695449,-0.473341,0.276733,2.527012,43.690277,24.034149,,,,,,
1467746740.48,-1.937989,-0.431850,-0.231351,-0.033488,0.058029,0.066521,-0.847652,0.418552,0.326038,1.720317,-0.465152,0.259594,2.527012,43.690277,24.034149,,,,,,
1467746740.49,-1.938881,-0.432358,-0.232027,-0.045417,-0.107618,0.071805,-0.847162,0.419013,0.326718,1.714548,-0.492758,0.205249,2.286335,43.656631,24.119247,,,,,,
1467746740.50,-1.941386,-0.432883,-0.233003,-0.065834,-0.240362,0.083262,-0.846136,0.419489,0.328759,1.727316,-0.486338,0.200782,2.286335,43.656631,24.119247,,,,,,
1467746740.51,-1.945102,-0.433494,-0.234090,-0.074519,-0.352944,0.096733,-0.844670,0.420044,0.331807,1.679692,-0.507416,0.204676,2.286335,43.656631,24.119247,,,,,,
1467746740.52,-1.949486,-0.434154,-0.235615,-0.113970,-0.363601,0.118049,-0.842949,0.420643,0.335404,1.627983,-0.519002,0.229155,2.417271,43.628330,24.157658,,,,,,
1467746740.53,-1.953515,-0.434850,-0.237371,-0.125777,-0.327193,0.125297,-0.841319,0.421274,0.338689,1.529567,-0.488825,0.310817,2.417271,43.628330,24.157658,,,,,,
1467746740.54,-1.956462,-0.435621,-0.239369,-0.142617,-0.137180,0.145378,-0.840016,0.421974,0.341044,1.455571,-0.515342,0.383397,2.417271,43.628330,24.157658,,,,,,
1467746740.55,-1.956586,-0.436512,-0.241793,-0.180643,0.149449,0.171218,-0.839625,0.422781,0.341007,1.474925,-0.512717,0.360608,2.921530,43.510262,24.314365,,,,,,
1467746740.56,-1.955686,-0.437427,-0.244278,-0.168869,0.194048,0.167756,-0.839573,0.423610,0.340106,1.555958,-0.461223,0.342161,2.921530,43.510262,24.314365,,,,,,
1467746740.57,-1.954844,-0.438260,-0.246833,-0.186952,0.199381,0.162383,-0.839531,0.424365,0.339267,1.630135,-0.479815,0.284299,2.921530,43.510262,24.314365,,,,,,
1467746740.58,-1.954229,-0.439065,-0.249306,-0.173180,0.131439,0.155371,-0.839423,0.425093,0.338622,1.718833,-0.459608,0.226624,2.997355,43.416344,24.472506,,,,,,
1467746740.59,-1.955740,-0.439685,-0.251567,-0.162791,-0.120134,0.128219,-0.838666,0.425655,0.339791,1.721204,-0.468715,0.260292,2.997355,43.416344,24.472506,,,,,,
1467746740.60,-1.958608,-0.440191,-0.253611,-0.149027,-0.212465,0.109652,-0.837488,0.426112,0.342113,1.681177,-0.483989,0.285999,2.997355,43.416344,24.472506,,,,,,
1467746740.61,-1.961712,-0.440537,-0.255472,-0.136242,-0.234720,0.091709,-0.836286,0.426425,0.344655,1.632657,-0.473819,0.336436,3.220520,43.231449,24.769670,,,,,,
1467746740.62,-1.965109,-0.440860,-0.257098,-0.124579,-0.280371,0.087749,-0.834983,0.426718,0.347441,1.571143,-0.523687,0.373842,3.220520,43.231449,24.769670,,,,,,
1467746740.63,-1.968845,-0.441136,-0.258720,-0.122474,-0.320686,0.075230,-0.833571,0.426967,0.350512,1.529585,-0.491756,0.415281,3.220520,43.231449,24.769670,,,,,,
1467746740.64,-1.972861,-0.441354,-0.260216,-0.115013,-0.319619,0.072038,-0.832071,0.427164,0.353821,1.452341,-0.495279,0.468567,3.423628,43.159340,24.867981,,,,,,
1467746740.65,-1.976357,-0.441610,-0.261797,-0.124578,-0.289910,0.081422,-0.830728,0.427396,0.356684,1.397363,-0.497998,0.458425,3.423628,43.159340,24.867981,,,,,,
1467746740.66,-1.980303,-0.441887,-0.263251,-0.100133,-0.335562,0.075346,-0.829206,0.427646,0.359912,1.339048,-0.435931,0.537549,3.423628,43.159340,24.867981,,,,,,
1467746740.67,-1.983264,-0.442185,-0.264551,-0.094640,-0.198595,0.075557,-0.828020,0.427915,0.362315,1.308092,-0.487806,0.576329,3.871586,43.030243,25.025492,,,,,,
1467746740.68,-1.984589,-0.442556,-0.265648,-0.072095,-0.051016,0.074654,-0.827393,0.428251,0.363348,1.316285,-0.490751,0.561823,3.871586,43.030243,25.025492,,,,,,
1467746740.69,-1.984929,-0.442931,-0.266688,-0.069880,0.021180,0.076332,-0.827123,0.428590,0.363565,1.372502,-0.473557,0.510016,3.871586,43.030243,25.025492,,,,,,
1467746740.70,-1.984288,-0.443378,-0.267446,-0.042071,0.106136,0.066247,-0.827180,0.428993,0.362958,1.541230,-0.537834,0.361560,4.016939,42.981380,25.086479,,,,,,
1467746740.71,-1.984528,-0.443622,-0.268204,-0.046436,-0.019084,0.041481,-0.826997,0.429213,0.363114,1.593614,-0.457320,0.366668,4.016939,42.981380,25.086479,,,,,,
1467746740.72,-1.984570,-0.443677,-0.268514,-0.029274,0.031959,0.010309,-0.826960,0.429263,0.363139,1.627451,-0.512897,0.277806,4.016939,42.981380,25.086479,,,,,,
1467746740.73,-1.984901,-0.443575,-0.268903,-0.025092,-0.039166,0.004373,-0.826880,0.429171,0.363430,1.581717,-0.475924,0.305042,4.074385,42.924767,25.174004,,,,,,
1467746740.74,-1.985792,-0.443514,-0.269313,-0.049644,-0.081641,0.009937,-0.826580,0.429116,0.364178,1.558452,-0.516213,0.280583,4.074385,42.924767,25.174004,,,,,,
1467746740.75,-1.986634,-0.443410,-0.269669,-0.022980,-0.058271,0.001301,-0.826314,0.429022,0.364891,1.567998,-0.482443,0.317360,4.074385,42.924767,25.174004,,,,,,
1467746740.76,-1.986830,-0.443271,-0.269956,-0.033540,0.002272,-0.004411,-0.826297,0.428897,0.365077,1.600787,-0.519397,0.279637,4.102583,42.905907,25.201557,,,,,,
1467746740.77,-1.987002,-0.443110,-0.270212,-0.027147,-0.000905,-0.008643,-0.826297,0.428751,0.365248,1.617816,-0.511148,0.268023,4.102583,42.905907,25.201557,,,,,,
1467746740.78,-1.986960,-0.442840,-0.270415,-0.027103,0.019296,-0.018350,-0.826418,0.428507,0.365259,1.629961,-0.530833,0.272878,4.102583,42.905907,25.201557,,,,,,
1467746740.80,-1.986429,-0.442138,-0.270611,-0.010058,-0.010379,-0.041564,-0.826887,0.427873,0.364942,1.651457,-0.491884,0.254702,4.110922,42.876945,25.249441,,,,,,
1467746740.79,-1.986462,-0.442541,-0.270583,-0.030243,0.052231,-0.024946,-0.826717,0.428237,0.364899,1.662930,-0.530944,0.258208,4.110922,42.876945,25.249441,,,,,,
1467746740.81,-1.986735,-0.441609,-0.270539,-0.017516,-0.031582,-0.052083,-0.826982,0.427395,0.365287,1.615877,-0.495815,0.291055,4.110922,42.876945,25.249441,,,,,,
1467746740.82,-1.986981,-0.441080,-0.270524,-0.023913,-0.031590,-0.047832,-0.827099,0.426916,0.365581,1.574764,-0.516699,0.273487,4.070930,42.868019,25.271067,,,,,,
1467746740.83,-1.987882,-0.440585,-0.270637,-0.027208,-0.103806,-0.042060,-0.826962,0.426469,0.366412,1.544202,-0.500627,0.355222,4.070930,42.868019,25.271067,,,,,,
1467746740.84,-1.988909,-0.440053,-0.270698,-0.027176,-0.081502,-0.044329,-0.826793,0.425988,0.367353,1.487834,-0.498055,0.402163,4.070930,42.868019,25.271067,,,,,,
1467746740.85,-1.989661,-0.439648,-0.270873,-0.034674,-0.088981,-0.026194,-0.826674,0.425621,0.368045,1.462279,-0.528267,0.401502,4.052372,42.852463,25.300419,,,,,,
1467746740.86,-1.991564,-0.439250,-0.271007,-0.022039,-0.215318,-0.033904,-0.826127,0.425261,0.369686,1.412873,-0.478697,0.448719,4.052372,42.852463,25.300419,,,,,,
1467746740.87,-1.993724,-0.438910,-0.271073,-0.016703,-0.189864,-0.024479,-0.825458,0.424953,0.371530,1.330219,-0.486919,0.521827,4.052372,42.852463,25.300419,,,,,,
1467746740.88,-1.994864,-0.438712,-0.271086,-0.010228,-0.100711,-0.012258,-0.825110,0.424774,0.372505,1.303046,-0.514130,0.506203,4.089659,42.840237,25.315113,,,,,,
1467746740.89,-1.996277,-0.438627,-0.271214,-0.012441,-0.148523,-0.000251,-0.824616,0.424697,0.373685,1.291016,-0.502288,0.528171,4.089659,42.840237,25.315113,,,,,,
1467746740.90,-1.997010,-0.438700,-0.271329,-0.003791,-0.014790,0.017014,-0.824314,0.424763,0.374276,1.338978,-0.511204,0.505530,4.089659,42.840237,25.315113,,,,,,
1467746740.91,-1.996824,-0.438891,-0.271568,-0.017633,0.002176,0.027539,-0.824310,0.424936,0.374089,1.470230,-0.524393,0.376414,4.207724,42.829380,25.314144,,,,,,
1467746740.92,-1.998303,-0.439074,-0.271740,-0.000815,-0.183627,0.021269,-0.823684,0.425102,0.375277,1.547363,-0.478584,0.324263,4.207724,42.829380,25.314144,,,,,,
1467746740.93,-2.000737,-0.439273,-0.272032,-0.017936,-0.234615,0.032217,-0.822692,0.425281,0.377245,1.558898,-0.507816,0.292448,4.207724,42.829380,25.314144,,,,,,
1467746740.94,-2.003442,-0.439523,-0.272300,-0.014790,-0.269661,0.034568,-0.821572,0.425508,0.379424,1.540169,-0.505617,0.295365,4.257240,42.822643,25.317265,,,,,,
1467746740.95,-2.006368,-0.439753,-0.272663,-0.017984,-0.269660,0.034565,-0.820370,0.425716,0.381785,1.516384,-0.493175,0.326009,4.257240,42.822643,25.317265,,,,,,
1467746740.96,-2.008654,-0.439993,-0.273057,-0.025346,-0.192153,0.037265,-0.819402,0.425933,0.383616,1.527791,-0.519256,0.314488,4.407793,42.813026,25.307756,,,,,,
1467746740.97,-2.010596,-0.440255,-0.273490,-0.025329,-0.173050,0.040339,-0.818554,0.426170,0.385159,1.543576,-0.528328,0.291812,4.407793,42.813026,25.307756,,,,,,
1467746740.98,-2.012619,-0.440438,-0.274051,-0.041299,-0.176221,0.038214,-0.817703,0.426336,0.386781,1.565979,-0.529897,0.274077,4.407793,42.813026,25.307756,,,,,,
1467746740.99,-2.014632,-0.440612,-0.274563,-0.033852,-0.187893,0.034037,-0.816856,0.426493,0.388394,1.586555,-0.521785,0.264972,4.407793,42.813026,25.307756,,,,,,
1467746741.00,-2.017063,-0.440639,-0.275025,-0.035997,-0.229252,0.016198,-0.815898,0.426518,0.390374,1.547680,-0.500874,0.302344,4.685385,42.779686,25.314262,,,,,,
1467746741.01,-2.018307,-0.440616,-0.275230,-0.014470,-0.060407,0.004516,-0.815421,0.426497,0.391393,1.523261,-0.502989,0.347086,4.685385,42.779686,25.314262,,,,,,
1467746741.02,-2.018269,-0.440558,-0.275467,-0.021837,0.009673,0.005134,-0.815458,0.426444,0.391373,1.551512,-0.525443,0.286789,4.685385,42.779686,25.314262,,,,,,
1467746741.03,-2.019057,-0.440515,-0.275550,-0.010244,-0.097555,-0.001633,-0.815167,0.426405,0.392023,1.552090,-0.506208,0.285040,4.841383,42.748573,25.337465,,,,,,
1467746741.04,-2.019665,-0.440414,-0.275745,-0.018672,-0.024289,-0.001037,-0.814967,0.426314,0.392537,1.538295,-0.512557,0.301112,4.841383,42.748573,25.337465,,,,,,
1467746741.05,-2.019718,-0.440402,-0.275798,-0.005888,-0.014745,0.001045,-0.814951,0.426303,0.392583,1.576029,-0.511264,0.280238,4.841383,42.748573,25.337465,,,,,,
1467746741.06,-2.021085,-0.440328,-0.275944,-0.017788,-0.166574,0.000921,-0.814442,0.426236,0.393710,1.561039,-0.512464,0.260327,4.872845,42.741348,25.343628,,,,,,
1467746741.07,-2.023326,-0.440280,-0.276046,-0.008279,-0.230278,-0.001863,-0.813576,0.426193,0.395543,1.541313,-0.504775,0.312190,4.872845,42.741348,25.343628,,,,,,
1467746741.08,-2.025452,-0.440163,-0.275979,0.004560,-0.205819,-0.017971,-0.812778,0.426087,0.397294,1.497104,-0.484070,0.364730,4.906725,42.736298,25.345598,,,,,,
1467746741.09,-2.026922,-0.440018,-0.275634,0.027016,-0.146340,-0.028966,-0.812248,0.425956,0.398516,1.477928,-0.484260,0.390745,4.906725,42.736298,25.345598,,,,,,
1467746741.10,-2.027989,-0.439909,-0.275163,0.036619,-0.126176,-0.026954,-0.811864,0.425857,0.399402,1.492009,-0.506882,0.354168,4.906725,42.736298,25.345598,,,,,,
1467746741.11,-2.029545,-0.439777,-0.274608,0.036537,-0.206847,-0.036028,-0.811292,0.425738,0.400690,1.536878,-0.507983,0.294149,4.906725,42.736298,25.345598,,,,,,
1467746741.12,-2.031717,-0.439625,-0.273963,0.051409,-0.239762,-0.039000,-0.810478,0.425600,0.402480,1.525139,-0.488894,0.312944,5.060616,42.751141,25.290251,,,,,,
1467746741.13,-2.033583,-0.439542,-0.273361,0.041845,-0.207932,-0.028565,-0.809757,0.425525,0.404007,1.509998,-0.527423,0.279983,5.060616,42.751141,25.290251,,,,,,
1467746741.14,-2.035787,-0.439523,-0.272755,0.048169,-0.255722,-0.026130,-0.808872,0.425508,0.405795,1.484790,-0.498964,0.308652,5.060616,42.751141,25.290251,,,,,,
1467746741.15,-2.037479,-0.439471,-0.272281,0.036574,-0.153798,-0.021458,-0.808204,0.425461,0.407173,1.449912,-0.507386,0.338341,5.226954,42.802807,25.168737,,,,,,
1467746741.16,-2.037891,-0.439497,-0.271841,0.031379,-0.035962,-0.012623,-0.808026,0.425484,0.407501,1.447461,-0.516609,0.329591,5.226954,42.802807,25.168737,,,,,,
1467746741.17,-2.037633,-0.439520,-0.271551,0.027197,0.031984,-0.008795,-0.808123,0.425505,0.407288,1.459764,-0.505263,0.326217,5.226954,42.802807,25.168737,,,,,,
1467746741.18,-2.036452,-0.439609,-0.271335,0.015591,0.138132,0.004365,-0.808569,0.425586,0.406316,1.463675,-0.523563,0.304240,5.272707,42.823166,25.124523,,,,,,
1467746741.19,-2.034270,-0.439798,-0.271226,0.018883,0.233664,0.014414,-0.809382,0.425757,0.404515,1.487315,-0.521093,0.295452,5.272707,42.823166,25.124523,,,,,,
1467746741.20,-2.031220,-0.439941,-0.271123,0.015821,0.327124,0.006374,-0.810557,0.425886,0.402017,1.512294,-0.506971,0.298895,5.272707,42.823166,25.124523,,,,,,
1467746741.21,-2.026805,-0.440017,-0.270922,0.018139,0.465178,-0.001941,-0.812295,0.425955,0.398421,1.567651,-0.513602,0.269517,5.117361,42.842197,25.124195,,,,,,
1467746741.22,-2.021996,-0.440018,-0.270804,0.010689,0.460946,-0.006180,-0.814202,0.425955,0.394509,1.647896,-0.520560,0.184241,5.117361,42.842197,25.124195,,,,,,
1467746741.23,-2.018120,-0.439814,-0.270584,0.005285,0.346362,-0.037400,-0.815803,0.425771,0.391388,1.696037,-0.494176,0.153427,4.886375,42.849865,25.157085,,,,,,
1467746741.24,-2.014491,-0.439469,-0.270285,0.019183,0.384592,-0.041884,-0.817350,0.425459,0.388488,1.619123,-0.474440,0.246842,4.886375,42.849865,25.157085,,,,,,
1467746741.25,-2.009933,-0.439159,-0.269986,0.001134,0.432370,-0.037943,-0.819232,0.425179,0.384815,1.612460,-0.534935,0.223233,4.886375,42.849865,25.157085,,,,,,
1467746741.26,-2.006665,-0.438885,-0.269774,0.008386,0.283694,-0.029553,-0.820590,0.424931,0.382185,1.567585,-0.495167,0.276583,4.673153,42.857864,25.183952,,,,,,
1467746741.27,-2.003886,-0.438685,-0.269699,-0.004425,0.278353,-0.015694,-0.821727,0.424750,0.379939,1.499476,-0.517630,0.333074,4.673153,42.857864,25.183952,,,,,,
1467746741.28,-2.000833,-0.438582,-0.269739,-0.011842,0.320805,-0.007452,-0.822923,0.424656,0.377446,1.398606,-0.529636,0.408809,4.673153,42.857864,25.183952,,,,,,
1467746741.29,-1.996674,-0.438491,-0.269603,0.019220,0.454601,-0.016776,-0.824520,0.424574,0.374036,1.347973,-0.472212,0.528765,4.673153,42.857864,25.183952,,,,,,
1467746741.30,-1.990160,-0.438453,-0.269258,0.021627,0.675454,-0.018159,-0.826954,0.424539,0.368664,1.420247,-0.504572,0.475025,4.291203,42.864243,25.241014,,,,,,
1467746741.31,-1.984519,-0.438282,-0.268947,0.027819,0.497107,-0.030872,-0.829087,0.424385,0.364023,1.515366,-0.487297,0.367285,4.291203,42.864243,25.241014,,,,,,
1467746741.32,-1.979830,-0.438076,-0.268276,0.043746,0.439799,-0.044334,-0.830865,0.424198,0.360166,1.581674,-0.466739,0.340228,4.291203,42.864243,25.241014,,,,,,
1467746741.33,-1.974770,-0.437817,-0.267530,0.062969,0.470608,-0.054088,-0.832778,0.423964,0.356000,1.630919,-0.488249,0.324191,3.733383,42.893616,25.279749,,,,,,
1467746741.34,-1.971064,-0.437398,-0.266874,0.028679,0.272109,-0.067780,-0.834255,0.423584,0.352981,1.654750,-0.553742,0.294267,3.733383,42.893616,25.279749,,,,,,
1467746741.35,-1.968005,-0.436999,-0.266038,0.061710,0.307106,-0.058386,-0.835487,0.423223,0.350492,1.544502,-0.436040,0.365954,3.733383,42.893616,25.279749,,,,,,
1467746741.36,-1.964832,-0.436626,-0.265460,0.025401,0.230657,-0.051557,-0.836740,0.422885,0.347900,1.581598,-0.549868,0.325593,3.478668,42.920429,25.270576,,,,,,
1467746741.37,-1.963485,-0.436434,-0.264892,0.043304,0.102120,-0.032637,-0.837283,0.422710,0.346804,1.507632,-0.438198,0.363599,3.478668,42.920429,25.270576,,,,,,
1467746741.38,-1.964662,-0.436298,-0.265054,-0.007146,-0.185668,-0.007464,-0.836927,0.422588,0.347811,1.493757,-0.543361,0.355787,3.478668,42.920429,25.270576,,,,,,
1467746741.39,-1.965900,-0.436483,-0.264620,0.021693,-0.075319,0.015290,-0.836424,0.422755,0.348817,1.404860,-0.456263,0.436507,3.265495,42.953655,25.242558,,,,,,
1467746741.40,-1.966790,-0.436615,-0.264816,0.017354,-0.135846,0.017794,-0.836062,0.422874,0.349539,1.469012,-0.573753,0.497415,3.265495,42.953655,25.242558,,,,,,
1467746741.41,-1.967567,-0.436964,-0.264533,0.006787,-0.047752,0.032134,-0.835654,0.423191,0.350132,1.362631,-0.444919,0.471508,3.265495,42.953655,25.242558,,,,,,
1467746741.42,-1.967349,-0.437381,-0.264733,0.022882,0.079607,0.049446,-0.835567,0.423569,0.349882,1.263057,-0.555221,0.585314,3.330704,42.961067,25.221405,,,,,,
1467746741.44,-1.959762,-0.438314,-0.264897,0.039407,0.495869,0.030886,-0.837831,0.424414,0.343382,1.321413,-0.449469,0.597230,3.330704,42.961067,25.221405,,,,,,
1467746741.43,-1.964210,-0.437902,-0.264868,-0.019368,0.359926,0.054033,-0.836457,0.424040,0.347173,1.279100,-0.491286,0.527126,3.330704,42.961067,25.221405,,,,,,
1467746741.45,-1.954385,-0.438562,-0.265090,-0.029752,0.533070,0.029519,-0.839568,0.424638,0.338833,1.502822,-0.540284,0.390598,3.221264,42.970505,25.219549,,,,,,
1467746741.46,-1.950151,-0.438766,-0.265124,0.010559,0.391868,0.016607,-0.840915,0.424823,0.335243,1.659732,-0.506534,0.321282,3.221264,42.970505,25.219549,,,,,,
1467746741.47,-1.947382,-0.438756,-0.265508,-0.029006,0.251738,0.014253,-0.841844,0.424813,0.332915,1.774263,-0.517694,0.199342,3.221264,42.970505,25.219549,,,,,,
1467746741.48,-1.945785,-0.438838,-0.265865,-0.040852,0.149803,0.018074,-0.842342,0.424888,0.331557,1.783931,-0.544136,0.161835,2.997597,42.968430,25.250645,,,,,,
1467746741.49,-1.946149,-0.438863,-0.266546,-0.053882,-0.048754,0.021435,-0.842212,0.424911,0.331860,1.745288,-0.512603,0.150806,2.997597,42.968430,25.250645,,,,,,
1467746741.50,-1.947394,-0.438945,-0.267179,-0.047551,-0.076396,0.033323,-0.841765,0.424985,0.332895,1.597441,-0.487912,0.322622,2.997597,42.968430,25.250645,,,,,,
1467746741.51,-1.946938,-0.439195,-0.267680,-0.035650,0.090275,0.041870,-0.841818,0.425211,0.332472,1.492300,-0.509439,0.453050,2.942415,42.923851,25.332823,,,,,,
1467746741.52,-1.946184,-0.439548,-0.268081,-0.011162,0.094501,0.045061,-0.841929,0.425530,0.331782,1.381876,-0.479501,0.532597,2.942415,42.923851,25.332823,,,,,,
1467746741.53,-1.944209,-0.439969,-0.268255,-0.004585,0.243153,0.043071,-0.842416,0.425911,0.330053,1.386193,-0.486229,0.565103,2.942415,42.923851,25.332823,,,,,,
1467746741.55,-1.941100,-0.440554,-0.268665,-0.004924,0.038572,0.027358,-0.843205,0.426441,0.327343,1.529683,-0.493976,0.413273,2.938950,42.907688,25.360588,,,,,,
1467746741.54,-1.941869,-0.440283,-0.268529,-0.006840,0.224362,0.035771,-0.843061,0.426196,0.328033,1.453458,-0.496554,0.451523,2.938950,42.907688,25.360588,,,,,,
1467746741.56,-1.941915,-0.440719,-0.268891,-0.012524,-0.092003,0.019653,-0.842873,0.426590,0.328004,1.506737,-0.512970,0.404372,2.938950,42.907688,25.360588,,,,,,
1467746741.57,-1.942342,-0.440766,-0.268894,0.005715,-0.015503,-0.002097,-0.842714,0.426632,0.328358,1.453889,-0.495464,0.498043,2.880121,42.897263,25.384964,,,,,,
1467746741.59,-1.939795,-0.440763,-0.268816,-0.005860,0.119307,0.013013,-0.843549,0.426630,0.326210,1.489316,-0.534555,0.425347,2.880121,42.897263,25.384964,,,,,,
1467746741.58,-1.941208,-0.440718,-0.268747,0.008055,0.141660,-0.009467,-0.843105,0.426589,0.327409,1.429775,-0.486175,0.529464,2.880121,42.897263,25.384964,,,,,,
1467746741.60,-1.940932,-0.440910,-0.268889,0.002263,-0.192873,0.017107,-0.843119,0.426763,0.327146,1.589670,-0.501836,0.334994,2.861679,42.900467,25.381632,,,,,,
1467746741.61,-1.943582,-0.441070,-0.268825,0.016012,-0.273565,0.013369,-0.842185,0.426907,0.329354,1.580253,-0.472272,0.386130,2.861679,42.900467,25.381632,,,,,,
1467746741.62,-1.946163,-0.441309,-0.268586,0.031977,-0.277820,0.013412,-0.841237,0.427124,0.331490,1.526845,-0.492676,0.426490,2.861679,42.900467,25.381632,,,,,,
1467746741.63,-1.949388,-0.441523,-0.267990,0.068101,-0.368041,-0.004082,-0.840079,0.427317,0.334167,1.487418,-0.461573,0.483826,3.010477,42.907898,25.351837,,,,,,
1467746741.64,-1.952727,-0.441709,-0.267102,0.085151,-0.372271,-0.013618,-0.838885,0.427485,0.336940,1.443697,-0.464762,0.521657,3.010477,42.907898,25.351837,,,,,,
1467746741.65,-1.956139,-0.441792,-0.266002,0.097941,-0.395578,-0.034748,-0.837697,0.427561,0.339787,1.406163,-0.486292,0.533473,3.010477,42.907898,25.351837,,,,,,
1467746741.66,-1.958868,-0.441668,-0.264622,0.118361,-0.291450,-0.065186,-0.836816,0.427448,0.342092,1.386529,-0.467716,0.567713,3.187296,42.943596,25.269659,,,,,,
1467746741.67,-1.960034,-0.441461,-0.263041,0.123850,-0.174628,-0.075493,-0.836498,0.427261,0.343102,1.472942,-0.486816,0.484947,3.187296,42.943596,25.269659,,,,,,
1467746741.68,-1.962674,-0.441097,-0.261453,0.117210,-0.406045,-0.093208,-0.835733,0.426931,0.345368,1.633692,-0.515020,0.320190,3.187296,42.943596,25.269659,,,,,,
1467746741.69,-1.967732,-0.440512,-0.259833,0.113805,-0.611968,-0.115338,-0.834206,0.426403,0.349687,1.738198,-0.486263,0.205259,3.390934,43.064949,25.035543,,,,,,
1467746741.70,-1.973634,-0.439806,-0.258336,0.088190,-0.663978,-0.117166,-0.832404,0.425764,0.354723,1.776923,-0.519300,0.142286,3.390934,43.064949,25.035543,,,,,,
1467746741.71,-1.980075,-0.438898,-0.256979,0.077513,-0.721251,-0.138107,-0.830457,0.424942,0.360230,1.803235,-0.520005,0.092025,3.390934,43.064949,25.035543,,,,,,
1467746741.72,-1.986635,-0.437921,-0.255739,0.060499,-0.692595,-0.130852,-0.828455,0.424058,0.365838,1.761911,-0.507386,0.096656,3.599461,43.125366,24.902069,,,,,,
1467746741.73,-1.993517,-0.437179,-0.254727,0.045436,-0.764881,-0.097416,-0.826205,0.423386,0.371659,1.718417,-0.551575,0.121108,3.599461,43.125366,24.902069,,,,,,
1467746741.74,-2.000998,-0.436349,-0.253863,0.043330,-0.770148,-0.112287,-0.823720,0.422633,0.377976,1.589925,-0.532741,0.220550,3.599461,43.125366,24.902069,,,,,,
1467746741.75,-2.004369,-0.435523,-0.252748,0.057863,-0.225438,-0.119947,-0.822758,0.421884,0.380898,1.398350,-0.468378,0.446647,4.117855,43.201069,24.689623,,,,,,
1467746741.76,-2.003198,-0.434736,-0.251523,0.076403,0.130248,-0.118966,-0.823505,0.421171,0.380073,1.384906,-0.509977,0.455300,4.117855,43.201069,24.689623,,,,,,
1467746741.77,-2.001026,-0.433959,-0.250240,0.067926,0.167406,-0.116014,-0.824625,0.420466,0.378420,1.432078,-0.480586,0.400480,4.117855,43.201069,24.689623,,,,,,
1467746741.78,-1.997096,-0.433314,-0.249141,0.062871,0.421112,-0.093128,-0.826353,0.419881,0.375288,1.402677,-0.490987,0.396685,4.094770,43.241615,24.622381,,,,,,
1467746741.79,-1.991035,-0.432879,-0.248479,0.030023,0.612142,-0.053910,-0.828779,0.419486,0.370347,1.421766,-0.543403,0.353042,4.094770,43.241615,24.622381,,,,,,
1467746741.80,-1.985130,-0.432689,-0.248301,-0.003131,0.555778,-0.015269,-0.831024,0.419313,0.365479,1.474945,-0.530000,0.309783,4.094770,43.241615,24.622381,,,,,,
1467746741.81,-1.980233,-0.432671,-0.248447,-0.011784,0.486697,0.009638,-0.832811,0.419298,0.361408,1.472337,-0.502229,0.327282,3.550625,43.298256,24.607327,,,,,,
1467746741.83,-1.970901,-0.433193,-0.249078,-0.018336,0.423937,0.052603,-0.835946,0.419771,0.353536,1.393090,-0.480638,0.466701,3.550625,43.298256,24.607327,,,,,,
1467746741.82,-1.975318,-0.432831,-0.248677,-0.014993,0.505759,0.028675,-0.834516,0.419442,0.357284,1.439008,-0.459695,0.419235,3.550625,43.298256,24.607327,,,,,,
1467746741.84,-1.968285,-0.433745,-0.249365,0.003758,0.232766,0.066597,-0.836654,0.420272,0.351257,1.353393,-0.445831,0.535614,3.316587,43.291035,24.652653,,,,,,
1467746741.85,-1.966117,-0.434402,-0.249420,0.025042,0.213661,0.060352,-0.837158,0.420868,0.349337,1.303955,-0.426574,0.623289,3.316587,43.291035,24.652653,,,,,,
1467746741.86,-1.964293,-0.435069,-0.249027,0.076107,0.147859,0.040591,-0.837535,0.421473,0.347701,1.286021,-0.405589,0.643953,3.316587,43.291035,24.652653,,,,,,
1467746741.87,-1.962827,-0.435571,-0.247889,0.125112,0.093815,-0.006922,-0.837848,0.421928,0.346392,1.296024,-0.388175,0.688321,3.135719,43.298214,24.663708,,,,,,
1467746741.88,-1.959928,-0.435721,-0.245726,0.211699,0.252179,-0.080211,-0.838790,0.422064,0.343938,1.249816,-0.379035,0.795451,3.135719,43.298214,24.663708,,,,,,
1467746741.89,-1.952930,-0.435544,-0.242784,0.238967,0.708846,-0.121368,-0.841246,0.421904,0.338087,1.167173,-0.377287,0.879396,3.039270,43.374069,24.542198,,,,,,
1467746741.90,-1.940847,-0.435330,-0.240336,0.185229,1.211015,-0.091573,-0.845354,0.421709,0.327931,1.151857,-0.521242,0.763408,3.039270,43.374069,24.542198,,,,,,
1467746741.91,-1.927858,-0.435282,-0.238193,0.179800,1.158934,-0.071027,-0.849560,0.421666,0.316930,1.375088,-0.574117,0.531718,3.039270,43.374069,24.542198,,,,,,
1467746741.92,-1.916747,-0.435343,-0.236952,0.067788,1.070717,-0.018428,-0.853005,0.421721,0.307462,1.545510,-0.518721,0.373720,2.533522,43.487637,24.398218,,,,,,
1467746741.93,-1.905745,-0.435615,-0.236545,0.059162,1.038773,0.015826,-0.856228,0.421968,0.298021,1.706692,-0.640886,0.166410,2.533522,43.487637,24.398218,,,,,,
1467746741.94,-1.899260,-0.435730,-0.235811,0.056392,0.463389,-0.021017,-0.858096,0.422072,0.292448,2.056385,-0.439772,0.025256,2.533522,43.487637,24.398218,,,,,,
1467746741.95,-1.896745,-0.435498,-0.234947,0.080578,0.166169,-0.054256,-0.858922,0.421862,0.290320,2.099965,-0.463671,0.010401,2.533522,43.487637,24.398218,,,,,,
1467746741.96,-1.896409,-0.435156,-0.233809,0.083488,-0.087557,-0.069693,-0.859156,0.421552,0.290077,2.074153,-0.465802,-0.000999,1.522432,43.586945,24.304878,,,,,,
1467746741.97,-1.899599,-0.434440,-0.232473,0.098014,-0.470737,-0.117304,-0.858512,0.420902,0.292913,1.908530,-0.415501,0.157374,1.522432,43.586945,24.304878,,,,,,
1467746741.98,-1.904199,-0.433540,-0.230816,0.112907,-0.515282,-0.138299,-0.857513,0.420086,0.296984,1.713424,-0.491055,0.292936,1.522432,43.586945,24.304878,,,,,,
1467746741.99,-1.908084,-0.432563,-0.229172,0.113008,-0.439885,-0.141965,-0.856740,0.419199,0.300449,1.527501,-0.476725,0.454221,1.538404,43.678917,24.138180,,,,,,
1467746742.00,-1.911036,-0.431633,-0.227516,0.102482,-0.334776,-0.137312,-0.856216,0.418355,0.303106,1.372665,-0.505574,0.536859,1.538404,43.678917,24.138180,,,,,,
1467746742.01,-1.912135,-0.430586,-0.226174,0.078281,-0.110715,-0.141935,-0.856295,0.417403,0.304194,1.255327,-0.466109,0.679250,1.538404,43.678917,24.138180,,,,,,
1467746742.02,-1.909698,-0.429969,-0.224687,0.115957,0.320180,-0.079669,-0.857276,0.416842,0.302191,1.411552,-0.535846,0.525293,1.614462,43.736256,24.029148,,,,,,
1467746742.03,-1.904989,-0.429619,-0.223975,0.025398,0.330746,-0.044698,-0.858828,0.416524,0.298198,1.622805,-0.560384,0.179020,1.614462,43.736256,24.029148,,,,,,
1467746742.04,-1.906789,-0.429294,-0.223860,-0.000936,-0.297816,-0.045040,-0.858417,0.416229,0.299789,1.681781,-0.386139,0.333436,1.504534,43.784874,23.947601,,,,,,
1467746742.05,-1.910365,-0.428792,-0.223548,0.010765,-0.322217,-0.054456,-0.857537,0.415772,0.302926,1.409722,-0.445756,0.551948,1.504534,43.784874,23.947601,,,,,,
1467746742.06,-1.908820,-0.428510,-0.223356,0.001874,0.281863,-0.025255,-0.858114,0.415516,0.301640,1.566748,-0.515125,0.400677,1.504534,43.784874,23.947601,,,,,,
1467746742.07,-1.909117,-0.428228,-0.223534,-0.031760,-0.217171,-0.021095,-0.858135,0.415259,0.301934,1.453213,-0.399879,0.437263,1.418919,43.803196,23.919304,,,,,,
1467746742.08,-1.912967,-0.428085,-0.223597,0.000037,-0.313843,-0.008748,-0.857022,0.415130,0.305255,1.450696,-0.446349,0.561093,1.418919,43.803196,23.919304,,,,,,
1467746742.09,-1.913155,-0.428019,-0.223715,-0.022988,0.019548,-0.001281,-0.856991,0.415069,0.305426,1.481182,-0.479370,0.470270,1.418919,43.803196,23.919304,,,,,,
1467746742.10,-1.915213,-0.427946,-0.223822,-0.003126,-0.284120,-0.005744,-0.856389,0.415003,0.307198,1.449315,-0.395899,0.509086,1.501421,43.795349,23.928642,,,,,,
1467746742.11,-1.918492,-0.427872,-0.223954,-0.023381,-0.293684,0.000683,-0.855406,0.414936,0.310015,1.389936,-0.471729,0.535261,1.501421,43.795349,23.928642,,,,,,
1467746742.12,-1.920180,-0.427851,-0.224167,-0.014672,-0.131250,0.006059,-0.854889,0.414916,0.311462,1.392518,-0.441680,0.551728,1.501421,43.795349,23.928642,,,,,,
1467746742.13,-1.921842,-0.427927,-0.224395,-0.021128,-0.168439,0.016931,-0.854341,0.414985,0.312872,1.378725,-0.456840,0.520228,1.501421,43.795349,23.928642,,,,,,
1467746742.14,-1.923686,-0.428066,-0.224855,-0.034981,-0.155728,0.030675,-0.853708,0.415112,0.314426,1.372141,-0.452176,0.532101,1.666439,43.781830,23.942448,,,,,,
1467746742.15,-1.924790,-0.428302,-0.225334,-0.033821,-0.064440,0.039684,-0.853269,0.415327,0.315335,1.366804,-0.441434,0.527881,1.666439,43.781830,23.942448,,,,,,
1467746742.16,-1.924866,-0.428662,-0.225845,-0.027320,0.043828,0.050720,-0.853105,0.415654,0.315348,1.457429,-0.481450,0.506597,1.666439,43.781830,23.942448,,,,,,
1467746742.17,-1.925197,-0.428933,-0.226470,-0.048698,-0.035773,0.042682,-0.852894,0.415901,0.315591,1.383458,-0.379875,0.502265,1.818365,43.751945,23.985983,,,,,,
1467746742.18,-1.924160,-0.429406,-0.226894,-0.014365,0.196704,0.056161,-0.853037,0.416331,0.314639,1.554758,-0.552866,0.383512,1.818365,43.751945,23.985983,,,,,,
1467746742.19,-1.924596,-0.429694,-0.227807,-0.064736,-0.082496,0.047217,-0.852787,0.416593,0.314968,1.416355,-0.356885,0.602100,1.835941,43.734772,24.015942,,,,,,
1467746742.20,-1.923318,-0.429968,-0.227743,0.014475,0.219075,0.024116,-0.853082,0.416841,0.313839,1.435983,-0.496416,0.513889,1.835941,43.734772,24.015942,,,,,,
1467746742.21,-1.919885,-0.430069,-0.228230,-0.035378,0.366697,0.021011,-0.854114,0.416934,0.310894,1.483127,-0.449878,0.469867,1.835941,43.734772,24.015942,,,,,,
1467746742.22,-1.917609,-0.430240,-0.228128,0.018729,0.189387,0.008339,-0.854753,0.417089,0.308925,1.481095,-0.463766,0.522328,1.841923,43.720577,24.041317,,,,,,
1467746742.23,-1.915109,-0.430169,-0.228154,-0.001332,0.293506,-0.011494,-0.855550,0.417024,0.306797,1.443639,-0.431047,0.560024,1.841923,43.720577,24.041317,,,,,,
1467746742.24,-1.910763,-0.430114,-0.227611,0.047853,0.442163,-0.023021,-0.856897,0.416974,0.303084,1.445246,-0.467801,0.548296,1.841923,43.720577,24.041317,,,,,,
1467746742.25,-1.906527,-0.429949,-0.227244,0.027555,0.379542,-0.027971,-0.858238,0.416825,0.299474,1.435783,-0.433411,0.537318,1.545530,43.724319,24.055384,,,,,,
1467746742.26,-1.903062,-0.429812,-0.226611,0.051974,0.316895,-0.031812,-0.859325,0.416700,0.296517,1.395992,-0.446668,0.583137,1.545530,43.724319,24.055384,,,,,,
1467746742.27,-1.899063,-0.429674,-0.225997,0.053141,0.399712,-0.031266,-0.860558,0.416575,0.293097,1.377846,-0.439478,0.611185,1.545530,43.724319,24.055384,,,,,,
1467746742.28,-1.894364,-0.429589,-0.225156,0.069157,0.433684,-0.032527,-0.861959,0.416497,0.289061,1.405218,-0.449944,0.595109,1.344812,43.743401,24.032749,,,,,,
1467746742.29,-1.889714,-0.429509,-0.224214,0.084057,0.424130,-0.035646,-0.863326,0.416425,0.285060,1.470061,-0.442792,0.551091,1.344812,43.743401,24.032749,,,,,,
1467746742.30,-1.885322,-0.429446,-0.223268,0.074435,0.395460,-0.033347,-0.864595,0.416367,0.281274,1.513078,-0.466324,0.485496,1.344812,43.743401,24.032749,,,,,,
1467746742.31,-1.881225,-0.429367,-0.222405,0.073325,0.359359,-0.033121,-0.865771,0.416295,0.277739,1.580157,-0.458867,0.442567,0.895300,43.811192,23.929987,,,,,,
1467746742.32,-1.878121,-0.429245,-0.221529,0.069998,0.246821,-0.036677,-0.866677,0.416185,0.275066,1.590295,-0.451524,0.434666,0.895300,43.811192,23.929987,,,,,,
1467746742.33,-1.875389,-0.429131,-0.220706,0.067855,0.242564,-0.032394,-0.867471,0.416081,0.272712,1.653268,-0.468739,0.380532,0.895300,43.811192,23.929987,,,,,,
1467746742.34,-1.873556,-0.429023,-0.220011,0.053831,0.102404,-0.028336,-0.868012,0.415983,0.271134,1.733475,-0.464505,0.303985,0.710926,43.846260,23.871887,,,,,,
1467746742.35,-1.874194,-0.428873,-0.219323,0.055649,-0.157718,-0.034154,-0.867898,0.415846,0.271707,1.788766,-0.452452,0.258399,0.710926,43.846260,23.871887,,,,,,
1467746742.36,-1.877068,-0.428662,-0.218765,0.039437,-0.352017,-0.034016,-0.867197,0.415654,0.274227,1.797282,-0.471563,0.245060,0.710926,43.846260,23.871887,,,,,,
1467746742.37,-1.882047,-0.428308,-0.218273,0.029580,-0.594062,-0.047410,-0.865962,0.415332,0.278586,1.747080,-0.440295,0.276972,0.655548,43.900043,23.774414,,,,,,
1467746742.38,-1.888405,-0.427896,-0.217729,0.034848,-0.649261,-0.053445,-0.864335,0.414957,0.284139,1.704301,-0.463572,0.336359,0.655548,43.900043,23.774414,,,,,,
1467746742.39,-1.894890,-0.427478,-0.217235,0.029467,-0.694916,-0.053164,-0.862639,0.414577,0.289794,1.685362,-0.470180,0.326630,0.655548,43.900043,23.774414,,,,,,
1467746742.40,-1.903588,-0.426951,-0.216890,0.003600,-0.963507,-0.063215,-0.860292,0.414097,0.297357,1.590593,-0.456333,0.370581,0.890352,43.916534,23.736294,,,,,,
1467746742.41,-1.913454,-0.426420,-0.216532,0.023843,-0.944419,-0.057992,-0.857523,0.413614,0.305904,1.387049,-0.422632,0.598454,0.890352,43.916534,23.736294,,,,,,
1467746742.42,-1.919029,-0.426132,-0.215992,0.033964,-0.482596,-0.040654,-0.855916,0.413352,0.310721,1.481572,-0.484595,0.517511,0.890352,43.916534,23.736294,,,,,,
1467746742.43,-1.925392,-0.425857,-0.215686,0.012303,-0.768221,-0.034626,-0.854028,0.413102,0.316200,1.586084,-0.449860,0.346795,1.537233,43.940945,23.657909,,,,,,
1467746742.44,-1.935800,-0.425475,-0.215494,0.001266,-1.096284,-0.043224,-0.850839,0.412754,0.325128,1.566613,-0.423755,0.379783,1.537233,43.940945,23.657909,,,,,,
1467746742.45,-1.945262,-0.425041,-0.215223,0.006865,-0.888153,-0.051975,-0.847891,0.412358,0.333229,1.535834,-0.448094,0.428780,1.537233,43.940945,23.657909,,,,,,
1467746742.46,-1.953684,-0.424556,-0.214993,0.001560,-0.875405,-0.053125,-0.845240,0.411917,0.340432,1.547556,-0.444555,0.385443,1.904524,43.946903,23.620094,,,,,,
1467746742.47,-1.963971,-0.424130,-0.214842,-0.008303,-1.085661,-0.043300,-0.841855,0.411528,0.349177,1.569440,-0.445860,0.343969,1.904524,43.946903,23.620094,,,,,,
1467746742.48,-1.975829,-0.423711,-0.214831,-0.016988,-1.212023,-0.038259,-0.837814,0.411146,0.359203,1.590942,-0.446501,0.324803,1.904524,43.946903,23.620094,,,,,,
1467746742.49,-1.988776,-0.423318,-0.214899,-0.022451,-1.318209,-0.034405,-0.833241,0.410788,0.370085,1.590947,-0.436224,0.324144,2.772940,43.948830,23.530357,,,,,,
1467746742.50,-2.003070,-0.422938,-0.214925,-0.017327,-1.472182,-0.030241,-0.828008,0.410441,0.382023,1.591420,-0.438990,0.307461,2.772940,43.948830,23.530357,,,,,,
1467746742.51,-2.018905,-0.422619,-0.215043,-0.021771,-1.609170,-0.022999,-0.821973,0.410150,0.395143,1.600354,-0.436090,0.284606,2.772940,43.948830,23.530357,,,,,,
1467746742.52,-2.035869,-0.422306,-0.215207,-0.030415,-1.710037,-0.022375,-0.815266,0.409865,0.409087,1.619602,-0.430785,0.246614,3.382647,43.941685,23.463854,,,,,,
1467746742.53,-2.054092,-0.421935,-0.215440,-0.038148,-1.850978,-0.022531,-0.807811,0.409526,0.423945,1.613704,-0.439876,0.204931,3.382647,43.941685,23.463854,,,,,,
1467746742.54,-2.073029,-0.421526,-0.215695,-0.039244,-1.880699,-0.025539,-0.799785,0.409154,0.439246,1.591991,-0.428349,0.219278,3.382647,43.941685,23.463854,,,,,,
1467746742.55,-2.091761,-0.421165,-0.215933,-0.036041,-1.860549,-0.017146,-0.791545,0.408824,0.454224,1.578182,-0.439891,0.208771,4.967720,43.916122,23.228485,,,,,,
1467746742.56,-2.111142,-0.420887,-0.216274,-0.041512,-1.959327,-0.004823,-0.782691,0.408570,0.469537,1.601753,-0.444337,0.158866,4.967720,43.916122,23.228485,,,,,,
1467746742.57,-2.131909,-0.420806,-0.216666,-0.032107,-2.074053,0.012937,-0.772801,0.408496,0.485706,1.607182,-0.435534,0.134274,4.967720,43.916122,23.228485,,,,,,
1467746742.58,-2.153972,-0.420807,-0.217228,-0.054693,-2.210029,0.041443,-0.761897,0.408498,0.502636,1.555339,-0.488316,0.064503,5.831631,43.899715,23.058044,,,,,,
1467746742.59,-2.175905,-0.420707,-0.218030,-0.055649,-2.144161,0.028255,-0.750724,0.408406,0.519248,1.645743,-0.404774,0.112252,5.831631,43.899715,23.058044,,,,,,
1467746742.60,-2.200352,-0.420710,-0.219331,-0.131769,-2.473434,0.085596,-0.737806,0.408409,0.537443,1.499402,-0.569313,-0.142057,5.831631,43.899715,23.058044,,,,,,
1467746742.61,-2.222861,-0.420389,-0.220477,-0.064097,-2.095302,0.023683,-0.725627,0.408115,0.553992,1.619350,-0.335026,0.093438,7.900412,43.834808,22.560135,,,,,,
1467746742.62,-2.242497,-0.420176,-0.221301,-0.095778,-1.875514,0.029724,-0.714677,0.407921,0.568188,1.452257,-0.451179,0.035938,7.900412,43.834808,22.560135,,,,,,
1467746742.63,-2.259071,-0.419924,-0.221958,-0.046367,-1.546350,0.017064,-0.705242,0.407691,0.580019,1.517956,-0.424491,0.012434,7.900412,43.834808,22.560135,,,,,,
1467746742.64,-2.274152,-0.419679,-0.222653,-0.071862,-1.487959,0.024124,-0.696491,0.407468,0.590653,1.531192,-0.455396,-0.089478,7.900412,43.834808,22.560135,,,,,,
1467746742.65,-2.289062,-0.419466,-0.223282,-0.053687,-1.433807,0.020609,-0.687672,0.407273,0.601029,1.533085,-0.436692,-0.070115,9.564024,43.758053,22.059666,,,,,,
1467746742.66,-2.302096,-0.419294,-0.223828,-0.050245,-1.231013,0.022534,-0.679832,0.407116,0.609987,1.515373,-0.460445,-0.104921,9.564024,43.758053,22.059666,,,,,,
1467746742.67,-2.313436,-0.419115,-0.224296,-0.037269,-1.087650,0.012067,-0.672925,0.406952,0.617707,1.550153,-0.421158,-0.113434,10.185034,43.730637,21.834896,,,,,,
1467746742.68,-2.324264,-0.418974,-0.224654,-0.038296,-1.055798,0.012931,-0.666239,0.406824,0.624996,1.523356,-0.451410,-0.168331,10.185034,43.730637,21.834896,,,,,,
1467746742.69,-2.333680,-0.418782,-0.225078,-0.039129,-0.871044,0.011772,-0.660382,0.406648,0.631295,1.519024,-0.454652,-0.175225,10.185034,43.730637,21.834896,,,,,,
1467746742.70,-2.341577,-0.418555,-0.225503,-0.042196,-0.768051,0.012187,-0.655442,0.406440,0.636555,1.560380,-0.449058,-0.198536,10.671623,43.710999,21.640976,,,,,,
1467746742.71,-2.349961,-0.418319,-0.226053,-0.056102,-0.814772,0.015659,-0.650150,0.406225,0.642095,1.536076,-0.456167,-0.240133,10.671623,43.710999,21.640976,,,,,,
1467746742.72,-2.357449,-0.418099,-0.226555,-0.045321,-0.699055,0.020267,-0.645388,0.406024,0.647008,1.551836,-0.453005,-0.224996,10.671623,43.710999,21.640976,,,,,,
1467746742.73,-2.364413,-0.417839,-0.227089,-0.049527,-0.667181,0.013676,-0.640940,0.405787,0.651562,1.539255,-0.434473,-0.243481,11.393991,43.664661,21.364479,,,,,,
1467746742.74,-2.370620,-0.417667,-0.227420,-0.030250,-0.585421,0.008925,-0.636932,0.405629,0.655578,1.550353,-0.434026,-0.219757,11.393991,43.664661,21.364479,,,,,,
1467746742.75,-2.376101,-0.417461,-0.227687,-0.029100,-0.529125,0.001122,-0.633387,0.405441,0.659119,1.561854,-0.433258,-0.256882,11.393991,43.664661,21.364479,,,,,,
1467746742.76,-2.381562,-0.417255,-0.227921,-0.031241,-0.542919,-0.001987,-0.629836,0.405253,0.662629,1.584563,-0.440958,-0.278520,11.678556,43.643288,21.254208,,,,,,
1467746742.78,-2.393358,-0.416860,-0.228290,-0.030188,-0.554596,-0.002978,-0.622085,0.404891,0.670130,1.575057,-0.450622,-0.299707,11.678556,43.643288,21.254208,,,,,,
1467746742.77,-2.387571,-0.417105,-0.228051,-0.020679,-0.606641,0.001616,-0.625884,0.405116,0.666446,1.563293,-0.438899,-0.279651,11.678556,43.643288,21.254208,,,,,,
1467746742.79,-2.399546,-0.416775,-0.228377,-0.017540,-0.644876,0.005052,-0.617949,0.404813,0.673992,1.569106,-0.451505,-0.307308,11.678556,43.643288,21.254208,,,,,,
1467746742.80,-2.406455,-0.416631,-0.228567,-0.015461,-0.687346,0.004256,-0.613317,0.404682,0.678288,1.568181,-0.435581,-0.309575,12.152843,43.619072,21.036911,,,,,,
1467746742.81,-2.413285,-0.416553,-0.228744,-0.021829,-0.666116,0.007310,-0.608691,0.404611,0.682485,1.536746,-0.454324,-0.330190,12.152843,43.619072,21.036911,,,,,,
1467746742.82,-2.419411,-0.416526,-0.228771,0.003827,-0.596029,-0.000555,-0.604506,0.404586,0.686209,1.543608,-0.421005,-0.285315,12.152843,43.619072,21.036911,,,,,,
1467746742.83,-2.425017,-0.416509,-0.228746,0.000702,-0.551414,-0.007225,-0.600654,0.404570,0.689593,1.532478,-0.433272,-0.310763,12.697477,43.606468,20.739239,,,,,,
1467746742.84,-2.429744,-0.416565,-0.228635,0.008288,-0.439938,-0.004723,-0.597373,0.404622,0.692407,1.488806,-0.451909,-0.325280,12.697477,43.606468,20.739239,,,,,,
1467746742.85,-2.432275,-0.416571,-0.228491,0.013932,-0.194646,-0.012642,-0.595616,0.404627,0.693915,1.471776,-0.438593,-0.298041,12.697477,43.606468,20.739239,,,,,,
1467746742.86,-2.432566,-0.416653,-0.228295,0.014182,0.019811,-0.004407,-0.595393,0.404702,0.694063,1.424312,-0.456536,-0.311510,12.909226,43.609634,20.601410,,,,,,
1467746742.87,-2.428892,-0.416684,-0.228170,0.017974,0.488079,-0.012662,-0.597931,0.404731,0.691861,1.396576,-0.456000,-0.260740,12.909226,43.609634,20.601410,,,,,,
1467746742.88,-2.421266,-0.416773,-0.227871,0.019453,0.818299,-0.014732,-0.603166,0.404812,0.687254,1.425157,-0.444866,-0.259077,12.909226,43.609634,20.601410,,,,,,
1467746742.89,-2.411342,-0.416791,-0.227692,0.014401,1.041269,-0.011877,-0.609951,0.404829,0.681229,1.440960,-0.466871,-0.287903,12.723585,43.627350,20.679249,,,,,,
1467746742.90,-2.399277,-0.416881,-0.227406,0.023170,1.243004,-0.012069,-0.618101,0.404910,0.673794,1.460112,-0.438404,-0.242840,12.723585,43.627350,20.679249,,,,,,
1467746742.91,-2.384323,-0.416952,-0.227250,0.015067,1.582770,-0.008886,-0.628088,0.404975,0.664455,1.447989,-0.472053,-0.211147,12.259290,43.637966,20.935711,,,,,,
1467746742.92,-2.368065,-0.417091,-0.226942,0.026755,1.564711,-0.007697,-0.638768,0.405102,0.654116,1.589742,-0.438183,-0.225710,12.259290,43.637966,20.935711,,,,,,
1467746742.93,-2.354505,-0.417143,-0.226820,0.010448,1.303504,-0.001817,-0.647564,0.405150,0.645379,1.580440,-0.447478,-0.275155,12.259290,43.637966,20.935711,,,,,,
1467746742.94,-2.340966,-0.417292,-0.226697,0.022242,1.374630,0.000942,-0.656199,0.405286,0.636511,1.571375,-0.441785,-0.170614,12.259290,43.637966,20.935711,,,,,,
1467746742.95,-2.326885,-0.417582,-0.226429,0.041422,1.392659,0.005106,-0.665010,0.405551,0.627128,1.561693,-0.418719,-0.141944,11.017734,43.655933,21.578590,,,,,,
1467746742.96,-2.312692,-0.417914,-0.226093,0.046775,1.410716,0.001804,-0.673745,0.405855,0.617535,1.524086,-0.429903,-0.102658,11.017734,43.655933,21.578590,,,,,,
1467746742.97,-2.297336,-0.418191,-0.225706,0.045944,1.585935,-0.006746,-0.683063,0.406108,0.607042,1.418324,-0.435329,0.010740,11.017734,43.655933,21.578590,,,,,,
1467746742.98,-2.277572,-0.418474,-0.225093,0.063634,2.096670,-0.016319,-0.694840,0.406367,0.593350,1.346604,-0.429728,0.113865,10.412394,43.673138,21.842747,,,,,,
1467746742.99,-2.252128,-0.418714,-0.224527,0.053655,2.638180,-0.014402,-0.709635,0.406586,0.575419,1.352762,-0.472534,0.122412,10.412394,43.673138,21.842747,,,,,,
1467746743.00,-2.224820,-0.419034,-0.223868,0.070724,2.673197,-0.009283,-0.724979,0.406878,0.555749,1.507648,-0.436770,0.082908,10.412394,43.673138,21.842747,,,,,,
1467746743.01,-2.200449,-0.419347,-0.223511,0.036195,2.338693,0.011941,-0.738203,0.407164,0.537842,1.551725,-0.462630,0.028732,8.460531,43.727982,22.564342,,,,,,
1467746743.02,-2.177569,-0.419699,-0.223242,0.046767,2.280286,0.013382,-0.750197,0.407485,0.520731,1.490416,-0.434463,0.152716,8.460531,43.727982,22.564342,,,,,,
1467746743.03,-2.153473,-0.420143,-0.222803,0.059733,2.438476,0.016661,-0.762374,0.407891,0.502405,1.419570,-0.414391,0.295675,8.460531,43.727982,22.564342,,,,,,
1467746743.04,-2.128766,-0.420546,-0.222364,0.053311,2.406634,0.013661,-0.774413,0.408259,0.483331,1.504882,-0.437876,0.258613,7.400806,43.745796,22.899778,,,,,,
1467746743.05,-2.107467,-0.420954,-0.221923,0.054950,2.011649,0.014010,-0.784388,0.408632,0.466643,1.549311,-0.427293,0.213060,7.400806,43.745796,22.899778,,,,,,
1467746743.06,-2.088855,-0.421306,-0.221507,0.051517,1.810987,0.008879,-0.792812,0.408953,0.451892,1.512783,-0.431444,0.268033,6.296045,43.770149,23.181896,,,,,,
1467746743.07,-2.070897,-0.421657,-0.220928,0.066372,1.760031,0.002827,-0.800673,0.409273,0.437514,1.461211,-0.416551,0.370179,6.296045,43.770149,23.181896,,,,,,
1467746743.08,-2.054162,-0.421991,-0.220301,0.066154,1.585895,0.003918,-0.807761,0.409578,0.423991,1.476828,-0.427385,0.377034,6.296045,43.770149,23.181896,,,,,,
1467746743.09,-2.040433,-0.422310,-0.219715,0.061514,1.276922,0.002658,-0.813389,0.409869,0.412803,1.480763,-0.433337,0.352944,6.296045,43.770149,23.181896,,,,,,
1467746743.10,-2.028599,-0.422575,-0.219088,0.062417,1.137843,-0.002855,-0.818120,0.410110,0.403100,1.447743,-0.427841,0.396293,4.588251,43.823330,23.480419,,,,,,
1467746743.11,-2.016481,-0.422826,-0.218480,0.058248,1.213227,-0.001203,-0.822851,0.410340,0.393112,1.379828,-0.442093,0.454071,4.588251,43.823330,23.480419,,,,,,
1467746743.12,-2.003644,-0.423086,-0.217985,0.052981,1.268426,0.004832,-0.827733,0.410577,0.382472,1.386037,-0.450707,0.470418,3.999800,43.852661,23.533220,,,,,,
1467746743.13,-1.991348,-0.423357,-0.217527,0.047536,1.178163,0.009650,-0.832272,0.410823,0.372220,1.454449,-0.441539,0.444674,3.999800,43.852661,23.533220,,,,,,
1467746743.14,-1.980593,-0.423684,-0.217097,0.048389,1.019937,0.017030,-0.836104,0.411121,0.363194,1.511626,-0.432850,0.419154,3.999800,43.852661,23.533220,,,,,,
1467746743.15,-1.970712,-0.424021,-0.216819,0.035544,0.970030,0.020524,-0.839523,0.411429,0.354862,1.540100,-0.457663,0.397427,2.898113,43.901630,23.603268,,,,,,
1467746743.16,-1.961108,-0.424360,-0.216425,0.048282,0.930751,0.015461,-0.842764,0.411738,0.346729,1.605551,-0.429987,0.397838,2.898113,43.901630,23.603268,,,,,,
1467746743.17,-1.952760,-0.424688,-0.216089,0.038494,0.772539,0.019636,-0.845504,0.412036,0.339631,1.680785,-0.446948,0.330947,2.898113,43.901630,23.603268,,,,,,
1467746743.18,-1.946505,-0.424980,-0.215771,0.038239,0.560193,0.015646,-0.847500,0.412302,0.334292,1.742290,-0.445856,0.284604,2.461475,43.920147,23.618393,,,,,,
1467746743.19,-1.942137,-0.425222,-0.215507,0.028442,0.383947,0.013548,-0.848859,0.412523,0.330551,1.769482,-0.447542,0.266587,2.461475,43.920147,23.618393,,,,,,
1467746743.20,-1.939348,-0.425434,-0.215277,0.028256,0.231057,0.011313,-0.849696,0.412716,0.328151,1.777354,-0.451992,0.257100,2.461475,43.920147,23.618393,,,,,,
1467746743.21,-1.938260,-0.425619,-0.215037,0.024848,0.053749,0.008164,-0.849981,0.412885,0.327199,1.781560,-0.448926,0.252284,1.985617,43.951130,23.605549,,,,,,
1467746743.22,-1.939095,-0.425746,-0.214888,0.017167,-0.133116,0.006135,-0.849658,0.413000,0.327889,1.756061,-0.459555,0.241004,1.985617,43.951130,23.605549,,,,,,
1467746743.23,-1.941011,-0.425859,-0.214735,0.017076,-0.209560,0.004485,-0.848985,0.413103,0.329499,1.700533,-0.447542,0.289641,1.985617,43.951130,23.605549,,,,,,
1467746743.24,-1.943065,-0.425929,-0.214608,0.012825,-0.208487,0.001281,-0.848280,0.413167,0.331232,1.640516,-0.454931,0.326346,1.985617,43.951130,23.605549,,,,,,
1467746743.25,-1.945048,-0.426005,-0.214464,0.014953,-0.207429,0.002341,-0.847592,0.413237,0.332902,1.602978,-0.445127,0.357421,2.090395,43.968266,23.564548,,,,,,
1467746743.26,-1.947331,-0.426094,-0.214402,0.006392,-0.235043,0.006763,-0.846795,0.413318,0.334823,1.575006,-0.455523,0.359254,2.090395,43.968266,23.564548,,,,,,
1467746743.27,-1.949463,-0.426186,-0.214347,0.008561,-0.202131,0.007624,-0.846045,0.413401,0.336613,1.544607,-0.448633,0.378337,2.196636,43.973618,23.544895,,,,,,
1467746743.28,-1.950814,-0.426279,-0.214304,0.006541,-0.112942,0.008127,-0.845553,0.413486,0.337742,1.518817,-0.450427,0.402096,2.196636,43.973618,23.544895,,,,,,
1467746743.29,-1.951224,-0.426372,-0.214260,0.006665,-0.016315,0.006456,-0.845379,0.413570,0.338074,1.501537,-0.447979,0.410064,2.196636,43.973618,23.544895,,,,,,
1467746743.30,-1.950530,-0.426479,-0.214189,0.008928,0.094106,0.007895,-0.845572,0.413668,0.337471,1.512290,-0.447100,0.405434,2.285652,43.976856,23.530376,,,,,,
1467746743.31,-1.949040,-0.426581,-0.214147,0.006882,0.159938,0.007480,-0.846035,0.413761,0.336195,1.542858,-0.452991,0.376085,2.285652,43.976856,23.530376,,,,,,
1467746743.32,-1.947345,-0.426670,-0.214123,0.003695,0.166311,0.007437,-0.846569,0.413842,0.334747,1.590420,-0.448830,0.337341,2.285652,43.976856,23.530376,,,,,,
1467746743.33,-1.945806,-0.426752,-0.214152,-0.000586,0.151442,0.009655,-0.847052,0.413916,0.333431,1.617850,-0.455038,0.308155,2.219120,43.983181,23.524918,,,,,,
1467746743.34,-1.944283,-0.426813,-0.214173,0.001553,0.154635,0.006443,-0.847535,0.413972,0.332132,1.624482,-0.450212,0.308050,2.219120,43.983181,23.524918,,,,,,
1467746743.35,-1.942657,-0.426872,-0.214186,0.000506,0.166318,0.005305,-0.848051,0.414025,0.330745,1.614805,-0.449960,0.320134,2.219120,43.983181,23.524918,,,,,,
1467746743.36,-1.940985,-0.426926,-0.214178,0.003699,0.164196,0.004257,-0.848582,0.414074,0.329318,1.597087,-0.448437,0.340894,2.153196,43.983078,23.531231,,,,,,
1467746743.37,-1.939380,-0.426971,-0.214229,-0.004826,0.159950,0.005339,-0.849093,0.414115,0.327949,1.571550,-0.449684,0.363290,2.153196,43.983078,23.531231,,,,,,
1467746743.38,-1.937957,-0.427013,-0.214323,-0.005904,0.152512,0.007514,-0.849542,0.414154,0.326734,1.524743,-0.450043,0.398104,2.153196,43.983078,23.531231,,,,,,
1467746743.39,-1.935267,-0.427097,-0.214307,0.006006,0.310715,0.006533,-0.850385,0.414230,0.324435,1.468641,-0.438309,0.473157,2.013170,43.981304,23.546942,,,,,,
1467746743.40,-1.932322,-0.427167,-0.214341,-0.001505,0.266120,0.007870,-0.851310,0.414294,0.321919,1.503592,-0.450412,0.449367,2.013170,43.981304,23.546942,,,,,,
1467746743.41,-1.930246,-0.427223,-0.214370,-0.000509,0.207726,0.006108,-0.851955,0.414345,0.320143,1.483089,-0.437096,0.448320,2.013170,43.981304,23.546942,,,,,,
1467746743.42,-1.927568,-0.427288,-0.214408,-0.001467,0.294792,0.006626,-0.852784,0.414404,0.317851,1.454895,-0.446081,0.485219,1.886896,43.981941,23.556206,,,,,,
1467746743.43,-1.924216,-0.427369,-0.214370,0.008169,0.335138,0.005318,-0.853813,0.414478,0.314979,1.451713,-0.440906,0.511177,1.886896,43.981941,23.556206,,,,,,
1467746743.44,-1.921147,-0.427442,-0.214361,0.000662,0.295850,0.007686,-0.854747,0.414544,0.312347,1.467311,-0.442819,0.489213,1.886896,43.981941,23.556206,,,,,,
1467746743.45,-1.918161,-0.427517,-0.214296,0.011311,0.293726,0.005581,-0.855647,0.414613,0.309783,1.482203,-0.435883,0.481889,1.634956,43.983337,23.572432,,,,,,
1467746743.46,-1.915516,-0.427586,-0.214272,0.002746,0.254447,0.004754,-0.856436,0.414675,0.307509,1.502295,-0.446978,0.461656,1.634956,43.983337,23.572432,,,,,,
1467746743.47,-1.913294,-0.427652,-0.214180,0.010137,0.203480,0.004017,-0.857091,0.414736,0.305595,1.521108,-0.439089,0.457252,1.634956,43.983337,23.572432,,,,,,
1467746743.48,-1.911544,-0.427720,-0.214126,0.007959,0.164194,0.004261,-0.857598,0.414797,0.304086,1.517053,-0.446322,0.455359,1.507828,43.986111,23.575733,,,,,,
1467746743.49,-1.910243,-0.427787,-0.214066,0.005767,0.114290,0.004572,-0.857967,0.414858,0.302961,1.522472,-0.447054,0.455080,1.507828,43.986111,23.575733,,,,,,
1467746743.50,-1.909178,-0.427847,-0.213997,0.010015,0.103673,0.003578,-0.858266,0.414913,0.302038,1.508840,-0.442089,0.466028,1.507828,43.986111,23.575733,,,,,,
1467746743.51,-1.908217,-0.427911,-0.213936,0.004670,0.088808,0.004730,-0.858531,0.414971,0.301204,1.510630,-0.448754,0.467304,1.368231,43.993500,23.570457,,,,,,
1467746743.52,-1.907464,-0.427980,-0.213878,0.008908,0.071817,0.004841,-0.858730,0.415034,0.300548,1.499965,-0.444758,0.467533,1.368231,43.993500,23.570457,,,,,,
1467746743.53,-1.906659,-0.428053,-0.213827,0.005631,0.083743,0.005858,-0.858943,0.415100,0.299848,1.494182,-0.444702,0.475772,1.368231,43.993500,23.570457,,,,,,
1467746743.54,-1.905685,-0.428131,-0.213791,0.005647,0.097543,0.006836,-0.859204,0.415171,0.299000,1.486050,-0.447673,0.477795,1.332951,43.996830,23.566257,,,,,,
1467746743.55,-1.904661,-0.428220,-0.213791,0.001393,0.104972,0.008914,-0.859475,0.415253,0.298108,1.490624,-0.442551,0.483142,1.332951,43.996830,23.566257,,,,,,
1467746743.56,-1.903540,-0.428314,-0.213773,0.005665,0.113467,0.007801,-0.859772,0.415338,0.297131,1.490265,-0.448862,0.481692,1.332951,43.996830,23.566257,,,,,,
1467746743.57,-1.902378,-0.428420,-0.213772,0.001405,0.117708,0.010963,-0.860075,0.415434,0.296118,1.491499,-0.447981,0.482019,1.254025,44.001171,23.562489,,,,,,
1467746743.58,-2.101583,-0.460824,-0.300253,0.002279,0.122224,0.010060,-0.772448,0.444687,0.453407,1.409807,-0.477630,0.321556,1.254025,44.001171,23.562489,,,,,,
1467746743.59,-2.280848,-0.471682,-0.381572,0.001030,0.116220,0.009187,-0.675523,0.454385,0.580692,1.312302,-0.484491,0.196789,1.254025,44.001171,23.562489,,,,,,
1467746743.60,-2.435889,-0.467867,-0.452500,0.004090,0.132607,0.008152,-0.578869,0.450984,0.679356,1.214962,-0.479350,0.094784,7.886063,42.310081,25.308769,,,,,,
1467746743.61,-2.568266,-0.455552,-0.512213,0.005032,0.144829,0.008186,-0.487112,0.439958,0.754426,1.142202,-0.476076,0.006926,7.886063,42.310081,25.308769,,,,,,
1467746743.62,-2.681189,-0.439228,-0.561673,0.002748,0.111473,0.005295,-0.402136,0.425241,0.810837,1.061179,-0.454904,-0.048889,7.886063,42.310081,25.308769,,,,,,
1467746743.63,-2.777660,-0.419633,-0.602312,0.002617,0.094089,0.007615,-0.325069,0.407426,0.853425,0.976528,-0.440781,-0.094285,25.937195,35.047768,24.326584,,,,,,
1467746743.64,-2.860721,-0.400287,-0.635928,0.004696,0.120301,0.003266,-0.255281,0.389683,0.884861,0.921983,-0.419560,-0.123691,25.937195,35.047768,24.326584,,,,,,
1467746743.65,-2.933997,-0.381728,-0.664289,0.005652,0.098756,0.003467,-0.191273,0.372524,0.908097,0.866535,-0.404721,-0.173127,25.937195,35.047768,24.326584,,,,,,
