timestamp,attitude_roll,attitude_pitch,attitude_yaw,rotation_rate_x,rotation_rate_y,rotation_rate_z,gravity_x,gravity_y,gravity_z,user_acc_x,user_acc_y,user_acc_z,magnetic_field_x,magnetic_field_y,magnetic_field_z,latitude(degree),longitude(degree),altitude(meter),speed(m/s),course(degree),timestamp
1465828366.12,0.000235,-0.006267,-1.403601,0.001518,-0.008544,0.000324,0.000235,0.006267,-0.999980,0.000956,0.000096,-0.002995,45.603313,63.106541,-21.677450,,,,,,
1465828366.13,0.000194,-0.006233,-1.403592,0.001512,-0.011732,0.001409,0.000194,0.006233,-0.999981,0.003743,-0.001350,-0.001591,45.603313,63.106541,-21.677450,,,,,,
1465828366.14,0.000060,-0.006234,-1.403583,0.001506,-0.018099,0.000384,0.000060,0.006234,-0.999981,0.001512,0.000617,-0.002644,45.603313,63.106541,-21.677450,,,,,,
1465828366.15,-0.000128,-0.006200,-1.403578,0.000426,-0.030840,0.000463,-0.000128,0.006200,-0.999981,0.004828,-0.001317,-0.004643,45.600239,63.103439,-21.692926,,,,,,
1465828366.16,-0.000452,-0.006228,-1.403567,0.000405,-0.045708,0.001621,-0.000452,0.006227,-0.999981,0.005610,0.001799,-0.004078,45.600239,63.103439,-21.692926,,,,,,
1465828366.17,-0.000927,-0.006243,-1.403543,-0.000689,-0.069066,0.001766,-0.000927,0.006243,-0.999980,0.008907,0.000822,-0.004048,45.600239,63.103439,-21.692926,,,,,,
,,,,,,,,,,,,,,,,29.719963,-95.399068,10.167628,-1.000000,-1.000000,1465830705.63
1465828366.18,-0.001650,-0.006287,-1.403530,-0.001775,-0.085997,0.000802,-0.001650,0.006287,-0.999979,0.005785,0.001465,-0.004477,45.590145,63.102570,-21.716663,,,,,,
1465828366.20,-0.003479,-0.006374,-1.403522,-0.002859,-0.100861,0.000894,-0.003479,0.006374,-0.999974,0.002411,-0.000195,-0.002880,45.590145,63.102570,-21.716663,,,,,,
1465828366.19,-0.002515,-0.006349,-1.403526,-0.001787,-0.095553,0.000862,-0.002515,0.006349,-0.999977,0.004681,0.002531,-0.001671,45.590145,63.102570,-21.716663,,,,,,
1465828366.21,-0.004523,-0.006397,-1.403514,-0.000724,-0.096615,0.000870,-0.004523,0.006397,-0.999969,-0.003000,0.000286,-0.001190,45.527046,63.103725,-21.845304,,,,,,
1465828366.22,-0.005507,-0.006428,-1.403496,-0.000713,-0.086000,0.001868,-0.005507,0.006428,-0.999964,-0.005128,0.001309,-0.001104,45.527046,63.103725,-21.845304,,,,,,
1465828366.23,-0.006371,-0.006430,-1.403479,-0.001758,-0.069015,0.002824,-0.006371,0.006430,-0.999959,-0.007087,-0.000601,0.000127,45.527046,63.103725,-21.845304,,,,,,
1465828366.24,-0.007074,-0.006433,-1.403473,0.001456,-0.056269,0.000619,-0.007074,0.006433,-0.999954,-0.005850,0.000723,0.000595,45.484325,63.103668,-21.934269,,,,,,
1465828366.25,-0.007634,-0.006456,-1.403457,0.000396,-0.050963,0.001649,-0.007633,0.006456,-0.999950,-0.001964,0.000929,-0.001286,45.484325,63.103668,-21.934269,,,,,,
1465828366.26,-0.008124,-0.006463,-1.403451,0.001464,-0.049899,0.000579,-0.008123,0.006463,-0.999946,0.000753,0.001213,-0.001305,45.484325,63.103668,-21.934269,,,,,,
1465828366.27,-0.008570,-0.006490,-1.403445,-0.000667,-0.050959,0.000583,-0.008570,0.006490,-0.999942,0.002909,0.001215,-0.002530,45.429630,63.102379,-22.051020,,,,,,
1465828366.28,-0.009066,-0.006499,-1.403439,-0.001730,-0.049897,0.000576,-0.009066,0.006499,-0.999938,0.000750,-0.000182,0.000151,45.429630,63.102379,-22.051020,,,,,,
1465828366.29,-0.009547,-0.006524,-1.403429,0.000410,-0.041404,0.000524,-0.009546,0.006524,-0.999933,-0.002081,0.001654,-0.000692,45.429630,63.102379,-22.051020,,,,,,
1465828366.30,-0.009986,-0.006517,-1.403425,0.000426,-0.028663,0.000445,-0.009985,0.006517,-0.999929,-0.006769,-0.000154,-0.000895,45.429630,63.102379,-22.051020,,,,,,
1465828366.31,-0.010277,-0.006523,-1.403406,0.000440,-0.013804,0.002480,-0.010277,0.006523,-0.999926,-0.006889,0.000542,0.000292,45.390171,63.102371,-22.132158,,,,,,
1465828366.32,-0.010415,-0.006503,-1.403404,-0.000596,0.005314,0.000230,-0.010415,0.006503,-0.999925,-0.007621,-0.000567,-0.000411,45.390171,63.102371,-22.132158,,,,,,
,,,,,,,,,,,,,,,,29.719966,-95.399072,10.167628,-1.000000,-1.000000,1465830714.82
1465828366.33,-0.010369,-0.006503,-1.403397,0.001544,0.013807,0.000179,-0.010368,0.006503,-0.999925,-0.005089,0.000593,-0.003493,45.381969,63.101105,-22.152576,,,,,,
,,,,,,,,,,,,,,,,29.719968,-95.399076,10.167628,-1.000000,-1.000000,1465830714.85
1465828366.35,-0.010167,-0.006480,-1.403401,0.001503,-0.016921,0.000367,-0.010167,0.006480,-0.999927,0.010640,0.001088,-0.005291,45.381969,63.101105,-22.152576,,,,,,
1465828366.34,-0.010229,-0.006477,-1.403405,-0.000596,0.005380,-0.000839,-0.010229,0.006477,-0.999927,0.003363,-0.001182,-0.003705,45.381969,63.101105,-22.152576,,,,,,
1465828366.36,-0.010309,-0.006476,-1.403394,-0.000666,-0.048773,0.000565,-0.010308,0.006476,-0.999926,0.015313,0.000055,-0.007475,45.385975,63.100609,-22.145784,,,,,,
1465828366.38,-0.011441,-0.006526,-1.403360,-0.001787,-0.093366,0.000844,-0.011441,0.006525,-0.999913,0.010770,0.001104,-0.003657,45.385975,63.100609,-22.145784,,,,,,
1465828366.37,-0.010708,-0.006489,-1.403369,-0.003897,-0.076380,0.001799,-0.010707,0.006489,-0.999922,0.018367,-0.000278,-0.006579,45.385975,63.100609,-22.145784,,,,,,
1465828366.39,-0.012425,-0.006547,-1.403346,-0.001795,-0.099737,0.000884,-0.012424,0.006547,-0.999901,0.001285,0.000518,-0.002448,45.362011,63.099583,-22.197758,,,,,,
1465828366.40,-0.013386,-0.006595,-1.403328,-0.002846,-0.086998,0.001867,-0.013385,0.006595,-0.999889,-0.003888,0.000805,-0.000401,45.362011,63.099583,-22.197758,,,,,,
1465828366.41,-0.014320,-0.006615,-1.403322,-0.001757,-0.070007,0.000697,-0.014319,0.006614,-0.999876,-0.010095,0.000069,0.000822,45.362011,63.099583,-22.197758,,,,,,
1465828366.42,-0.015027,-0.006584,-1.403312,0.001472,-0.042403,0.000527,-0.015026,0.006584,-0.999865,-0.011814,-0.001258,0.001193,45.320839,63.099636,-22.281534,,,,,,
1465828366.43,-0.015463,-0.006591,-1.403303,-0.000633,-0.022228,0.000399,-0.015462,0.006591,-0.999859,-0.009166,0.000672,0.000103,45.320839,63.099636,-22.281534,,,,,,
1465828366.44,-0.015659,-0.006611,-1.403311,-0.000617,-0.011608,-0.000732,-0.015658,0.006611,-0.999856,-0.003034,0.001095,0.000039,45.320839,63.099636,-22.281534,,,,,,
1465828366.45,-0.015794,-0.006617,-1.403307,0.001510,-0.011612,0.000334,-0.015793,0.006617,-0.999853,-0.000457,0.001532,-0.000879,45.271145,63.099205,-22.383537,,,,,,
1465828366.46,-0.015912,-0.006601,-1.403298,0.000438,-0.019041,-0.000685,-0.015911,0.006601,-0.999852,0.003353,-0.000635,-0.003582,45.271145,63.099205,-22.383537,,,,,,
1465828366.47,-0.016066,-0.006628,-1.403293,-0.000638,-0.026475,0.000425,-0.016065,0.006628,-0.999849,0.005567,0.001200,-0.002608,45.271145,63.099205,-22.383537,,,,,,
,,,,,,,,,,,,,,,,29.720008,-95.399035,10.425456,-1.000000,-1.000000,1465830715.03
1465828366.48,-0.016314,-0.006657,-1.403282,-0.000656,-0.039219,0.001570,-0.016313,0.006657,-0.999845,0.006730,0.001949,-0.003497,45.266300,63.098396,-22.395622,,,,,,
1465828366.50,-0.017309,-0.006666,-1.403256,-0.001782,-0.088060,0.001875,-0.017307,0.006666,-0.999828,0.011173,-0.001814,-0.007176,45.266300,63.098396,-22.395622,,,,,,
1465828366.49,-0.016685,-0.006685,-1.403275,-0.000681,-0.060452,0.000638,-0.016683,0.006685,-0.999838,0.010824,0.001250,-0.005777,45.266300,63.098396,-22.395622,,,,,,
1465828366.51,-0.018203,-0.006729,-1.403224,-0.003956,-0.116723,0.004178,-0.018201,0.006729,-0.999812,0.013730,0.002289,-0.004369,45.266300,63.098396,-22.395622,,,,,,
1465828366.52,-0.019444,-0.006739,-1.403191,-0.003992,-0.147511,0.003306,-0.019442,0.006739,-0.999788,0.012347,-0.000804,-0.006437,45.237686,63.097885,-22.454792,,,,,,
1465828366.53,-0.020993,-0.006776,-1.403156,-0.002958,-0.171933,0.003460,-0.020991,0.006776,-0.999757,0.008464,0.001037,-0.006835,45.237686,63.097885,-22.454792,,,,,,
1465828366.54,-0.022749,-0.006803,-1.403120,-0.000845,-0.184675,0.003542,-0.022747,0.006802,-0.999718,0.005550,0.000720,-0.004097,45.237686,63.097885,-22.454792,,,,,,
1465828366.55,-0.024623,-0.006824,-1.403084,-0.002994,-0.200601,0.003640,-0.024620,0.006824,-0.999674,0.007194,0.000118,-0.004095,45.123569,63.094658,-22.692211,,,,,,
1465828366.56,-0.026679,-0.006887,-1.403046,-0.001959,-0.223960,0.003788,-0.026675,0.006887,-0.999620,0.009494,0.002497,-0.005064,45.123569,63.094658,-22.692211,,,,,,
1465828366.57,-0.028958,-0.006922,-1.403002,-0.005193,-0.255812,0.003984,-0.028953,0.006922,-0.999557,0.013191,-0.000772,-0.007340,45.038857,63.093102,-22.864182,,,,,,
1465828366.59,-0.034354,-0.006978,-1.402864,-0.005335,-0.366241,0.006806,-0.034346,0.006978,-0.999386,0.033751,-0.001362,-0.013325,45.038857,63.093102,-22.864182,,,,,,
1465828366.58,-0.031467,-0.006951,-1.402932,-0.004174,-0.288732,0.006321,-0.031461,0.006951,-0.999481,0.021986,-0.000527,-0.006546,45.038857,63.093102,-22.864182,,,,,,
1465828366.60,-0.038134,-0.007047,-1.402793,-0.008677,-0.484096,0.007542,-0.038124,0.007047,-0.999248,0.050057,-0.000531,-0.015446,44.936146,63.089294,-23.075794,,,,,,
1465828366.62,-0.049547,-0.007289,-1.402574,-0.014336,-0.744239,0.013425,-0.049525,0.007289,-0.998746,0.060359,-0.000636,-0.018038,44.936146,63.089294,-23.075794,,,,,,
1465828366.61,-0.043007,-0.007152,-1.402699,-0.013102,-0.612573,0.010472,-0.042992,0.007152,-0.999050,0.067284,-0.000850,-0.018132,44.936146,63.089294,-23.075794,,,,,,
1465828366.63,-0.057301,-0.007450,-1.402432,-0.013369,-0.820691,0.014970,-0.057268,0.007450,-0.998331,0.040102,0.000988,-0.008108,44.535164,63.080269,-23.864367,,,,,,
1465828366.64,-0.065732,-0.007608,-1.402279,-0.016617,-0.862102,0.016291,-0.065683,0.007608,-0.997812,0.025155,-0.003152,-0.006293,44.535164,63.080269,-23.864367,,,,,,
1465828366.65,-0.074382,-0.007804,-1.402114,-0.016659,-0.891838,0.018606,-0.074311,0.007804,-0.997205,0.022737,0.001549,-0.000949,44.535164,63.080269,-23.864367,,,,,,
1465828366.66,-0.083687,-0.007986,-1.401939,-0.016745,-0.960854,0.019039,-0.083586,0.007986,-0.996469,0.034346,-0.001639,-0.008231,44.535164,63.080269,-23.864367,,,,,,
1465828366.67,-0.094239,-0.008189,-1.401759,-0.017995,-1.102105,0.020986,-0.094096,0.008189,-0.995529,0.052989,0.000250,-0.013046,43.738155,63.066303,-25.330294,,,,,,
1465828366.68,-0.106119,-0.008423,-1.401554,-0.021340,-1.218907,0.023844,-0.105916,0.008423,-0.994339,0.054571,-0.000702,-0.013351,43.738155,63.066303,-25.330294,,,,,,
1465828366.69,-0.118957,-0.008678,-1.401328,-0.025723,-1.314473,0.026568,-0.118672,0.008678,-0.992896,0.054067,-0.004192,-0.010324,43.185913,63.058147,-26.280350,,,,,,
1465828366.70,-0.132973,-0.008978,-1.401098,-0.030129,-1.433389,0.026245,-0.132576,0.008978,-0.991132,0.063240,-0.000662,-0.008624,43.185913,63.058147,-26.280350,,,,,,
1465828366.71,-0.148290,-0.009278,-1.400837,-0.022848,-1.564006,0.031329,-0.147741,0.009278,-0.988983,0.071355,0.000778,-0.009156,43.185913,63.058147,-26.280350,,,,,,
1465828366.72,-0.165471,-0.009642,-1.400557,-0.036959,-1.777425,0.033718,-0.164709,0.009641,-0.986295,0.093908,-0.001554,-0.016757,42.497734,63.049236,-27.399725,,,,,,
1465828366.73,-0.184319,-0.010032,-1.400245,-0.030806,-1.960065,0.038063,-0.183267,0.010031,-0.983012,0.106882,-0.001425,-0.016515,42.497734,63.049236,-27.399725,,,,,,
1465828366.74,-0.204701,-0.010461,-1.399942,-0.038370,-2.050312,0.037557,-0.203263,0.010460,-0.979068,0.083146,-0.004235,-0.008007,42.497734,63.049236,-27.399725,,,,,,
1465828366.75,-0.225895,-0.010875,-1.399621,-0.033197,-2.164998,0.041475,-0.223965,0.010875,-0.974536,0.087079,0.005971,0.010562,40.514877,63.028118,-30.298679,,,,,,
1465828366.76,-0.250391,-0.011403,-1.399277,-0.044332,-2.547253,0.048119,-0.247767,0.011403,-0.968753,0.129740,-0.011265,-0.028623,40.514877,63.028118,-30.298679,,,,,,
1465828366.77,-0.277863,-0.012005,-1.398893,-0.051068,-2.815900,0.055119,-0.274282,0.012005,-0.961574,0.145696,0.005069,-0.010746,40.514877,63.028118,-30.298679,,,,,,
1465828366.78,-0.308259,-0.012701,-1.398496,-0.054648,-3.118521,0.060207,-0.303375,0.012700,-0.952786,0.170441,-0.012685,-0.017505,39.143764,63.017815,-32.070694,,,,,,
1465828366.79,-0.341415,-0.013480,-1.398071,-0.064543,-3.359560,0.067031,-0.334790,0.013479,-0.942196,0.174115,0.002832,-0.004810,39.143764,63.017815,-32.070694,,,,,,
1465828366.80,-0.376128,-0.014313,-1.397642,-0.062627,-3.526270,0.070207,-0.367284,0.014312,-0.929999,0.183309,-0.007934,0.014975,39.143764,63.017815,-32.070694,,,,,,
1465828366.81,-0.413371,-0.015306,-1.397264,-0.076805,-3.794899,0.071878,-0.401651,0.015306,-0.915665,0.186518,-0.005906,0.013199,34.975300,63.004673,-36.594376,,,,,,
1465828366.82,-0.453581,-0.016225,-1.396839,-0.065485,-4.098595,0.079116,-0.438129,0.016224,-0.898766,0.133900,0.004803,0.025017,34.975300,63.004673,-36.594376,,,,,,
1465828366.83,-0.495387,-0.017274,-1.396489,-0.076234,-4.180348,0.079618,-0.475301,0.017273,-0.879654,0.069082,0.000137,0.044464,34.975300,63.004673,-36.594376,,,,,,
1465828366.84,-0.536406,-0.018260,-1.396132,-0.066513,-4.069925,0.078935,-0.510965,0.018259,-0.859407,-0.007666,0.001898,0.074053,32.136688,63.008152,-39.105179,,,,,,
1465828366.85,-0.576747,-0.019260,-1.395853,-0.070720,-4.033813,0.075511,-0.545199,0.019259,-0.838085,0.016314,0.001981,0.062237,32.136688,63.008152,-39.105179,,,,,,
1465828366.86,-0.616924,-0.020269,-1.395626,-0.070672,-3.993468,0.076323,-0.578411,0.020268,-0.815494,0.014980,0.000423,0.046268,32.136688,63.008152,-39.105179,,,,,,
1465828366.87,-0.655340,-0.021226,-1.395409,-0.061904,-3.789702,0.073987,-0.609291,0.021225,-0.792662,0.007424,0.005982,0.075286,25.558552,63.036976,-43.647556,,,,,,
1465828366.88,-0.693230,-0.022169,-1.395222,-0.064061,-3.811999,0.074124,-0.638868,0.022167,-0.768997,0.074216,-0.003048,0.043549,25.558552,63.036976,-43.647556,,,,,,
1465828366.89,-0.732570,-0.023194,-1.395083,-0.068545,-3.986141,0.078405,-0.668603,0.023192,-0.743258,0.119912,0.000658,0.030520,25.558552,63.036976,-43.647556,,,,,,
1465828366.90,-0.774933,-0.024292,-1.394966,-0.073244,-4.330175,0.084816,-0.699461,0.024290,-0.714257,0.195113,-0.003156,0.003534,22.252625,63.057758,-45.393265,,,,,,
1465828366.91,-0.821353,-0.025492,-1.394877,-0.079094,-4.737925,0.094819,-0.731830,0.025489,-0.681010,0.214099,-0.003059,-0.000142,22.252625,63.057758,-45.393265,,,,,,
1465828366.92,-0.870966,-0.026774,-1.394866,-0.084772,-5.017182,0.098693,-0.764677,0.026771,-0.643857,0.203596,0.004250,0.016782,22.252625,63.057758,-45.393265,,,,,,
1465828366.93,-0.922912,-0.028134,-1.394909,-0.089355,-5.267780,0.105583,-0.797047,0.028130,-0.603262,0.198139,-0.003747,0.049643,14.112780,63.136005,-48.442574,,,,,,
1465828366.94,-0.978769,-0.029572,-1.395045,-0.097336,-5.679770,0.113481,-0.829448,0.029567,-0.557800,0.232387,0.004826,0.027252,14.112780,63.136005,-48.442574,,,,,,
1465828366.95,-1.037269,-0.031068,-1.395280,-0.097572,-5.864530,0.116768,-0.860603,0.031063,-0.508329,0.175620,0.003696,0.053006,14.112780,63.136005,-48.442574,,,,,,
1465828366.97,-1.152950,-0.034013,-1.396021,-0.098609,-5.849652,0.112416,-0.913436,0.034006,-0.405558,0.125167,-0.000177,0.100383,8.959276,63.201099,-49.571785,,,,,,
1465828366.96,-1.094975,-0.032564,-1.395628,-0.098478,-5.741354,0.113866,-0.888446,0.032558,-0.457825,0.092456,-0.004604,0.117387,8.959276,63.201099,-49.571785,,,,,,
1465828366.98,-1.212146,-0.035488,-1.396553,-0.111452,-5.900615,0.113787,-0.935782,0.035481,-0.350790,0.076758,-0.002720,0.079092,8.959276,63.201099,-49.571785,,,,,,
1465828367.00,-1.325516,-0.038201,-1.397763,-0.097258,-5.621365,0.110986,-0.969362,0.038191,-0.242651,0.049913,0.005815,0.084707,-2.428125,63.389114,-50.079277,,,,,,
1465828366.99,-1.269231,-0.036870,-1.397131,-0.099418,-5.652145,0.106919,-0.954224,0.036862,-0.296814,0.026749,-0.000180,0.131073,-2.428125,63.389114,-50.079277,,,,,,
1465828367.01,-1.381370,-0.039484,-1.398465,-0.093997,-5.565097,0.112765,-0.981347,0.039474,-0.188149,0.041299,0.008896,0.101433,-2.428125,63.389114,-50.079277,,,,,,
1465828367.03,-1.492575,-0.041916,-1.400099,-0.093922,-5.511996,0.108174,-0.996067,0.041904,-0.078073,0.039432,0.008359,0.091867,-7.927402,63.498348,-49.367245,,,,,,
1465828367.02,-1.437246,-0.040735,-1.399285,-0.097220,-5.589514,0.111850,-0.990273,0.040724,-0.133044,0.073998,0.002230,0.082156,-7.927402,63.498348,-49.367245,,,,,,
1465828367.04,-1.547804,-0.043047,-1.401032,-0.098157,-5.489701,0.110159,-0.998810,0.043033,-0.022969,0.031112,0.010937,0.093892,-7.927402,63.498348,-49.367245,,,,,,
1465828367.06,-1.648018,-0.045012,-1.402809,-0.088822,-4.848360,0.099759,-0.996010,0.044997,0.077066,-0.039070,0.012880,0.139959,-18.306334,63.742744,-46.192524,,,,,,
1465828367.05,-1.599282,-0.044076,-1.401901,-0.085829,-5.011873,0.098659,-0.998623,0.044062,0.028454,-0.081821,-0.004099,0.107288,-18.306334,63.742744,-46.192524,,,,,,
1465828367.07,-1.696148,-0.045890,-1.403700,-0.074904,-4.795261,0.094118,-0.991109,0.045874,0.124892,-0.002101,-0.009268,0.035737,-18.306334,63.742744,-46.192524,,,,,,
1465828367.08,-1.742988,-0.046702,-1.404687,-0.091740,-4.634924,0.094160,-0.984137,0.046685,0.171155,-0.031900,0.017447,0.115558,-22.698650,63.861832,-44.027802,,,,,,
1465828367.09,-1.787026,-0.047437,-1.405596,-0.067874,-4.288776,0.087755,-0.975615,0.047419,0.214307,-0.080904,0.000952,0.047793,-22.698650,63.861832,-44.027802,,,,,,
1465828367.10,-1.826869,-0.048052,-1.406483,-0.068429,-3.894826,0.077833,-0.966276,0.048033,0.252990,-0.115191,0.010210,0.128189,-22.698650,63.861832,-44.027802,,,,,,
1465828367.11,-1.863119,-0.048600,-1.407307,-0.063691,-3.512580,0.075440,-0.956446,0.048581,0.287837,-0.138463,0.012638,0.076116,-22.698650,63.861832,-44.027802,,,,,,
1465828367.12,-1.895776,-0.049065,-1.408037,-0.052645,-3.209945,0.063973,-0.946517,0.049045,0.318905,-0.104142,0.005902,0.087482,-29.914806,64.087090,-39.114697,,,,,,
1465828367.13,-1.926974,-0.049501,-1.408801,-0.055677,-3.074044,0.067376,-0.936088,0.049480,0.348267,-0.080773,0.007435,0.058746,-29.914806,64.087090,-39.114697,,,,,,
1465828367.14,-1.956761,-0.049895,-1.409483,-0.048078,-2.967850,0.060330,-0.925283,0.049874,0.375985,-0.028346,0.002768,0.035194,-32.440826,64.176750,-36.890999,,,,,,
1465828367.16,-2.020180,-0.050651,-1.411029,-0.055898,-3.253483,0.066372,-0.899560,0.050629,0.433853,0.089288,0.005737,0.050354,-32.440826,64.176750,-36.890999,,,,,,
1465828367.15,-1.987855,-0.050280,-1.410252,-0.056837,-3.153673,0.065745,-0.913129,0.050259,0.404561,0.043393,0.001698,0.026454,-32.440826,64.176750,-36.890999,,,,,,
1465828367.17,-2.053905,-0.050993,-1.411854,-0.059286,-3.406384,0.068392,-0.884404,0.050971,0.463931,0.026997,0.004617,0.026441,-32.440826,64.176750,-36.890999,,,,,,
1465828367.18,-2.087584,-0.051340,-1.412707,-0.054922,-3.319324,0.069979,-0.868265,0.051318,0.493439,0.003946,0.009794,0.095276,-36.587624,64.341866,-32.457329,,,,,,
1465828367.19,-2.119721,-0.051636,-1.413519,-0.055819,-3.190837,0.065979,-0.851949,0.051613,0.521075,-0.017039,0.004555,0.048414,-36.587624,64.341866,-32.457329,,,,,,
1465828367.20,-2.151026,-0.051871,-1.414354,-0.057822,-3.093144,0.063235,-0.835212,0.051848,0.547479,-0.039819,0.014940,0.067268,-38.596142,64.430428,-29.850756,,,,,,
1465828367.22,-2.208157,-0.052271,-1.415848,-0.048867,-2.753357,0.055791,-0.802571,0.052247,0.594264,-0.024013,0.012969,0.041768,-38.596142,64.430428,-29.850756,,,,,,
1465828367.21,-2.180389,-0.052100,-1.415109,-0.050089,-2.873349,0.059736,-0.818769,0.052076,0.571756,-0.032305,0.001253,0.072897,-38.596142,64.430428,-29.850756,,,,,,
1465828367.23,-2.234889,-0.052444,-1.416560,-0.046590,-2.634439,0.056112,-0.786393,0.052420,0.615498,0.030229,0.002222,0.064663,-41.733723,64.588791,-24.871532,,,,,,
1465828367.24,-2.261611,-0.052600,-1.417260,-0.043477,-2.697090,0.057572,-0.769661,0.052576,0.636284,0.054985,-0.001428,0.010933,-41.733723,64.588791,-24.871532,,,,,,
1465828367.25,-2.289709,-0.052737,-1.418018,-0.051092,-2.827686,0.057319,-0.751476,0.052713,0.657651,0.053600,0.013648,0.026828,-41.733723,64.588791,-24.871532,,,,,,
1465828367.26,-2.318211,-0.052842,-1.418774,-0.047913,-2.835129,0.060563,-0.732425,0.052817,0.678796,0.016086,-0.004859,0.046088,-42.926849,64.658081,-22.552776,,,,,,
1465828367.28,-2.372541,-0.052946,-1.420225,-0.046512,-2.580274,0.050450,-0.694480,0.052921,0.717563,-0.076760,0.009258,0.065106,-42.926849,64.658081,-22.552776,,,,,,
1465828367.27,-2.346185,-0.052903,-1.419520,-0.048882,-2.767159,0.054813,-0.713150,0.052878,0.699014,-0.024811,0.013055,0.050116,-42.926849,64.658081,-22.552776,,,,,,
1465828367.29,-2.396084,-0.052966,-1.420859,-0.038659,-2.263857,0.047409,-0.677395,0.052941,0.733712,-0.079609,0.001197,0.073050,-45.003593,64.796730,-17.551908,,,,,,
1465828367.31,-2.437165,-0.052966,-1.422005,-0.038415,-2.073786,0.043024,-0.646689,0.052942,0.760914,0.046195,0.002463,0.007503,-45.003593,64.796730,-17.551908,,,,,,
1465828367.30,-2.416717,-0.052971,-1.421440,-0.039401,-2.014319,0.040521,-0.662112,0.052946,0.747532,-0.004849,0.011873,0.041607,-45.003593,64.796730,-17.551908,,,,,,
1465828367.32,-2.458995,-0.052945,-1.422592,-0.037515,-2.205450,0.043850,-0.629927,0.052920,0.774849,0.063154,0.004224,0.016731,-45.673851,64.851212,-15.499317,,,,,,
1465828367.33,-2.481610,-0.052948,-1.423175,-0.039736,-2.276593,0.045359,-0.612244,0.052923,0.788896,0.079544,0.006189,0.009917,-45.673851,64.851212,-15.499317,,,,,,
1465828367.34,-2.505423,-0.052901,-1.423801,-0.042039,-2.410388,0.049389,-0.593288,0.052877,0.803252,0.059093,0.002375,0.012330,-45.673851,64.851212,-15.499317,,,,,,
1465828367.35,-2.530018,-0.052847,-1.424466,-0.044233,-2.461353,0.049706,-0.573356,0.052823,0.817602,0.051917,0.005985,0.026407,-46.745525,64.954575,-11.303452,,,,,,
1465828367.37,-2.578847,-0.052665,-1.425780,-0.043036,-2.359415,0.046939,-0.532771,0.052640,0.844621,-0.056966,0.008166,0.053847,-46.745525,64.954575,-11.303452,,,,,,
1465828367.36,-2.554815,-0.052783,-1.425120,-0.042127,-2.477287,0.051937,-0.552910,0.052759,0.831569,0.004555,0.003912,0.030186,-46.745525,64.954575,-11.303452,,,,,,
1465828367.38,-2.600287,-0.052587,-1.426338,-0.034126,-2.052549,0.041830,-0.514543,0.052563,0.855852,-0.132063,0.007679,0.069700,-47.178925,65.010696,-8.931278,,,,,,
1465828367.39,-2.617320,-0.052524,-1.426800,-0.027130,-1.574730,0.034583,-0.499893,0.052499,0.864495,-0.137757,0.007895,0.081077,-47.178925,65.010696,-8.931278,,,,,,
1465828367.40,-2.630210,-0.052489,-1.427130,-0.018149,-1.216886,0.024896,-0.488710,0.052465,0.870868,-0.062484,0.006556,0.048780,-47.178925,65.010696,-8.931278,,,,,,
1465828367.41,-2.641861,-0.052454,-1.427430,-0.019144,-1.161672,0.024549,-0.478531,0.052430,0.876504,0.002793,0.004637,0.013221,-47.612602,65.093819,-5.276680,,,,,,
1465828367.42,-2.653831,-0.052406,-1.427756,-0.019204,-1.206273,0.026958,-0.468006,0.052382,0.882171,0.028248,0.006975,0.005387,-47.612602,65.093819,-5.276680,,,,,,
1465828367.43,-2.665982,-0.052322,-1.428081,-0.021335,-1.210514,0.024853,-0.457254,0.052299,0.887797,0.012674,0.004266,0.009527,-47.612602,65.093819,-5.276680,,,,,,
1465828367.44,-2.677629,-0.052227,-1.428399,-0.022312,-1.142555,0.023362,-0.446886,0.052203,0.893066,0.008166,0.007611,0.019928,-47.690384,65.119835,-4.128319,,,,,,
1465828367.46,-2.699781,-0.052058,-1.428973,-0.020129,-1.103263,0.020988,-0.426998,0.052035,0.902754,0.019558,0.004102,0.010103,-47.690384,65.119835,-4.128319,,,,,,
1465828367.45,-2.688727,-0.052154,-1.428694,-0.019069,-1.103270,0.023118,-0.436949,0.052130,0.897974,0.017379,0.005395,0.008535,-47.690384,65.119835,-4.128319,,,,,,
1465828367.47,-2.710677,-0.051959,-1.429250,-0.021164,-1.079903,0.020841,-0.417140,0.051936,0.907357,0.010569,0.003606,0.014747,-47.767677,65.166832,-1.882082,,,,,,
1465828367.49,-2.731005,-0.051769,-1.429778,-0.018922,-0.991772,0.019226,-0.398613,0.051745,0.915658,0.031929,0.002851,0.010840,-47.767677,65.166832,-1.882082,,,,,,
1465828367.48,-2.721046,-0.051859,-1.429528,-0.020021,-1.017257,0.020449,-0.407711,0.051836,0.911639,0.008373,0.003523,0.015501,-47.767677,65.166832,-1.882082,,,,,,
1465828367.50,-2.741401,-0.051679,-1.430052,-0.019014,-1.059736,0.022845,-0.389074,0.051656,0.919757,0.053457,0.003535,-0.001163,-47.769222,65.187454,-0.840757,,,,,,
1465828367.51,-2.752738,-0.051593,-1.430341,-0.020200,-1.156359,0.023450,-0.378624,0.051570,0.924113,0.056847,0.002446,-0.001551,-47.769222,65.187454,-0.840757,,,,,,
1465828367.52,-2.764782,-0.051498,-1.430664,-0.020272,-1.209458,0.026976,-0.367469,0.051476,0.928610,0.028083,0.003990,0.002038,-47.769222,65.187454,-0.840757,,,,,,
1465828367.53,-2.776529,-0.051394,-1.430970,-0.020195,-1.153174,0.023430,-0.356538,0.051371,0.932868,0.004365,0.005788,0.015634,-47.700188,65.230545,1.294950,,,,,,
1465828367.55,-2.797643,-0.051190,-1.431498,-0.018948,-1.013008,0.019359,-0.336766,0.051168,0.940197,0.013158,0.005000,0.013767,-47.700188,65.230545,1.294950,,,,,,
1465828367.54,-2.787392,-0.051290,-1.431249,-0.020080,-1.062918,0.021800,-0.346385,0.051267,0.936691,0.001185,0.005114,0.016083,-47.700188,65.230545,1.294950,,,,,,
1465828367.56,-2.807736,-0.051076,-1.431761,-0.020010,-1.008763,0.020396,-0.327262,0.051054,0.943553,0.031852,0.003466,0.005253,-47.627773,65.252243,2.397545,,,,,,
1465828367.57,-2.818173,-0.050986,-1.432021,-0.016876,-1.055487,0.021756,-0.317398,0.050964,0.946922,0.044159,0.003571,0.002770,-47.627773,65.252243,2.397545,,,,,,
1465828367.58,-2.829185,-0.050876,-1.432295,-0.019080,-1.112826,0.023178,-0.306953,0.050854,0.950365,0.037224,0.002430,-0.001833,-47.627773,65.252243,2.397545,,,,,,
1465828367.59,-2.840355,-0.050742,-1.432559,-0.020137,-1.111755,0.019977,-0.296320,0.050720,0.953741,0.028208,0.005630,0.006205,-47.429691,65.290222,4.429520,,,,,,
1465828367.60,-2.851399,-0.050610,-1.432835,-0.020134,-1.106452,0.022073,-0.285772,0.050589,0.956962,0.032598,0.004007,0.007653,-47.429691,65.290222,4.429520,,,,,,
1465828367.61,-2.862718,-0.050457,-1.433106,-0.023362,-1.135116,0.021185,-0.274924,0.050436,0.960142,0.024649,0.004542,0.002397,-47.429691,65.290222,4.429520,,,,,,
1465828367.62,-2.874038,-0.050324,-1.433380,-0.020163,-1.127691,0.023270,-0.264040,0.050303,0.963199,0.024965,0.003377,0.005688,-47.429691,65.290222,4.429520,,,,,,
1465828367.63,-2.885188,-0.050186,-1.433663,-0.021206,-1.108581,0.024214,-0.253285,0.050165,0.966090,0.023305,0.004324,0.009999,-47.124989,65.327255,6.602553,,,,,,
1465828367.64,-2.896364,-0.050056,-1.433947,-0.020157,-1.121323,0.024295,-0.242474,0.050035,0.968867,0.029537,0.005827,0.001348,-47.124989,65.327255,6.602553,,,,,,
1465828367.65,-2.907651,-0.049935,-1.434212,-0.018033,-1.127692,0.023272,-0.231524,0.049914,0.971548,0.017154,0.002301,0.010630,-47.124989,65.327255,6.602553,,,,,,
1465828367.66,-2.918487,-0.049805,-1.434472,-0.019007,-1.056548,0.021761,-0.220985,0.049785,0.974006,-0.007973,0.004170,0.013085,-46.934414,65.346954,7.677610,,,,,,
1465828367.67,-2.928195,-0.049691,-1.434705,-0.016734,-0.943995,0.019993,-0.211520,0.049670,0.976111,-0.010953,0.002591,0.023554,-46.934414,65.346954,7.677610,,,,,,
1465828367.68,-2.936957,-0.049578,-1.434924,-0.014485,-0.850554,0.018345,-0.202960,0.049557,0.977932,-0.024884,0.005008,0.015278,-46.934414,65.346954,7.677610,,,,,,
1465828367.69,-2.944438,-0.049459,-1.435112,-0.015367,-0.708266,0.015322,-0.195640,0.049438,0.979429,-0.026421,0.008286,0.020556,-46.934414,65.346954,7.677610,,,,,,
1465828367.70,-2.950579,-0.049375,-1.435257,-0.010951,-0.586155,0.012432,-0.189623,0.049355,0.980616,-0.014235,0.005287,0.018957,-46.934414,65.346954,7.677610,,,,,,
1465828367.71,-2.955933,-0.049290,-1.435392,-0.009805,-0.523507,0.010976,-0.184370,0.049270,0.981621,0.007033,0.006486,0.009727,-46.374577,65.391174,10.266552,,,,,,
1465828367.72,-2.961192,-0.049213,-1.435518,-0.010877,-0.528815,0.011008,-0.179207,0.049194,0.982581,0.026710,0.004334,-0.000357,-46.374577,65.391174,10.266552,,,,,,
1465828367.73,-2.966716,-0.049133,-1.435656,-0.011981,-0.558548,0.012258,-0.173777,0.049113,0.983560,0.038294,0.002751,-0.000131,-46.374577,65.391174,10.266552,,,,,,
1465828367.74,-2.972687,-0.049057,-1.435797,-0.010977,-0.607391,0.012565,-0.167902,0.049037,0.984583,0.047113,0.002126,-0.004221,-46.374577,65.391174,10.266552,,,,,,
1465828367.75,-2.979115,-0.048972,-1.435957,-0.011039,-0.653055,0.014980,-0.161570,0.048952,0.985646,0.042582,-0.000170,-0.001836,-46.374577,65.391174,10.266552,,,,,,
1465828367.76,-2.985920,-0.048875,-1.436121,-0.011082,-0.689153,0.014142,-0.154859,0.048856,0.986728,0.045149,0.003040,-0.004611,-46.374577,65.391174,10.266552,,,,,,
1465828367.77,-2.993182,-0.048760,-1.436284,-0.014337,-0.737994,0.014445,-0.147691,0.048741,0.987832,0.050202,0.001445,-0.004739,-45.932728,65.419273,11.937832,,,,,,
1465828367.78,-3.001051,-0.048627,-1.436479,-0.015487,-0.802770,0.016979,-0.139914,0.048608,0.988970,0.053839,0.002951,-0.005739,-45.932728,65.419273,11.937832,,,,,,
1465828367.79,-3.009504,-0.048470,-1.436675,-0.018747,-0.854796,0.017302,-0.131550,0.048451,0.990125,0.043843,0.004497,-0.007077,-45.726131,65.430176,12.649979,,,,,,
1465828367.80,-3.018090,-0.048318,-1.436875,-0.017679,-0.852673,0.017290,-0.123045,0.048299,0.991225,0.025954,0.003230,-0.000136,-45.726131,65.430176,12.649979,,,,,,
1465828367.81,-3.026405,-0.048174,-1.437071,-0.015518,-0.826132,0.018190,-0.114800,0.048155,0.992221,0.032052,0.003557,0.002942,-45.726131,65.430176,12.649979,,,,,,
1465828367.82,-3.035172,-0.048052,-1.437287,-0.013490,-0.903651,0.020807,-0.106097,0.048033,0.993195,0.072940,0.001680,-0.006897,-45.481052,65.441498,13.449646,,,,,,
1465828367.83,-3.045831,-0.047901,-1.437527,-0.018031,-1.126630,0.023266,-0.095506,0.047883,0.994277,0.109941,-0.001404,-0.022383,-45.481052,65.441498,13.449646,,,,,,
1465828367.84,-3.058854,-0.047695,-1.437806,-0.023646,-1.353862,0.027879,-0.082550,0.047676,0.995446,0.112198,-0.001336,-0.025384,-45.481052,65.441498,13.449646,,,,,,
1465828367.85,-3.073824,-0.047464,-1.438134,-0.026015,-1.539685,0.032235,-0.067641,0.047446,0.996581,0.109038,-0.000602,-0.017196,-44.838524,65.470100,15.335639,,,,,,
1465828367.86,-3.090552,-0.047207,-1.438486,-0.029427,-1.711698,0.034375,-0.050962,0.047189,0.997585,0.093137,-0.000177,-0.014461,-44.838524,65.470100,15.335639,,,,,,
1465828367.87,-3.108726,-0.046900,-1.438861,-0.033850,-1.841239,0.036247,-0.032825,0.046883,0.998361,0.071872,0.001747,-0.007974,-44.838524,65.470100,15.335639,,,,,,
1465828367.88,-3.127623,-0.046570,-1.439266,-0.033931,-1.898588,0.040865,-0.013954,0.046553,0.998818,0.053780,0.002992,0.004050,-44.838524,65.470100,15.335639,,,,,,
1465828367.89,3.136325,-0.046222,-1.439662,-0.036094,-1.924195,0.038891,0.005262,0.046205,0.998918,0.027667,0.005705,0.007857,-43.585571,65.511955,18.452393,,,,,,
1465828367.90,3.117597,-0.045861,-1.440059,-0.035986,-1.835010,0.040461,0.023968,0.045845,0.998661,-0.023052,0.005074,0.018795,-43.585571,65.511955,18.452393,,,,,,
1465828367.91,3.100646,-0.045545,-1.440397,-0.029353,-1.648121,0.033973,0.040893,0.045529,0.998126,-0.030761,0.003604,0.035795,-42.801525,65.532715,20.137108,,,,,,
1465828367.93,3.070619,-0.044959,-1.440990,-0.025837,-1.395408,0.030263,0.070843,0.044944,0.996474,-0.047985,0.003152,0.027177,-42.801525,65.532715,20.137108,,,,,,
1465828367.92,3.085008,-0.045242,-1.440702,-0.028149,-1.538753,0.032224,0.056497,0.045227,0.997378,-0.032098,0.004105,0.024976,-42.801525,65.532715,20.137108,,,,,,
1465828367.94,3.058372,-0.044716,-1.441221,-0.021275,-1.161799,0.023480,0.083042,0.044701,0.995543,-0.065128,0.004554,0.032838,-42.801525,65.532715,20.137108,,,,,,
1465828367.95,3.048363,-0.044525,-1.441414,-0.017810,-0.949434,0.020023,0.093003,0.044510,0.994670,-0.057953,0.004791,0.029606,-41.453659,65.561005,22.701490,,,,,,
1465828367.96,3.040176,-0.044375,-1.441571,-0.013326,-0.773171,0.016793,0.101143,0.044361,0.993882,-0.057030,0.005078,0.023787,-41.453659,65.561005,22.701490,,,,,,
1465828367.97,3.033882,-0.044253,-1.441686,-0.008813,-0.577790,0.011314,0.107397,0.044238,0.993232,-0.059225,0.005673,0.023004,-41.453659,65.561005,22.701490,,,,,,
1465828367.98,3.029704,-0.044169,-1.441759,-0.007476,-0.365421,0.006790,0.111547,0.044154,0.992778,-0.060506,0.008840,0.026265,-41.009056,65.569557,23.471251,,,,,,
1465828367.99,3.030855,-0.044386,-1.441657,-0.001870,-0.144549,0.003282,0.110402,0.044371,0.992896,-0.063360,0.005998,0.024056,-41.009056,65.569557,23.471251,,,,,,
1465828368.00,3.031214,-0.044389,-1.441668,0.001628,0.096482,0.000709,0.110046,0.044375,0.992935,-0.061324,0.005644,0.027328,-41.009056,65.569557,23.471251,,,,,,
1465828368.01,3.034434,-0.044620,-1.441583,0.006052,0.219669,-0.005381,0.106847,0.044605,0.993274,-0.020482,0.003780,0.013287,-40.790955,65.573997,23.836037,,,,,,
1465828368.02,3.037340,-0.044698,-1.441527,0.006176,0.318417,-0.006000,0.103960,0.044684,0.993577,-0.017000,0.002191,0.010573,-40.790955,65.573997,23.836037,,,,,,
1465828368.03,3.041468,-0.044775,-1.441447,0.008471,0.444779,-0.009984,0.099857,0.044760,0.993995,-0.008533,0.002420,0.011834,-40.790955,65.573997,23.836037,,,,,,
1465828368.04,3.046708,-0.044893,-1.441343,0.009661,0.543529,-0.011667,0.094647,0.044878,0.994499,-0.001386,0.002211,0.010811,-40.947346,65.573860,23.566772,,,,,,
1465828368.06,3.059525,-0.045381,-1.441096,0.014109,0.692182,-0.013659,0.081891,0.045365,0.995608,0.011843,0.005294,0.007398,-40.947346,65.573860,23.566772,,,,,,
1465828368.05,3.052766,-0.045229,-1.441219,0.011887,0.616798,-0.014253,0.088619,0.045214,0.995039,0.004810,0.004957,0.007601,-40.947346,65.573860,23.566772,,,,,,
1465828368.07,3.066863,-0.045540,-1.440953,0.014181,0.746340,-0.016127,0.074582,0.045524,0.996175,0.016360,0.004647,0.003184,-41.491425,65.568329,22.611156,,,,,,
1465828368.08,3.074792,-0.045683,-1.440793,0.014257,0.806863,-0.016507,0.066681,0.045667,0.996729,0.017303,0.004168,0.004843,-41.491425,65.568329,22.611156,,,,,,
1465828368.09,3.083160,-0.045877,-1.440631,0.015400,0.865267,-0.019001,0.058338,0.045861,0.997243,0.021572,0.002311,0.007945,-41.491425,65.568329,22.611156,,,,,,
1465828368.10,3.092104,-0.046052,-1.440454,0.016502,0.897117,-0.018135,0.049416,0.046036,0.997717,0.031395,0.001908,0.005015,-41.852631,65.561020,21.957212,,,,,,
1465828368.11,3.100931,-0.046225,-1.440281,0.016474,0.874819,-0.017995,0.040607,0.046208,0.998106,0.046536,0.001613,-0.003126,-41.852631,65.561020,21.957212,,,,,,
1465828368.12,3.109466,-0.046395,-1.440113,0.015370,0.842966,-0.017796,0.032087,0.046379,0.998408,0.057696,0.001168,-0.003444,-41.852631,65.561020,21.957212,,,,,,
1465828368.13,3.116673,-0.046588,-1.439997,0.015304,0.791992,-0.016412,0.024890,0.046572,0.998605,0.062787,0.001890,-0.007470,-42.633980,65.545265,20.449234,,,,,,
1465828368.14,3.123269,-0.046766,-1.439891,0.014188,0.751640,-0.016160,0.018302,0.046749,0.998739,0.056863,0.001179,-0.006429,-42.633980,65.545265,20.449234,,,,,,
1465828368.15,3.129242,-0.047008,-1.439801,0.015217,0.725085,-0.014928,0.012336,0.046990,0.998819,0.053017,0.002830,-0.004953,-42.633980,65.545265,20.449234,,,,,,
1465828368.16,3.134768,-0.047221,-1.439735,0.013043,0.691099,-0.013652,0.006817,0.047204,0.998862,0.056186,0.002174,-0.005316,-42.633980,65.545265,20.449234,,,,,,
1465828368.17,3.139750,-0.047389,-1.439665,0.009764,0.623138,-0.013229,0.001841,0.047371,0.998876,0.065512,0.001655,-0.009603,-42.633980,65.545265,20.449234,,,,,,
1465828368.18,-3.139932,-0.047499,-1.439650,0.009613,0.508446,-0.009317,-0.001659,0.047481,0.998871,0.078929,-0.000286,-0.015350,-42.633980,65.545265,20.449234,,,,,,
1465828368.19,-3.138806,-0.047564,-1.439696,0.006239,0.365091,-0.008421,-0.002784,0.047546,0.998865,0.085822,-0.001236,-0.019312,-43.330238,65.546249,18.925869,,,,,,
1465828368.20,-3.140062,-0.047621,-1.439823,0.003906,0.207920,-0.004244,-0.001529,0.047603,0.998865,0.090320,-0.000804,-0.019663,-43.330238,65.546249,18.925869,,,,,,
1465828368.21,3.140187,-0.047670,-1.439983,0.002627,0.041194,-0.001070,0.001404,0.047652,0.998863,0.088058,-0.000578,-0.022880,-43.316605,65.556030,18.923174,,,,,,
1465828368.22,3.135871,-0.047694,-1.440157,-0.001844,-0.124467,0.002094,0.005715,0.047676,0.998846,0.081946,-0.000313,-0.023810,-43.316605,65.556030,18.923174,,,,,,
1465828368.23,3.130367,-0.047751,-1.440354,-0.004167,-0.275262,0.005166,0.011212,0.047733,0.998797,0.074008,0.001385,-0.024478,-43.316605,65.556030,18.923174,,,,,,
1465828368.24,3.124095,-0.047738,-1.440549,-0.007525,-0.402694,0.008091,0.017476,0.047720,0.998708,0.061625,0.000681,-0.019826,-43.316605,65.556030,18.923174,,,,,,
1465828368.26,3.111077,-0.047591,-1.440885,-0.010900,-0.542870,0.011096,0.030477,0.047573,0.998403,0.026149,0.000676,-0.009862,-42.902020,65.589607,19.733944,,,,,,
1465828368.25,3.117497,-0.047664,-1.440725,-0.007645,-0.496144,0.009742,0.024066,0.047645,0.998574,0.044965,-0.000389,-0.016717,-42.902020,65.589607,19.733944,,,,,,
1465828368.27,3.105093,-0.047515,-1.441010,-0.008777,-0.550303,0.010081,0.036450,0.047497,0.998206,0.008258,0.000507,-0.005378,-42.619492,65.601334,20.299089,,,,,,
1465828368.28,3.099885,-0.047494,-1.441108,-0.008739,-0.518451,0.010946,0.041648,0.047476,0.998004,-0.007225,0.002329,0.002790,-42.619492,65.601334,20.299089,,,,,,
1465828368.29,3.095304,-0.047431,-1.441192,-0.008689,-0.478101,0.010693,0.046220,0.047414,0.997805,-0.014359,0.001170,0.004346,-42.619492,65.601334,20.299089,,,,,,
1465828368.30,3.091170,-0.047388,-1.441260,-0.006508,-0.438811,0.009384,0.050345,0.047370,0.997608,-0.015600,0.001534,0.006787,-45.593746,50.427711,-4.798767,,,,,,
1465828368.31,3.087369,-0.047413,-1.441314,-0.005389,-0.399518,0.007010,0.054136,0.047395,0.997408,-0.013380,0.002807,0.004194,-45.593746,50.427711,-4.798767,,,,,,
1465828368.32,3.083814,-0.047401,-1.441375,-0.006414,-0.367662,0.006809,0.057682,0.047383,0.997210,-0.009998,0.001811,0.003248,-45.593746,50.427711,-4.798767,,,,,,
1465828368.33,3.080385,-0.047391,-1.441449,-0.006395,-0.349617,0.008825,0.061101,0.047373,0.997007,-0.006993,0.002004,0.001086,-45.651211,50.440445,-4.062110,,,,,,
1465828368.34,3.077130,-0.047360,-1.441518,-0.007433,-0.329439,0.007633,0.064345,0.047342,0.996804,-0.006148,0.001516,0.000968,-45.651211,50.440445,-4.062110,,,,,,
1465828368.35,3.074144,-0.047372,-1.441573,-0.004204,-0.303954,0.006412,0.067322,0.047354,0.996607,-0.007370,0.002328,-0.000239,-45.651211,50.440445,-4.062110,,,,,,
1465828368.36,3.071531,-0.047395,-1.441622,-0.006292,-0.271036,0.006203,0.069926,0.047377,0.996427,-0.009028,0.003084,0.002856,-45.670029,50.447155,-3.755635,,,,,,
1465828368.38,3.067610,-0.047319,-1.441677,-0.000862,-0.189271,0.003567,0.073832,0.047302,0.996148,-0.012492,0.000855,0.005790,-45.670029,50.447155,-3.755635,,,,,,
1465828368.37,3.069319,-0.047330,-1.441652,-0.004117,-0.235993,0.004921,0.072130,0.047312,0.996272,-0.011110,-0.000407,0.002690,-45.670029,50.447155,-3.755635,,,,,,
1465828368.39,3.066444,-0.047308,-1.441680,-0.002928,-0.140423,0.002194,0.074994,0.047291,0.996062,-0.014615,0.000896,0.003953,-45.695518,50.454655,-3.319564,,,,,,
1465828368.41,3.065683,-0.047368,-1.441668,0.000398,-0.037423,0.000487,0.075752,0.047350,0.996002,-0.013939,0.002821,0.005188,-45.695518,50.454655,-3.319564,,,,,,
1465828368.40,3.065812,-0.047300,-1.441680,-0.001799,-0.089455,0.001876,0.075623,0.047282,0.996015,-0.015519,0.000234,0.006076,-45.695518,50.454655,-3.319564,,,,,,
1465828368.42,3.066089,-0.047413,-1.441653,-0.000600,0.015669,0.000153,0.075348,0.047395,0.996030,-0.014007,0.001967,0.005267,-45.701172,50.454929,-3.236443,,,,,,
1465828368.43,3.066951,-0.047470,-1.441631,0.001590,0.063451,-0.000144,0.074489,0.047452,0.996092,-0.012187,0.002032,0.006319,-45.701172,50.454929,-3.236443,,,,,,
1465828368.44,3.068241,-0.047491,-1.441599,0.001649,0.109113,-0.001495,0.073203,0.047473,0.996187,-0.010428,0.000302,0.005126,-45.701172,50.454929,-3.236443,,,,,,
1465828368.45,3.069839,-0.047535,-1.441569,0.002764,0.147341,-0.002798,0.071611,0.047517,0.996300,-0.006334,0.000991,0.004997,-45.697990,50.449966,-3.356592,,,,,,
1465828368.46,3.071592,-0.047576,-1.441539,0.003862,0.173886,-0.002964,0.069865,0.047558,0.996422,-0.001231,0.000080,0.002388,-45.697990,50.449966,-3.356592,,,,,,
1465828368.48,3.075284,-0.047740,-1.441479,0.004956,0.197244,-0.003109,0.066184,0.047721,0.996666,0.009515,0.001397,-0.000190,-45.689827,50.446671,-3.513596,,,,,,
1465828368.47,3.073498,-0.047670,-1.441499,0.003887,0.191940,-0.004141,0.067965,0.047652,0.996549,0.001097,0.002412,0.001513,-45.689827,50.446671,-3.513596,,,,,,
1465828368.49,3.077031,-0.047859,-1.441456,0.007081,0.191936,-0.004138,0.064443,0.047841,0.996774,0.009775,0.002239,-0.002389,-45.689827,50.446671,-3.513596,,,,,,
1465828368.50,3.078578,-0.047931,-1.441438,0.003873,0.182377,-0.003017,0.062901,0.047912,0.996869,0.014919,0.001114,-0.004346,-45.689827,50.446671,-3.513596,,,,,,
1465828368.51,3.079928,-0.048007,-1.441422,0.002789,0.165390,-0.003976,0.061555,0.047988,0.996949,0.016539,0.001771,-0.004594,-45.670395,50.439709,-3.850039,,,,,,
1465828368.52,3.081044,-0.048064,-1.441408,0.001695,0.143088,-0.002772,0.060441,0.048045,0.997015,0.017211,0.001042,-0.003591,-45.670395,50.439709,-3.850039,,,,,,
1465828368.54,3.082040,-0.048159,-1.441423,0.001627,0.088931,-0.002432,0.059449,0.048140,0.997070,0.018356,-0.000182,-0.004715,-45.662682,50.437458,-3.969210,,,,,,
1465828368.53,3.081480,-0.048136,-1.441427,0.001664,0.118663,-0.002619,0.060007,0.048117,0.997038,0.018164,0.001031,-0.004636,-45.662682,50.437458,-3.969210,,,,,,
1465828368.55,3.082302,-0.048174,-1.441432,0.002655,0.061318,-0.001194,0.059187,0.048156,0.997085,0.018740,-0.000762,-0.006057,-45.662682,50.437458,-3.969210,,,,,,
1465828368.56,3.082317,-0.048173,-1.441440,0.001554,0.032648,-0.001015,0.059172,0.048154,0.997086,0.017320,-0.000470,-0.004196,-45.662682,50.437458,-3.969210,,,,,,
1465828368.57,3.082056,-0.048193,-1.441454,0.000452,0.002917,-0.000830,0.059432,0.048174,0.997069,0.016221,0.000471,-0.005950,-45.656277,50.438190,-4.032995,,,,,,
1465828368.58,3.081526,-0.048196,-1.441475,-0.000649,-0.024694,0.000407,0.059961,0.048178,0.997037,0.015967,-0.000173,-0.004209,-45.656277,50.438190,-4.032995,,,,,,
1465828368.59,3.080753,-0.048197,-1.441491,-0.001742,-0.049114,-0.000505,0.060731,0.048178,0.996991,0.015700,0.000452,-0.003949,-45.657753,50.439621,-3.998231,,,,,,
1465828368.61,3.078697,-0.048158,-1.441535,-0.002858,-0.086285,0.001855,0.062781,0.048140,0.996866,0.011483,0.000398,-0.003457,-45.657753,50.439621,-3.998231,,,,,,
1465828368.60,3.079784,-0.048177,-1.441512,-0.002836,-0.070354,0.000691,0.061698,0.048158,0.996932,0.014764,0.000090,-0.003387,-45.657753,50.439621,-3.998231,,,,,,
1465828368.62,3.077552,-0.048162,-1.441561,-0.000747,-0.101152,0.001951,0.063922,0.048143,0.996793,0.007489,0.001006,-0.002042,-45.657753,50.439621,-3.998231,,,,,,
1465828368.63,3.076358,-0.048175,-1.441586,-0.000759,-0.110709,0.002011,0.065113,0.048156,0.996715,0.004529,0.001008,-0.001552,-45.668816,50.443764,-3.815490,,,,,,
1465828368.64,3.075183,-0.048134,-1.441609,-0.002886,-0.108584,0.001995,0.066284,0.048115,0.996640,0.002838,-0.001362,-0.001965,-45.668816,50.443764,-3.815490,,,,,,
1465828368.65,3.074116,-0.048116,-1.441627,-0.002879,-0.103275,0.001962,0.067347,0.048097,0.996570,-0.000590,0.000243,-0.001803,-45.668816,50.443764,-3.815490,,,,,,
1465828368.66,3.073136,-0.048115,-1.441640,0.000324,-0.097965,0.000867,0.068324,0.048096,0.996503,-0.001307,0.000351,-0.000318,-45.675247,50.446091,-3.706141,,,,,,
1465828368.67,3.072319,-0.048082,-1.441644,-0.002851,-0.083098,0.000771,0.069138,0.048063,0.996449,-0.002442,-0.000440,0.000454,-45.675247,50.446091,-3.706141,,,,,,
1465828368.68,3.071718,-0.048110,-1.441651,-0.000701,-0.066110,0.000667,0.069737,0.048091,0.996405,-0.004887,0.002141,-0.003562,-45.681103,50.447628,-3.611848,,,,,,
1465828368.69,3.071294,-0.048124,-1.441661,-0.001746,-0.049123,0.001624,0.070160,0.048105,0.996375,-0.006393,0.001303,-0.000831,-45.681103,50.447628,-3.611848,,,,,,
1465828368.70,3.071045,-0.048173,-1.441666,0.001476,-0.028947,0.000436,0.070408,0.048154,0.996355,-0.004810,0.002352,0.001127,-45.681103,50.447628,-3.611848,,,,,,
1465828368.71,3.071037,-0.048144,-1.441665,-0.000620,-0.002400,0.000267,0.070416,0.048126,0.996356,-0.003735,-0.000716,0.009274,-45.687424,50.448441,-3.519392,,,,,,
1465828368.72,3.071149,-0.048123,-1.441670,-0.000606,0.010339,0.001252,0.070304,0.048104,0.996365,-0.002356,-0.001229,-0.004529,-45.687424,50.448441,-3.519392,,,,,,
1465828368.73,3.071494,-0.048140,-1.441668,0.000493,0.034766,-0.001029,0.069960,0.048122,0.996388,-0.003127,0.000890,0.005427,-45.687424,50.448441,-3.519392,,,,,,
1465828368.74,3.071986,-0.048132,-1.441656,0.000509,0.047508,-0.001109,0.069470,0.048114,0.996423,-0.001935,-0.001162,-0.003610,-45.687424,50.448441,-3.519392,,,,,,
1465828368.75,3.072503,-0.048195,-1.441647,0.001586,0.057063,-0.001168,0.068955,0.048177,0.996456,0.000869,0.001826,-0.000316,-45.684475,50.448246,-3.560272,,,,,,
1465828368.76,3.073157,-0.048225,-1.441625,0.001599,0.065561,-0.002286,0.068303,0.048206,0.996499,0.000225,0.000668,0.000785,-45.684475,50.448246,-3.560272,,,,,,
1465828368.77,3.073713,-0.048320,-1.441613,0.003722,0.060250,-0.002250,0.067748,0.048301,0.996533,0.002839,0.002862,-0.006970,-45.684475,50.448246,-3.560272,,,,,,
1465828368.78,3.074253,-0.048324,-1.441603,0.002667,0.067683,-0.002298,0.067210,0.048305,0.996569,0.007604,-0.000729,0.004347,-45.682140,50.446224,-3.618283,,,,,,
1465828368.79,3.074766,-0.048330,-1.441593,0.001592,0.061309,-0.001195,0.066699,0.048311,0.996603,0.006726,-0.000505,-0.004339,-45.682140,50.446224,-3.618283,,,,,,
1465828368.80,3.075197,-0.048323,-1.441598,-0.001608,0.058121,-0.000113,0.066270,0.048304,0.996632,0.008514,0.000204,-0.000279,-45.682140,50.446224,-3.618283,,,,,,
1465828368.81,3.075532,-0.048312,-1.441589,-0.001619,0.046447,-0.002169,0.065936,0.048293,0.996655,0.008695,-0.000319,-0.005810,-45.676357,50.444347,-3.716223,,,,,,
1465828368.82,3.075739,-0.048302,-1.441586,-0.002700,0.036884,0.000019,0.065729,0.048284,0.996669,0.009466,0.000255,-0.002803,-45.676357,50.444347,-3.716223,,,,,,
1465828368.83,3.075807,-0.048292,-1.441590,-0.000593,0.018832,0.000134,0.065662,0.048273,0.996674,0.008419,-0.000773,-0.005676,-45.674881,50.443932,-3.739902,,,,,,
1465828368.84,3.075721,-0.048355,-1.441600,0.000456,0.006089,0.000215,0.065747,0.048337,0.996665,0.008075,0.002353,-0.005027,-45.674881,50.443932,-3.739902,,,,,,
1465828368.85,3.075524,-0.048365,-1.441600,0.000440,-0.008774,-0.000756,0.065943,0.048347,0.996651,0.007711,0.000207,-0.001931,-45.674881,50.443932,-3.739902,,,,,,
1465828368.86,3.075241,-0.048397,-1.441598,-0.001703,-0.019392,-0.000692,0.066225,0.048379,0.996631,0.006773,0.002479,-0.003360,-45.674408,50.444218,-3.741822,,,,,,
1465828368.87,3.074825,-0.048405,-1.441610,0.000414,-0.027891,0.000428,0.066640,0.048386,0.996603,0.007609,0.000060,-0.003546,-45.674408,50.444218,-3.741822,,,,,,
1465828368.88,3.074401,-0.048422,-1.441618,0.000402,-0.035456,0.000472,0.067062,0.048403,0.996574,0.003968,0.000593,-0.002830,-45.674408,50.444218,-3.741822,,,,,,
1465828368.89,3.073897,-0.048391,-1.441645,-0.000673,-0.039709,0.002627,0.067565,0.048372,0.996542,0.006287,-0.001466,0.001429,-45.678616,50.444588,-3.684998,,,,,,
1465828368.90,3.073385,-0.048407,-1.441653,0.000391,-0.043951,0.000526,0.068075,0.048388,0.996506,0.003534,0.000852,-0.002503,-45.678616,50.444588,-3.684998,,,,,,
1465828368.91,3.072902,-0.048390,-1.441667,0.001452,-0.045017,0.001598,0.068556,0.048371,0.996474,0.001711,-0.001420,-0.001204,-45.678616,50.444588,-3.684998,,,,,,
1465828368.92,3.072527,-0.048404,-1.441676,0.000397,-0.037584,0.001550,0.068930,0.048385,0.996447,-0.000769,0.000596,0.000516,-45.678616,50.444588,-3.684998,,,,,,
1465828368.93,3.072171,-0.048419,-1.441687,0.001466,-0.034399,0.001531,0.069284,0.048400,0.996422,-0.000101,0.000764,-0.003502,-45.682449,50.447342,-3.598767,,,,,,
1465828368.94,3.071925,-0.048442,-1.441701,0.000415,-0.023780,0.001464,0.069529,0.048423,0.996404,-0.001628,0.000879,0.002040,-45.682449,50.447342,-3.598767,,,,,,
1465828368.96,3.071748,-0.048487,-1.441719,0.000439,-0.004667,0.001344,0.069706,0.048468,0.996389,-0.003529,-0.000571,0.001154,-45.683517,50.448185,-3.573331,,,,,,
1465828368.95,3.071778,-0.048490,-1.441708,-0.000637,-0.015282,0.000345,0.069676,0.048471,0.996391,-0.002110,0.002585,-0.003197,-45.683517,50.448185,-3.573331,,,,,,
1465828368.97,3.071812,-0.048490,-1.441720,-0.001677,0.004893,0.000217,0.069642,0.048471,0.996394,-0.002030,0.000205,0.000142,-45.683517,50.448185,-3.573331,,,,,,
1465828368.98,3.071915,-0.048517,-1.441727,0.000460,0.012322,0.001237,0.069540,0.048498,0.996400,0.000330,0.001291,0.000167,-45.683517,50.448185,-3.573331,,,,,,
1465828368.99,3.072085,-0.048489,-1.441735,-0.000592,0.020820,0.000118,0.069370,0.048470,0.996413,0.001064,-0.001458,0.000597,-45.682472,50.448883,-3.576803,,,,,,
1465828369.00,3.072296,-0.048517,-1.441726,0.000477,0.021884,-0.000952,0.069159,0.048498,0.996426,0.000329,0.001078,-0.003125,-45.682472,50.448883,-3.576803,,,,,,
1465828369.01,3.072537,-0.048525,-1.441724,0.002613,0.029312,0.000068,0.068920,0.048506,0.996442,0.001637,-0.000685,0.000353,-40.815159,60.334354,8.609200,,,,,,
1465828369.02,3.072779,-0.048550,-1.441723,0.000486,0.029316,-0.000998,0.068678,0.048531,0.996458,0.003130,0.000983,-0.002836,-40.815159,60.334354,8.609200,,,,,,
1465828369.03,3.073047,-0.048571,-1.441725,0.000485,0.030375,0.000060,0.068411,0.048552,0.996475,0.001825,0.000871,-0.000229,-40.815159,60.334354,8.609200,,,,,,
1465828369.04,3.073274,-0.048581,-1.441723,-0.000581,0.027192,-0.000986,0.068185,0.048562,0.996490,0.003547,0.000968,-0.004669,-40.819653,60.334412,8.587494,,,,,,
1465828369.05,3.073430,-0.048552,-1.441712,-0.001648,0.024010,-0.002032,0.068030,0.048533,0.996502,0.005060,-0.001444,-0.002331,-40.819653,60.334412,8.587494,,,,,,
1465828369.06,3.073581,-0.048526,-1.441710,-0.000593,0.017636,-0.000926,0.067880,0.048507,0.996514,0.002662,-0.001190,-0.001351,-40.819653,60.334412,8.587494,,,,,,
1465828369.08,3.073650,-0.048518,-1.441715,0.000455,0.005952,0.000213,0.067810,0.048499,0.996519,0.003341,-0.000937,-0.002500,-40.827202,60.333733,8.556294,,,,,,
1465828369.07,3.073626,-0.048534,-1.441710,0.000462,0.011261,0.000179,0.067835,0.048515,0.996516,0.004904,0.000314,-0.002696,-40.827202,60.333733,8.556294,,,,,,
1465828369.09,3.073576,-0.048536,-1.441722,0.000446,-0.002540,-0.000799,0.067884,0.048517,0.996513,0.003817,0.000403,-0.001655,-40.827202,60.333733,8.556294,,,,,,
1465828369.10,3.073414,-0.048547,-1.441730,-0.000626,-0.006790,0.000292,0.068046,0.048528,0.996501,0.006417,0.000636,-0.001674,-40.827427,60.333920,8.553927,,,,,,
1465828369.11,3.073264,-0.048592,-1.441735,0.000433,-0.012100,0.000326,0.068195,0.048573,0.996489,0.001981,0.002208,-0.002425,-40.827427,60.333920,8.553927,,,,,,
1465828369.12,3.073061,-0.048582,-1.441726,-0.000634,-0.015282,-0.000720,0.068397,0.048563,0.996476,0.002968,-0.000666,-0.002457,-40.827427,60.333920,8.553927,,,,,,
1465828369.14,3.072625,-0.048622,-1.441737,0.000426,-0.017410,0.000359,0.068832,0.048602,0.996444,0.001954,0.000470,-0.000518,-40.822029,60.334713,8.574062,,,,,,
1465828369.13,3.072841,-0.048609,-1.441731,-0.000640,-0.018471,0.000365,0.068616,0.048590,0.996459,0.002261,0.001749,-0.003554,-40.822029,60.334713,8.574062,,,,,,
1465828369.15,3.072406,-0.048635,-1.441731,-0.002762,-0.014220,-0.000728,0.069050,0.048616,0.996428,0.003521,0.001585,-0.003249,-40.822029,60.334713,8.574062,,,,,,
1465828369.16,3.072234,-0.048640,-1.441735,-0.001697,-0.014221,-0.000727,0.069221,0.048620,0.996416,0.001518,0.001474,-0.001466,-40.817787,60.335392,8.589409,,,,,,
1465828369.17,3.072072,-0.048627,-1.441734,0.000433,-0.014222,-0.000725,0.069383,0.048608,0.996405,0.000960,-0.000726,-0.001471,-40.817787,60.335392,8.589409,,,,,,
1465828369.19,3.071870,-0.048572,-1.441739,0.000440,-0.006792,0.000293,0.069584,0.048553,0.996394,-0.000812,-0.001678,-0.000254,-40.814613,60.335423,8.604307,,,,,,
1465828369.18,3.071925,-0.048608,-1.441738,-0.000631,-0.012101,0.000325,0.069529,0.048589,0.996396,0.001073,-0.000752,-0.000363,-40.814613,60.335423,8.604307,,,,,,
1465828369.20,3.071830,-0.048567,-1.441737,-0.000616,-0.001480,-0.000806,0.069624,0.048548,0.996391,0.000887,0.000067,0.000542,-40.814613,60.335423,8.604307,,,,,,
1465828369.21,3.071839,-0.048576,-1.441734,-0.000614,0.001702,0.000238,0.069615,0.048557,0.996391,0.000133,0.000515,-0.000878,-40.814613,60.335423,8.604307,,,,,,
1465828369.23,3.071975,-0.048606,-1.441733,-0.000604,0.008076,-0.000866,0.069479,0.048587,0.996400,0.000284,0.000241,-0.002534,-40.810699,60.335094,8.625134,,,,,,
1465828369.22,3.071901,-0.048601,-1.441731,-0.000605,0.007014,-0.000859,0.069553,0.048582,0.996395,0.000195,0.001772,-0.000331,-40.810699,60.335094,8.625134,,,,,,
1465828369.24,3.072088,-0.048585,-1.441734,-0.000604,0.011256,0.001243,0.069367,0.048565,0.996408,-0.000351,-0.000988,-0.001871,-40.810699,60.335094,8.625134,,,,,,
1465828369.25,3.072215,-0.048567,-1.441741,-0.000599,0.013382,0.000165,0.069240,0.048548,0.996418,0.000508,-0.000650,0.000042,-40.813175,60.335079,8.613569,,,,,,
1465828369.26,3.072333,-0.048552,-1.441739,0.000466,0.013382,0.000166,0.069122,0.048533,0.996427,0.000351,-0.001811,-0.001066,-40.813175,60.335079,8.613569,,,,,,
1465828369.28,3.072500,-0.048590,-1.441724,-0.000601,0.010199,-0.000879,0.068956,0.048571,0.996437,0.003340,0.000593,-0.000633,-40.814877,60.335075,8.605464,,,,,,
1465828369.27,3.072444,-0.048580,-1.441725,0.000465,0.011261,-0.000885,0.069013,0.048561,0.996433,0.000522,0.001228,-0.001438,-40.814877,60.335075,8.605464,,,,,,
1465828369.29,3.072522,-0.048569,-1.441729,0.000456,0.005949,0.000213,0.068935,0.048550,0.996439,0.002888,-0.001522,-0.000498,-40.814877,60.335075,8.605464,,,,,,
1465828369.30,3.072576,-0.048560,-1.441732,0.000458,0.007010,0.000206,0.068881,0.048541,0.996443,0.001218,-0.000842,-0.001280,-40.817322,60.334709,8.596456,,,,,,
1465828369.32,3.072571,-0.048557,-1.441724,0.000452,0.000642,-0.000819,0.068886,0.048538,0.996443,0.001396,-0.000106,0.000139,-40.817322,60.334709,8.596456,,,,,,
1465828369.31,3.072583,-0.048559,-1.441726,-0.000609,0.003828,-0.000840,0.068874,0.048540,0.996444,0.002659,0.000151,-0.002914,-40.817322,60.334709,8.596456,,,,,,
1465828369.33,3.072539,-0.048530,-1.441727,-0.001681,-0.000422,0.000250,0.068917,0.048511,0.996442,0.002357,-0.000339,-0.002714,-40.817322,60.334709,8.596456,,,,,,
1465828369.34,3.072476,-0.048518,-1.441731,-0.000618,-0.003605,-0.000793,0.068980,0.048499,0.996438,0.002050,-0.000113,-0.001626,-40.817810,60.334507,8.595596,,,,,,
1465828369.35,3.072400,-0.048515,-1.441719,-0.000621,-0.005729,-0.000780,0.069056,0.048496,0.996433,0.001501,-0.000080,0.001278,-40.817810,60.334507,8.595596,,,,,,
1465828369.36,3.072313,-0.048485,-1.441712,0.000444,-0.005730,-0.000779,0.069143,0.048466,0.996429,0.002344,-0.001148,-0.000518,-40.817810,60.334507,8.595596,,,,,,
1465828369.37,3.072240,-0.048481,-1.441710,0.000442,-0.005733,0.000286,0.069216,0.048462,0.996424,0.000852,-0.000198,-0.000254,-40.816006,60.333595,8.610538,,,,,,
1465828369.38,3.072179,-0.048497,-1.441719,0.000440,-0.005736,0.001350,0.069277,0.048478,0.996419,-0.000261,0.000335,-0.001073,-40.816006,60.333595,8.610538,,,,,,
1465828369.39,3.072122,-0.048508,-1.441728,0.000440,-0.005736,0.001350,0.069334,0.048489,0.996414,0.000399,0.000339,-0.001938,-40.814480,60.333946,8.615243,,,,,,
1465828369.40,3.072086,-0.048526,-1.441730,-0.000621,-0.004670,0.000278,0.069369,0.048507,0.996411,-0.000232,0.001283,-0.002484,-40.814480,60.333946,8.615243,,,,,,
1465828369.41,3.072036,-0.048515,-1.441729,0.001512,-0.003607,-0.000791,0.069419,0.048496,0.996408,0.000741,-0.000949,-0.000559,-40.814480,60.333946,8.615243,,,,,,
1465828369.43,3.071967,-0.048501,-1.441731,-0.000616,0.000635,0.001309,0.069487,0.048482,0.996404,0.001634,-0.000996,-0.000310,-40.813133,60.334579,8.617234,,,,,,
1465828369.42,3.071989,-0.048524,-1.441722,0.000450,-0.001483,-0.000805,0.069465,0.048505,0.996404,0.001473,0.000201,-0.001257,-40.813133,60.334579,8.617234,,,,,,
1465828369.44,3.071993,-0.048467,-1.441727,-0.000611,0.001703,-0.000826,0.069462,0.048448,0.996407,-0.000294,-0.001375,-0.002023,-40.813133,60.334579,8.617234,,,,,,
1465828369.45,3.072011,-0.048486,-1.441725,0.000454,0.003823,0.000226,0.069444,0.048467,0.996408,0.000762,0.000697,-0.001809,-40.812279,60.334106,8.624559,,,,,,
1465828369.46,3.072044,-0.048483,-1.441722,-0.000613,0.001700,0.000238,0.069411,0.048464,0.996410,-0.000579,-0.000415,-0.000164,-40.812279,60.334106,8.624559,,,,,,
1465828369.47,3.072054,-0.048512,-1.441714,0.000454,0.001702,-0.000825,0.069400,0.048493,0.996410,-0.000003,0.001312,-0.001353,-40.812279,60.334106,8.624559,,,,,,
1465828369.48,3.072053,-0.048511,-1.441717,-0.000614,0.000638,0.000245,0.069402,0.048492,0.996409,0.000987,-0.000076,-0.001659,-44.184261,50.608219,9.153503,,,,,,
1465828369.49,3.072063,-0.048536,-1.441715,0.001520,0.002764,-0.000831,0.069392,0.048517,0.996409,0.000219,0.000723,-0.003199,-44.184261,50.608219,9.153503,,,,,,
1465828369.50,3.072143,-0.048521,-1.441716,-0.000609,0.005944,0.001276,0.069312,0.048502,0.996415,-0.000327,-0.000376,0.003386,-44.184261,50.608219,9.153503,,,,,,
1465828369.51,3.072151,-0.048566,-1.441719,0.000451,0.000638,0.000246,0.069304,0.048547,0.996414,-0.000625,0.002280,-0.008331,-44.184261,50.608219,9.153503,,,,,,
1465828369.53,3.072161,-0.048547,-1.441721,0.002577,-0.002549,0.000268,0.069294,0.048528,0.996415,0.001003,-0.000875,-0.002580,-44.185574,50.608200,9.147236,,,,,,
1465828369.52,3.072185,-0.048544,-1.441722,-0.001672,0.005948,0.000210,0.069270,0.048525,0.996417,0.001012,-0.001131,0.001676,-44.185574,50.608200,9.147236,,,,,,
1465828369.54,3.072166,-0.048549,-1.441719,0.000455,0.003823,0.000226,0.069289,0.048530,0.996416,0.000810,-0.000022,-0.003084,-44.185776,50.608570,9.144186,,,,,,
1465828369.55,3.072135,-0.048520,-1.441734,-0.000620,-0.002551,0.001329,0.069320,0.048501,0.996415,0.001741,-0.002038,0.003250,-44.185776,50.608570,9.144186,,,,,,
1465828369.56,3.072105,-0.048565,-1.441731,0.000452,-0.000422,-0.000812,0.069350,0.048546,0.996410,-0.000228,0.002281,-0.007595,-44.185776,50.608570,9.144186,,,,,,
1465828369.58,3.072074,-0.048573,-1.441733,0.002579,-0.002546,-0.000797,0.069381,0.048554,0.996408,0.000687,-0.000077,-0.004846,-44.184631,50.609135,9.146641,,,,,,
1465828369.57,3.072111,-0.048550,-1.441734,-0.002740,0.002762,0.000229,0.069343,0.048531,0.996412,0.001183,-0.000023,0.003588,-44.184631,50.609135,9.146641,,,,,,
1465828369.59,3.072071,-0.048599,-1.441731,0.001516,0.000636,0.000247,0.069383,0.048580,0.996406,0.000517,0.000934,0.000008,-44.184631,50.609135,9.146641,,,,,,
1465828369.61,3.072066,-0.048563,-1.441731,-0.000610,0.001702,-0.000826,0.069389,0.048544,0.996408,-0.000068,0.000346,-0.001474,-44.184280,50.609268,9.147576,,,,,,
1465828369.60,3.072049,-0.048567,-1.441735,-0.000616,-0.001486,0.000258,0.069406,0.048548,0.996406,0.000495,-0.002009,-0.003410,-44.184280,50.609268,9.147576,,,,,,
1465828369.62,3.072014,-0.048549,-1.441740,-0.001684,-0.002550,0.001328,0.069441,0.048530,0.996405,0.001482,-0.000740,-0.000647,-44.184280,50.609268,9.147576,,,,,,
1465828369.63,3.072016,-0.048603,-1.441732,0.000456,0.000643,-0.001883,0.069438,0.048583,0.996403,-0.000209,0.002732,-0.002125,-44.184280,50.609268,9.147576,,,,,,
1465828369.64,3.072021,-0.048623,-1.441731,0.001516,0.001695,0.001305,0.069433,0.048604,0.996402,0.001093,0.000301,0.000531,-44.183308,50.609425,9.151402,,,,,,
1465828369.65,3.072019,-0.048663,-1.441728,-0.000610,0.000640,-0.000820,0.069435,0.048644,0.996400,0.000618,0.002550,-0.003312,-44.183308,50.609425,9.151402,,,,,,
1465828369.66,3.072008,-0.048689,-1.441733,0.001517,0.000636,0.000247,0.069446,0.048670,0.996398,0.001568,0.000936,-0.001021,-44.183308,50.609425,9.151402,,,,,,
1465828369.67,3.072006,-0.048743,-1.441731,0.001519,0.001698,0.000240,0.069448,0.048724,0.996395,0.000605,0.002439,-0.003094,-44.184101,50.609955,9.144621,,,,,,
1465828369.68,3.072024,-0.048740,-1.441734,0.000454,0.001698,0.000239,0.069430,0.048721,0.996396,0.000257,-0.000488,-0.000577,-44.184101,50.609955,9.144621,,,,,,
1465828369.69,3.072040,-0.048749,-1.441725,-0.001672,0.000643,-0.001885,0.069414,0.048730,0.996397,-0.000612,0.000816,-0.001051,-44.184357,50.610321,9.141361,,,,,,
1465828369.70,3.072031,-0.048748,-1.441724,0.000455,0.000639,-0.000819,0.069423,0.048729,0.996396,0.000203,-0.001030,-0.001050,-44.184357,50.610321,9.141361,,,,,,
1465828369.71,3.072051,-0.048733,-1.441725,-0.001674,0.002761,0.000230,0.069403,0.048713,0.996399,0.000146,0.000084,-0.000335,-44.184357,50.610321,9.141361,,,,,,
1465828369.72,3.072085,-0.048733,-1.441726,-0.000609,0.002761,0.000231,0.069370,0.048713,0.996401,-0.000903,0.000527,-0.003374,-44.184978,50.609898,9.140696,,,,,,
1465828369.73,3.072084,-0.048725,-1.441729,0.000453,0.000636,0.000246,0.069370,0.048705,0.996401,-0.000232,-0.000732,0.000165,-44.184978,50.609898,9.140696,,,,,,
1465828369.74,3.072073,-0.048760,-1.441721,0.000454,-0.000422,-0.000812,0.069381,0.048740,0.996399,-0.000319,0.001385,-0.001358,-44.184978,50.609898,9.140696,,,,,,
1465828369.76,3.072038,-0.048777,-1.441717,-0.000612,-0.001484,-0.000806,0.069416,0.048758,0.996396,-0.000187,0.000971,-0.001034,-44.185543,50.609852,9.138247,,,,,,
1465828369.75,3.072051,-0.048760,-1.441720,0.000453,0.000636,0.000246,0.069403,0.048741,0.996397,0.001642,-0.000600,-0.000929,-44.185543,50.609852,9.138247,,,,,,
1465828369.77,3.072026,-0.048784,-1.441715,0.000453,0.000636,0.000246,0.069428,0.048765,0.996394,0.000763,0.000445,-0.000285,-44.185543,50.609852,9.138247,,,,,,
1465828369.78,3.071994,-0.048805,-1.441725,0.001517,-0.000426,0.000253,0.069460,0.048785,0.996391,0.000898,-0.000049,-0.001152,-44.185459,50.609798,9.138951,,,,,,
1465828369.79,3.071997,-0.048791,-1.441717,0.000455,0.000639,-0.000819,0.069457,0.048772,0.996392,0.000307,-0.000935,-0.003213,-44.185459,50.609798,9.138951,,,,,,
1465828369.80,3.071972,-0.048807,-1.441722,0.000453,0.000636,0.000246,0.069481,0.048788,0.996390,0.001472,0.000651,-0.000631,-44.185459,50.609798,9.138951,,,,,,
1465828369.81,3.071985,-0.048830,-1.441718,-0.000610,0.001698,0.000238,0.069469,0.048811,0.996389,-0.000240,0.001574,-0.003118,-44.185459,50.609798,9.138951,,,,,,
1465828369.83,3.071980,-0.048880,-1.441719,0.000453,-0.000426,0.000252,0.069474,0.048860,0.996387,0.000625,0.000853,-0.000964,-44.184757,50.610161,9.140320,,,,,,
1465828369.82,3.072007,-0.048860,-1.441715,0.000456,0.000639,-0.000819,0.069447,0.048841,0.996389,-0.000752,0.001040,-0.002447,-44.184757,50.610161,9.140320,,,,,,
1465828369.84,3.071986,-0.048896,-1.441711,0.000456,0.000639,-0.000819,0.069467,0.048876,0.996386,0.000357,0.001279,-0.000033,-44.184757,50.610161,9.140320,,,,,,
1465828369.85,3.071987,-0.048886,-1.441713,-0.000612,-0.000425,0.000251,0.069466,0.048866,0.996387,-0.000130,-0.000618,-0.001727,-44.185745,50.610210,9.135298,,,,,,
1465828369.86,3.071975,-0.048902,-1.441711,-0.000610,0.000636,0.000245,0.069479,0.048883,0.996385,0.000666,0.000907,-0.002107,-44.185745,50.610210,9.135298,,,,,,
1465828369.87,3.071983,-0.048860,-1.441713,-0.000609,0.001698,0.000238,0.069470,0.048841,0.996388,-0.000608,-0.002546,-0.002354,-44.185745,50.610210,9.135298,,,,,,
1465828369.88,3.072012,-0.048889,-1.441715,0.000458,0.001543,-0.000828,0.069441,0.048869,0.996388,-0.000426,0.000356,-0.000996,-44.185650,50.610260,9.135475,,,,,,
1465828369.89,3.072031,-0.048888,-1.441723,-0.000608,0.001541,0.000235,0.069423,0.048869,0.996390,-0.000926,-0.000636,-0.001135,-44.185650,50.610260,9.135475,,,,,,
1465828369.90,3.072024,-0.048887,-1.441720,0.000457,0.000481,-0.000822,0.069429,0.048868,0.996389,0.000669,-0.000040,-0.000387,-44.185738,50.610359,9.134481,,,,,,
1465828369.91,3.072031,-0.048876,-1.441723,-0.000608,0.001541,0.000235,0.069422,0.048857,0.996390,0.000616,-0.000410,-0.002616,-44.185738,50.610359,9.134481,,,,,,
1465828369.92,3.072060,-0.048860,-1.441713,-0.000608,0.000482,-0.000823,0.069394,0.048841,0.996393,-0.001401,-0.000333,-0.000360,-44.185738,50.610359,9.134481,,,,,,
1465828369.93,3.072041,-0.048857,-1.441721,-0.001676,0.000476,0.001305,0.069413,0.048837,0.996392,0.002273,0.001105,-0.001153,-44.186188,50.610088,9.133821,,,,,,
1465828369.95,3.072016,-0.048796,-1.441716,-0.002738,0.001541,0.000233,0.069438,0.048777,0.996393,0.000707,-0.001337,-0.000696,-44.186188,50.610088,9.133821,,,,,,
1465828369.94,3.072013,-0.048840,-1.441720,0.001521,-0.000581,-0.000814,0.069441,0.048821,0.996391,0.001695,-0.001259,0.000451,-44.186188,50.610088,9.133821,,,,,,
1465828369.96,3.072026,-0.048792,-1.441717,-0.000610,0.000478,0.000242,0.069428,0.048773,0.996394,-0.000504,-0.000006,-0.002513,-44.186188,50.610088,9.133821,,,,,,
1465828369.97,3.072015,-0.048819,-1.441715,0.001517,-0.001646,0.000257,0.069439,0.048800,0.996392,-0.000088,0.000929,-0.001473,-44.185410,50.609886,9.138730,,,,,,
1465828369.98,3.072026,-0.048829,-1.441723,0.000457,0.001540,0.000236,0.069427,0.048809,0.996392,0.000153,0.000309,-0.000634,-44.185410,50.609886,9.138730,,,,,,
1465828369.99,3.072009,-0.048856,-1.441716,0.000456,-0.000581,-0.000815,0.069444,0.048836,0.996390,0.000487,0.001152,-0.003027,-44.185410,50.609886,9.138730,,,,,,
1465828370.00,3.072029,-0.048867,-1.441707,0.000458,0.000481,-0.000822,0.069424,0.048847,0.996391,-0.000607,0.000637,-0.000526,-44.185238,50.610378,9.136827,,,,,,
1465828370.01,3.072039,-0.048873,-1.441705,0.001520,0.000477,0.000244,0.069415,0.048854,0.996391,-0.000323,-0.000255,-0.000999,-44.185238,50.610378,9.136827,,,,,,
1465828370.02,3.072021,-0.048857,-1.441714,-0.000611,0.000475,0.001306,0.069432,0.048837,0.996391,0.001491,-0.000971,-0.001502,-44.185238,50.610378,9.136827,,,,,,
1465828370.03,3.071998,-0.048836,-1.441722,-0.000611,0.000475,0.001306,0.069455,0.048817,0.996390,0.001254,-0.000889,-0.001029,-44.185764,50.610126,9.135674,,,,,,
1465828370.04,3.072045,-0.048834,-1.441728,-0.000608,0.001540,0.000235,0.069409,0.048815,0.996393,-0.002484,0.000273,-0.000025,-44.185764,50.610126,9.135674,,,,,,
1465828370.05,3.072046,-0.048849,-1.441730,0.000455,-0.000584,0.000249,0.069408,0.048829,0.996393,-0.000667,0.000456,-0.003229,-44.185764,50.610126,9.135674,,,,,,
1465828370.06,3.072033,-0.048848,-1.441723,0.002585,-0.001644,-0.000806,0.069421,0.048828,0.996392,0.000373,-0.000763,-0.001168,-44.185211,50.610600,9.135727,,,,,,
1465828370.07,3.072033,-0.048842,-1.441715,-0.001669,0.002605,-0.000837,0.069421,0.048823,0.996392,0.000251,-0.000651,-0.000771,-44.185211,50.610600,9.135727,,,,,,
1465828370.08,3.072019,-0.048867,-1.441713,0.001522,-0.000582,-0.000814,0.069435,0.048847,0.996390,0.000100,0.000774,-0.001257,-44.185211,50.610600,9.135727,,,,,,
1465828370.09,3.072016,-0.048874,-1.441717,0.001519,0.000474,0.001308,0.069438,0.048855,0.996389,0.000737,-0.000484,-0.000692,-44.185799,50.610161,9.135306,,,,,,
1465828370.10,3.071987,-0.048865,-1.441711,0.002585,-0.001644,-0.000806,0.069466,0.048846,0.996388,0.000862,-0.001589,-0.002476,-44.185799,50.610161,9.135306,,,,,,
1465828370.11,3.072004,-0.048875,-1.441708,0.001522,-0.000582,-0.000814,0.069450,0.048856,0.996388,-0.000724,0.000262,-0.000554,-44.185799,50.610161,9.135306,,,,,,
1465828370.12,3.072024,-0.048851,-1.441711,0.000456,0.000478,0.000243,0.069430,0.048831,0.996391,-0.000948,-0.002048,-0.000129,-44.185608,50.610054,9.136777,,,,,,
1465828370.13,3.072019,-0.048853,-1.441703,0.000458,0.000481,-0.000822,0.069435,0.048833,0.996391,0.000237,-0.000249,-0.001289,-44.185608,50.610054,9.136777,,,,,,
1465828370.14,3.072013,-0.048851,-1.441712,0.002581,-0.002709,0.000265,0.069441,0.048832,0.996390,0.000551,-0.000660,-0.000464,-44.185608,50.610054,9.136777,,,,,,
1465828370.15,3.072048,-0.048842,-1.441713,0.000458,0.000481,-0.000822,0.069406,0.048822,0.996393,-0.000894,0.000052,-0.000864,-44.185768,50.610001,9.136344,,,,,,
1465828370.16,3.072064,-0.048867,-1.441710,0.000459,0.002601,0.000229,0.069390,0.048848,0.996393,0.000068,0.001109,-0.002832,-44.185768,50.610001,9.136344,,,,,,
1465828370.17,3.072076,-0.048856,-1.441712,-0.000610,-0.000584,0.000248,0.069377,0.048836,0.996394,-0.000209,-0.000374,-0.001064,-44.185768,50.610001,9.136344,,,,,,
1465828370.18,3.072105,-0.048871,-1.441709,0.000458,0.000481,-0.000822,0.069348,0.048852,0.996396,-0.001218,0.000541,-0.001523,-44.186375,50.610023,9.133280,,,,,,
1465828370.19,3.072100,-0.048844,-1.441722,0.000456,0.000478,0.000243,0.069354,0.048825,0.996397,0.000531,-0.001187,-0.000440,-44.186375,50.610023,9.133280,,,,,,
1465828370.20,3.072115,-0.048846,-1.441718,0.000455,-0.000584,0.000249,0.069339,0.048827,0.996398,-0.001071,-0.000258,-0.001921,-44.186375,50.610023,9.133280,,,,,,
1465828370.21,3.072095,-0.048851,-1.441716,0.000454,-0.002705,-0.000802,0.069359,0.048832,0.996396,0.000236,-0.000019,-0.000317,-44.186367,50.610256,9.132027,,,,,,
1465828370.22,3.072088,-0.048843,-1.441714,0.000457,-0.000581,-0.000815,0.069366,0.048823,0.996396,0.000184,-0.000896,-0.002393,-44.186367,50.610256,9.132027,,,,,,
1465828370.23,3.072098,-0.048857,-1.441705,-0.000605,0.001543,-0.000830,0.069356,0.048838,0.996396,0.000255,0.001119,-0.001492,-44.186367,50.610256,9.132027,,,,,,
1465828370.24,3.072067,-0.048872,-1.441710,0.000455,-0.000584,0.000249,0.069387,0.048853,0.996393,0.001322,0.000204,-0.002481,-44.186329,50.610035,9.133438,,,,,,
1465828370.25,3.072057,-0.048895,-1.441707,0.001520,-0.000585,0.000250,0.069397,0.048875,0.996391,0.000336,0.001189,-0.003227,-44.186329,50.610035,9.133438,,,,,,
1465828370.26,3.072075,-0.048866,-1.441709,0.000459,0.002601,0.000229,0.069379,0.048847,0.996394,-0.000012,-0.001224,0.001882,-44.186329,50.610035,9.133438,,,,,,
1465828370.27,3.072071,-0.048916,-1.441711,0.000452,-0.003770,0.000269,0.069383,0.048897,0.996391,-0.001451,0.002709,-0.005546,-44.186520,50.609970,9.132855,,,,,,
1465828370.28,3.072066,-0.048935,-1.441724,0.000455,0.000475,0.001307,0.069387,0.048916,0.996390,-0.000631,0.000691,0.001871,-44.186520,50.609970,9.132855,,,,,,
1465828370.29,3.072094,-0.048939,-1.441720,0.000459,0.000481,-0.000822,0.069359,0.048920,0.996392,-0.001320,0.000091,-0.003884,-44.186520,50.609970,9.132855,,,,,,
1465828370.30,3.072074,-0.048965,-1.441718,0.000458,-0.000581,-0.000815,0.069380,0.048946,0.996389,0.000506,0.001530,-0.000783,-44.185940,50.611053,9.129687,,,,,,
1465828370.31,3.072093,-0.048943,-1.441721,0.002587,0.000477,0.000245,0.069360,0.048923,0.996391,-0.000284,-0.002567,-0.000481,-44.185940,50.611053,9.129687,,,,,,
1465828370.32,3.072033,-0.048977,-1.441726,0.000453,-0.002708,0.000263,0.069420,0.048958,0.996385,0.001137,0.001030,-0.002489,-44.185940,50.611053,9.129687,,,,,,
1465828370.33,3.072045,-0.048975,-1.441728,-0.000607,0.002599,0.001293,0.069408,0.048955,0.996386,0.000172,0.000194,-0.000293,-44.185673,50.611404,9.129007,,,,,,
1465828370.34,3.072067,-0.048989,-1.441724,0.000457,-0.001643,-0.000809,0.069386,0.048969,0.996387,-0.001836,0.000713,-0.003193,-44.185673,50.611404,9.129007,,,,,,
1465828370.35,3.072059,-0.048982,-1.441717,-0.000604,0.001543,-0.000830,0.069394,0.048963,0.996387,0.001178,-0.000318,0.001034,-44.185673,50.611404,9.129007,,,,,,
1465828370.36,3.072059,-0.048985,-1.441719,0.000456,-0.000584,0.000249,0.069395,0.048965,0.996387,0.000155,0.000107,-0.001926,-44.186127,50.611378,9.126949,,,,,,
1465828370.37,3.072091,-0.048976,-1.441714,-0.001670,0.001541,0.000234,0.069362,0.048956,0.996390,-0.001720,0.000055,-0.001410,-44.186127,50.611378,9.126949,,,,,,
1465828370.38,3.072102,-0.048971,-1.441717,0.000459,0.001540,0.000236,0.069352,0.048952,0.996391,0.000457,-0.000322,-0.001929,-44.186127,50.611378,9.126949,,,,,,
1465828370.39,3.072100,-0.048967,-1.441714,0.001520,-0.001646,0.000257,0.069353,0.048948,0.996391,-0.000200,-0.000471,0.000771,-44.186745,50.610958,9.126339,,,,,,
1465828370.40,3.072107,-0.048952,-1.441712,0.000460,0.000481,-0.000822,0.069347,0.048932,0.996392,0.000249,-0.000882,0.000480,-44.186745,50.610958,9.126339,,,,,,
1465828370.41,3.072090,-0.048960,-1.441704,0.000458,-0.002702,-0.001866,0.069363,0.048941,0.996390,-0.000119,0.000101,-0.002280,-44.186745,50.610958,9.126339,,,,,,
1465828370.42,3.072113,-0.048931,-1.441700,-0.000603,0.001543,-0.000830,0.069341,0.048911,0.996393,-0.000493,-0.001777,-0.001093,-44.186996,50.610592,9.127124,,,,,,
1465828370.43,3.072099,-0.048995,-1.441699,0.001520,-0.001646,0.000257,0.069354,0.048975,0.996389,-0.000080,0.002997,-0.003408,-44.186996,50.610592,9.127124,,,,,,
1465828370.44,3.072108,-0.048981,-1.441690,0.000459,-0.000581,-0.000815,0.069346,0.048961,0.996390,-0.000239,-0.000835,-0.000419,-44.186996,50.610592,9.127124,,,,,,
1465828370.45,3.072111,-0.048992,-1.441693,0.000460,0.001540,0.000236,0.069343,0.048973,0.996390,-0.000190,0.000450,0.000283,-44.188175,50.609810,9.125752,,,,,,
1465828370.46,3.072124,-0.048950,-1.441694,-0.000607,0.000478,0.000241,0.069330,0.048930,0.996393,-0.001398,-0.002666,-0.003992,-44.188175,50.609810,9.125752,,,,,,
1465828370.47,3.072144,-0.048917,-1.441685,-0.001669,0.000482,-0.000824,0.069309,0.048898,0.996396,-0.000660,-0.001336,-0.000897,-44.188175,50.609810,9.125752,,,,,,
1465828370.48,3.072170,-0.048944,-1.441681,0.000457,-0.000584,0.000249,0.069284,0.048925,0.996397,-0.001062,0.001521,-0.002439,-44.188011,50.609802,9.126581,,,,,,
1465828370.49,3.072191,-0.048950,-1.441668,0.003653,-0.002703,-0.001863,0.069263,0.048931,0.996398,-0.001896,-0.001262,-0.000197,-44.188011,50.609802,9.126581,,,,,,
1465828370.50,3.072194,-0.048968,-1.441659,0.000459,-0.000581,-0.000815,0.069259,0.048949,0.996397,-0.000778,0.000581,-0.003340,-44.189075,50.609173,9.124896,,,,,,
1465828370.52,3.072196,-0.049015,-1.441643,0.000457,-0.000583,0.000249,0.069258,0.048995,0.996395,-0.000944,0.000947,-0.000698,-44.189075,50.609173,9.124896,,,,,,
1465828370.51,3.072181,-0.048994,-1.441647,0.000463,0.000484,-0.001887,0.069272,0.048974,0.996395,-0.000242,0.000800,-0.001079,-44.189075,50.609173,9.124896,,,,,,
1465828370.53,3.072173,-0.049009,-1.441636,0.000459,-0.000581,-0.000815,0.069281,0.048990,0.996394,0.000620,-0.000406,-0.001673,-44.191441,50.607925,9.120378,,,,,,
1465828370.55,3.072185,-0.048998,-1.441625,0.000455,-0.002707,0.000262,0.069269,0.048978,0.996395,-0.000619,0.000537,-0.004269,-44.191441,50.607925,9.120378,,,,,,
1465828370.54,3.072196,-0.048981,-1.441622,0.001529,0.001545,-0.001892,0.069257,0.048961,0.996397,-0.000211,-0.001796,-0.001417,-44.191441,50.607925,9.120378,,,,,,
1465828370.56,3.072206,-0.049005,-1.441627,0.000459,0.000478,0.000242,0.069248,0.048985,0.996396,-0.001026,0.000102,-0.000958,-44.192390,50.606766,9.122221,,,,,,
1465828370.57,3.072160,-0.049012,-1.441631,-0.000609,-0.001645,0.000255,0.069293,0.048992,0.996393,0.001812,0.000004,-0.003351,-44.192390,50.606766,9.122221,,,,,,
1465828370.58,3.072188,-0.049005,-1.441622,0.000461,0.000481,-0.000822,0.069266,0.048986,0.996395,-0.001410,-0.000432,-0.000713,-44.192390,50.606766,9.122221,,,,,,
1465828370.59,3.072174,-0.049005,-1.441620,0.001523,-0.001643,-0.000808,0.069280,0.048986,0.996394,-0.000387,-0.000798,-0.003794,-44.192390,50.606766,9.122221,,,,,,
1465828370.60,3.072210,-0.049032,-1.441631,0.000457,0.000476,0.001307,0.069244,0.049012,0.996395,-0.002426,0.001158,0.001988,-44.192410,50.606903,9.121349,,,,,,
1465828370.61,3.072224,-0.049036,-1.441633,0.000458,-0.001642,-0.000809,0.069230,0.049016,0.996396,-0.000733,0.000163,-0.002438,-44.192410,50.606903,9.121349,,,,,,
1465828370.62,3.072255,-0.049024,-1.441634,0.000459,0.000479,0.000242,0.069198,0.049004,0.996399,-0.001358,-0.000725,-0.000961,-44.192223,50.607494,9.118990,,,,,,
1465828370.63,3.072249,-0.049015,-1.441626,-0.000605,-0.000580,-0.000817,0.069204,0.048995,0.996399,0.000406,-0.000152,0.000687,-44.192223,50.607494,9.118990,,,,,,
1465828370.64,3.072246,-0.049015,-1.441628,-0.000606,0.000479,0.000241,0.069208,0.048995,0.996398,0.000006,0.000230,-0.002349,-44.192223,50.607494,9.118990,,,,,,
1465828370.65,3.072244,-0.049033,-1.441620,-0.000603,0.000482,-0.000823,0.069210,0.049014,0.996397,-0.000210,0.001127,0.000032,-44.192642,50.607254,9.118282,,,,,,
1465828370.66,3.072232,-0.049010,-1.441617,0.000457,-0.001645,0.000256,0.069222,0.048990,0.996398,0.000145,-0.001520,-0.003142,-44.192642,50.607254,9.118282,,,,,,
1465828370.67,3.072213,-0.049016,-1.441615,-0.000607,-0.000583,0.000248,0.069241,0.048996,0.996396,0.000858,0.000457,0.000873,-44.192642,50.607254,9.118282,,,,,,
1465828370.68,3.072223,-0.049033,-1.441612,0.000460,-0.000580,-0.000816,0.069231,0.049014,0.996396,-0.000322,0.001356,-0.000562,-44.193050,50.606731,9.119198,,,,,,
1465828370.69,3.072238,-0.049052,-1.441613,0.001522,-0.001645,0.000257,0.069216,0.049033,0.996396,-0.001635,0.000512,-0.000760,-44.193050,50.606731,9.119198,,,,,,
1465828370.70,3.072238,-0.049083,-1.441616,0.000461,-0.000580,-0.000816,0.069216,0.049063,0.996395,-0.000536,0.001093,-0.002254,-44.193050,50.606731,9.119198,,,,,,
1465828370.71,3.072206,-0.049092,-1.441610,0.000462,0.000482,-0.000822,0.069247,0.049073,0.996392,0.000821,-0.000122,-0.001427,-44.193409,50.607124,9.115264,,,,,,
1465828370.72,3.072216,-0.049100,-1.441612,0.000459,-0.000583,0.000249,0.069237,0.049080,0.996392,-0.000924,0.000191,0.000266,-44.193409,50.607124,9.115264,,,,,,
1465828370.73,3.072231,-0.049088,-1.441613,-0.000605,0.000479,0.000241,0.069222,0.049068,0.996394,-0.000298,0.000004,-0.000071,-44.193409,50.607124,9.115264,,,,,,
1465828370.74,3.072221,-0.049106,-1.441611,0.000464,0.001544,-0.000829,0.069232,0.049086,0.996392,0.000470,0.000688,-0.001306,-44.193409,50.607124,9.115264,,,,,,
1465828370.75,3.072233,-0.049111,-1.441613,0.001524,-0.000583,0.000250,0.069220,0.049091,0.996393,-0.001258,-0.000401,-0.002634,-44.193604,50.607029,9.114867,,,,,,
1465828370.76,3.072256,-0.049111,-1.441610,0.000464,0.001544,-0.000829,0.069197,0.049091,0.996394,-0.000822,-0.000049,-0.000926,-44.193604,50.607029,9.114867,,,,,,
1465828370.77,3.072297,-0.049130,-1.441605,0.000462,0.000482,-0.000822,0.069156,0.049111,0.996396,-0.001575,0.001152,-0.001233,-44.194008,50.606995,9.113077,,,,,,
1465828370.78,3.072308,-0.049109,-1.441592,0.000462,0.000482,-0.000822,0.069146,0.049089,0.996398,-0.000665,-0.001665,-0.000930,-44.194008,50.606995,9.113077,,,,,,
1465828370.79,3.072335,-0.049095,-1.441582,0.000464,0.000485,-0.001887,0.069119,0.049075,0.996401,-0.001386,-0.000918,-0.001421,-44.194008,50.606995,9.113077,,,,,,
1465828370.80,3.072338,-0.049116,-1.441586,0.001524,-0.000583,0.000250,0.069115,0.049096,0.996400,-0.000085,0.000281,-0.001847,-44.195366,50.606190,9.110999,,,,,,
1465828370.82,3.072361,-0.049138,-1.441591,0.001525,0.000479,0.000243,0.069092,0.049118,0.996400,-0.000428,-0.000122,-0.002321,-44.195366,50.606190,9.110999,,,,,,
1465828370.81,3.072352,-0.049123,-1.441587,-0.000605,-0.001641,-0.000810,0.069102,0.049103,0.996400,-0.001032,0.000641,-0.002580,-44.195366,50.606190,9.110999,,,,,,
1465828370.83,3.072380,-0.049118,-1.441587,0.000459,-0.000582,0.000249,0.069074,0.049098,0.996403,-0.001066,-0.001811,0.000530,-44.196022,50.606312,9.107159,,,,,,
1465828370.85,3.072362,-0.049099,-1.441577,0.000462,0.000482,-0.000822,0.069092,0.049079,0.996402,-0.000230,-0.000434,0.000607,-44.196022,50.606312,9.107159,,,,,,
1465828370.84,3.072352,-0.049097,-1.441579,-0.000605,-0.001641,-0.000810,0.069102,0.049077,0.996402,0.000020,-0.001149,-0.004703,-44.196022,50.606312,9.107159,,,,,,
1465828370.86,3.072340,-0.049117,-1.441569,-0.000602,0.000483,-0.000823,0.069114,0.049097,0.996400,0.001046,0.001211,-0.003297,-44.196346,50.605556,9.109735,,,,,,
1465828370.87,3.072376,-0.049105,-1.441566,-0.000599,0.002607,-0.000837,0.069078,0.049086,0.996403,-0.000352,-0.000807,0.003124,-44.196346,50.605556,9.109735,,,,,,
1465828370.88,3.072340,-0.049079,-1.441569,0.000454,-0.004830,0.000275,0.069114,0.049060,0.996402,0.000115,-0.001758,-0.005694,-44.196346,50.605556,9.109735,,,,,,
1465828370.89,3.072331,-0.049088,-1.441572,0.000465,0.000300,0.000239,0.069123,0.049068,0.996401,-0.000047,0.000004,0.002058,-44.196686,50.604996,9.111187,,,,,,
1465828370.91,3.072291,-0.049105,-1.441573,0.000466,0.000300,0.000239,0.069163,0.049086,0.996397,-0.000270,0.001894,-0.002897,-44.196686,50.604996,9.111187,,,,,,
1465828370.90,3.072303,-0.049061,-1.441575,0.000460,-0.003947,0.000266,0.069151,0.049041,0.996400,0.000810,-0.001601,-0.000993,-44.196686,50.604996,9.111187,,,,,,
1465828370.93,3.072318,-0.049079,-1.441577,0.000464,-0.000761,0.000246,0.069136,0.049060,0.996400,-0.000930,0.000226,-0.003511,-44.195969,50.605164,9.113746,,,,,,
1465828370.92,3.072330,-0.049063,-1.441574,-0.000598,0.001363,0.000232,0.069124,0.049043,0.996402,-0.000765,-0.002092,0.001660,-44.195969,50.605164,9.113746,,,,,,
1465828370.94,3.072348,-0.049065,-1.441579,0.000467,0.001362,0.000233,0.069106,0.049045,0.996403,-0.000213,-0.000736,0.001705,-44.195969,50.605164,9.113746,,,,,,
1465828370.95,3.072346,-0.049091,-1.441586,0.001528,-0.001823,0.000254,0.069108,0.049072,0.996402,-0.001573,0.000840,-0.003237,-44.196220,50.605347,9.111526,,,,,,
1465828370.96,3.072350,-0.049104,-1.441594,0.001529,-0.000762,0.000247,0.069104,0.049084,0.996401,-0.000470,0.000461,-0.000872,-44.196220,50.605347,9.111526,,,,,,
1465828370.97,3.072337,-0.049152,-1.441597,0.000465,-0.000761,0.000246,0.069117,0.049132,0.996398,-0.000422,0.001848,-0.001525,-44.196220,50.605347,9.111526,,,,,,
1465828370.98,3.072372,-0.049165,-1.441599,0.000468,0.001363,0.000233,0.069082,0.049145,0.996400,-0.001333,0.000797,-0.001054,-42.099724,56.892029,8.763208,,,,,,
1465828370.99,3.072396,-0.049174,-1.441601,0.002592,-0.002885,0.000261,0.069058,0.049155,0.996401,-0.002575,-0.001028,-0.000109,-42.099724,56.892029,8.763208,,,,,,
1465828371.00,3.072438,-0.049205,-1.441602,0.001532,0.001363,0.000234,0.069015,0.049185,0.996402,-0.002258,0.001032,-0.003574,-42.099724,56.892029,8.763208,,,,,,
1465828371.01,3.072448,-0.049197,-1.441595,0.000468,0.000304,-0.000825,0.069006,0.049177,0.996403,0.000330,-0.001066,0.001094,-42.100437,56.892967,8.753721,,,,,,
1465828371.03,3.072493,-0.049192,-1.441577,-0.000596,0.002426,0.000225,0.068961,0.049172,0.996407,-0.001334,-0.001473,-0.000008,-42.100437,56.892967,8.753721,,,,,,
1465828371.02,3.072462,-0.049223,-1.441581,0.001532,-0.000758,-0.000818,0.068992,0.049203,0.996403,-0.001044,0.000785,-0.001942,-42.100437,56.892967,8.753721,,,,,,
1465828371.04,3.072534,-0.049200,-1.441572,0.000467,-0.000757,-0.000819,0.068920,0.049181,0.996409,-0.002514,0.000533,0.000524,-42.100437,56.892967,8.753721,,,,,,
1465828371.05,3.072511,-0.049208,-1.441565,0.000467,-0.000757,-0.000819,0.068943,0.049188,0.996407,0.000820,-0.000268,-0.001733,-42.102970,56.891644,8.750134,,,,,,
1465828371.06,3.072531,-0.049211,-1.441560,-0.000601,-0.001821,0.000251,0.068923,0.049191,0.996408,-0.001815,0.000415,-0.002436,-42.102970,56.891644,8.750134,,,,,,
1465828371.07,3.072551,-0.049228,-1.441561,0.000463,-0.000763,0.001310,0.068903,0.049208,0.996409,-0.001810,0.000917,-0.002299,-42.103626,56.891216,8.749710,,,,,,
1465828371.09,3.072598,-0.049222,-1.441558,-0.001661,0.001365,0.000230,0.068857,0.049202,0.996413,-0.002054,0.001045,-0.002974,-42.103626,56.891216,8.749710,,,,,,
1465828371.08,3.072558,-0.049213,-1.441558,0.000469,0.000305,-0.000825,0.068896,0.049193,0.996410,0.000074,-0.000854,-0.000225,-42.103626,56.891216,8.749710,,,,,,
1465828371.11,3.072602,-0.049187,-1.441558,0.000464,-0.001821,0.000252,0.068853,0.049167,0.996415,-0.000509,-0.001667,-0.001969,-42.103977,56.891155,8.748464,,,,,,
1465828371.10,3.072609,-0.049204,-1.441555,0.001532,-0.000757,-0.000818,0.068846,0.049184,0.996414,-0.000456,-0.001363,0.000183,-42.103977,56.891155,8.748464,,,,,,
1465828371.12,3.072601,-0.049174,-1.441561,0.000465,-0.000760,0.000246,0.068854,0.049154,0.996415,-0.000556,-0.001180,-0.002290,-42.103977,56.891155,8.748464,,,,,,
1465828371.14,3.072644,-0.049182,-1.441552,0.000469,0.000305,-0.000825,0.068810,0.049162,0.996418,-0.001763,0.000002,-0.001163,-42.104065,56.891022,8.748898,,,,,,
1465828371.13,3.072613,-0.049181,-1.441556,-0.001663,0.000303,0.000237,0.068842,0.049161,0.996416,-0.000864,0.001391,-0.000337,-42.104065,56.891022,8.748898,,,,,,
1465828371.15,3.072690,-0.049181,-1.441558,0.000465,0.000300,0.001304,0.068765,0.049162,0.996421,-0.001657,0.000338,-0.000907,-42.104065,56.891022,8.748898,,,,,,
1465828371.16,3.072684,-0.049193,-1.441560,0.000466,-0.000759,0.000246,0.068771,0.049173,0.996420,0.000047,0.000311,-0.002356,-42.104988,56.890678,8.746673,,,,,,
1465828371.17,3.072692,-0.049185,-1.441557,0.001533,-0.000757,-0.000818,0.068763,0.049165,0.996421,-0.001152,-0.000429,0.000726,-42.104988,56.890678,8.746673,,,,,,
1465828371.18,3.072678,-0.049218,-1.441554,0.000467,-0.001818,-0.000812,0.068776,0.049198,0.996418,-0.000417,0.001248,-0.001652,-42.104988,56.890678,8.746673,,,,,,
1465828371.19,3.072677,-0.049206,-1.441546,-0.000594,0.001368,-0.000833,0.068777,0.049186,0.996419,0.000604,-0.000663,0.000285,-42.105282,56.890999,8.743176,,,,,,
1465828371.20,3.072644,-0.049209,-1.441550,0.000465,-0.001821,0.000252,0.068811,0.049189,0.996416,0.000388,-0.000529,-0.002535,-42.105282,56.890999,8.743176,,,,,,
1465828371.21,3.072660,-0.049220,-1.441546,-0.000595,0.000306,-0.000827,0.068795,0.049200,0.996417,-0.000756,0.000986,0.000043,-42.105282,56.890999,8.743176,,,,,,
1465828371.22,3.072639,-0.049219,-1.441544,-0.000599,-0.000759,0.000245,0.068815,0.049199,0.996416,-0.000090,-0.000508,-0.003053,-42.105183,56.890774,8.745131,,,,,,
1465828371.23,3.072654,-0.049233,-1.441546,0.000468,0.000303,0.000239,0.068801,0.049213,0.996416,-0.000823,0.000760,-0.001894,-42.105183,56.890774,8.745131,,,,,,
1465828371.24,3.072691,-0.049218,-1.441539,-0.001663,-0.000758,0.000243,0.068764,0.049199,0.996419,-0.001061,-0.000325,-0.002767,-42.105183,56.890774,8.745131,,,,,,
1465828371.25,3.072688,-0.049209,-1.441547,-0.000599,0.000301,0.001302,0.068767,0.049189,0.996419,-0.000606,-0.000803,0.000163,-42.106228,56.890369,8.742694,,,,,,
1465828371.26,3.072702,-0.049209,-1.441539,0.001532,-0.001818,-0.000811,0.068753,0.049189,0.996420,-0.000820,-0.000422,-0.002295,-42.106228,56.890369,8.742694,,,,,,
1465828371.27,3.072696,-0.049177,-1.441546,-0.001664,0.000301,0.001301,0.068759,0.049157,0.996421,0.000424,-0.001397,0.002541,-42.106228,56.890369,8.742694,,,,,,
1465828371.28,3.072721,-0.049186,-1.441543,0.000471,0.001368,-0.000832,0.068734,0.049166,0.996423,-0.000146,0.000776,-0.001473,-42.106342,56.890285,8.742741,,,,,,
1465828371.29,3.072744,-0.049153,-1.441539,0.000469,0.001365,0.000232,0.068711,0.049134,0.996426,-0.000596,-0.001953,-0.000637,-42.106342,56.890285,8.742741,,,,,,
1465828371.30,3.072758,-0.049151,-1.441536,-0.000595,0.000307,-0.000827,0.068698,0.049131,0.996427,-0.000384,-0.000196,-0.001295,-42.106342,56.890285,8.742741,,,,,,
1465828371.31,3.072757,-0.049131,-1.441538,0.000475,-0.000924,-0.000821,0.068698,0.049111,0.996428,-0.000064,-0.001260,-0.002486,-42.106747,56.889828,8.743759,,,,,,
1465828371.32,3.072770,-0.049113,-1.441529,0.000476,0.000137,-0.000828,0.068686,0.049093,0.996430,-0.000708,-0.000784,-0.000611,-42.106747,56.889828,8.743759,,,,,,
1465828371.33,3.072798,-0.049130,-1.441524,-0.001654,0.001198,0.000228,0.068658,0.049110,0.996431,-0.001016,0.001580,-0.001298,-42.106747,56.889828,8.743759,,,,,,
1465828371.34,3.072824,-0.049120,-1.441536,-0.000595,0.000129,0.002364,0.068632,0.049101,0.996433,-0.001035,-0.000242,-0.002170,-42.107094,56.889317,8.745412,,,,,,
1465828371.35,3.072828,-0.049121,-1.441538,0.000470,-0.000930,0.001308,0.068628,0.049101,0.996433,-0.001795,-0.000624,-0.000660,-42.107094,56.889317,8.745412,,,,,,
1465828371.36,3.072839,-0.049102,-1.441540,-0.000591,0.000135,0.000235,0.068617,0.049082,0.996435,-0.000471,-0.000895,-0.002844,-42.107094,56.889317,8.745412,,,,,,
1465828371.37,3.072836,-0.049108,-1.441542,0.000474,0.000135,0.000236,0.068620,0.049088,0.996435,-0.000138,0.000060,-0.000844,-42.107052,56.889709,8.743086,,,,,,
1465828371.38,3.072870,-0.049089,-1.441538,-0.001650,0.004383,0.000208,0.068585,0.049070,0.996438,-0.000455,-0.000531,-0.001427,-42.107052,56.889709,8.743086,,,,,,
1465828371.39,3.072889,-0.049108,-1.441534,-0.000590,-0.000923,-0.000823,0.068567,0.049088,0.996438,-0.001383,0.001068,-0.000802,-42.107052,56.889709,8.743086,,,,,,
1465828371.40,3.072896,-0.049105,-1.441536,-0.001654,0.001198,0.000228,0.068560,0.049085,0.996439,-0.000704,0.000185,-0.000955,-42.107368,56.889565,8.742469,,,,,,
1465828371.42,3.072902,-0.049107,-1.441523,-0.000590,0.000136,0.000235,0.068554,0.049088,0.996439,0.000935,0.000076,0.000067,-42.107368,56.889565,8.742469,,,,,,
1465828371.41,3.072916,-0.049112,-1.441526,-0.000591,-0.001985,-0.000816,0.068540,0.049092,0.996440,-0.002149,0.000346,-0.001078,-42.107368,56.889565,8.742469,,,,,,
1465828371.43,3.072939,-0.049077,-1.441518,-0.001650,0.002263,-0.000844,0.068518,0.049058,0.996443,-0.000586,-0.000580,-0.001494,-42.108562,56.889027,8.740201,,,,,,
1465828371.44,3.072949,-0.049069,-1.441509,-0.001653,0.000139,-0.000830,0.068507,0.049049,0.996444,-0.000071,0.000328,-0.002380,-42.108562,56.889027,8.740201,,,,,,
1465828371.45,3.072976,-0.049077,-1.441504,-0.000593,-0.001988,0.000249,0.068480,0.049057,0.996446,-0.001891,0.000793,-0.000901,-42.108562,56.889027,8.740201,,,,,,
1465828371.46,3.072954,-0.049071,-1.441507,0.000478,0.000053,0.000235,0.068503,0.049052,0.996444,0.001291,-0.000361,-0.001419,-42.109642,56.888187,8.740491,,,,,,
1465828371.48,3.072965,-0.049089,-1.441506,0.000480,0.000056,-0.000829,0.068491,0.049070,0.996444,-0.000391,0.000079,0.000031,-42.109642,56.888187,8.740491,,,,,,
1465828371.47,3.072968,-0.049083,-1.441509,-0.000589,0.000050,0.001299,0.068488,0.049063,0.996445,-0.001197,0.000711,-0.000443,-42.109642,56.888187,8.740491,,,,,,
1465828371.49,3.072960,-0.049087,-1.441508,-0.001648,0.003239,0.000213,0.068497,0.049067,0.996444,0.000916,0.000463,-0.001174,-44.025520,49.703911,8.885253,,,,,,
1465828371.50,3.072986,-0.049082,-1.441499,-0.000585,0.000056,-0.000830,0.068470,0.049062,0.996446,-0.001347,-0.000402,-0.002153,-44.025520,49.703911,8.885253,,,,,,
1465828371.51,3.073001,-0.049098,-1.441496,0.001541,-0.001010,0.000243,0.068455,0.049078,0.996446,-0.001576,-0.000006,-0.000978,-44.025520,49.703911,8.885253,,,,,,
1465828371.52,3.072996,-0.049113,-1.441493,-0.000585,0.001115,0.000228,0.068460,0.049093,0.996445,0.000571,0.000803,-0.001603,-44.026028,49.703548,8.884745,,,,,,
1465828371.54,3.073008,-0.049168,-1.441477,0.001544,-0.001006,-0.000822,0.068448,0.049148,0.996443,-0.000104,0.000961,-0.000746,-44.026028,49.703548,8.884745,,,,,,
1465828371.53,3.073023,-0.049130,-1.441484,0.000479,-0.001006,-0.000823,0.068434,0.049110,0.996446,-0.001890,0.000679,-0.000536,-44.026028,49.703548,8.884745,,,,,,
1465828371.55,3.073032,-0.049165,-1.441477,0.000477,-0.001009,0.000242,0.068424,0.049145,0.996445,-0.001118,0.000431,-0.000840,-44.027588,49.703087,8.879594,,,,,,
1465828371.57,3.073058,-0.049153,-1.441459,-0.001652,-0.001008,0.000240,0.068398,0.049134,0.996448,-0.000588,0.000305,-0.001361,-44.027588,49.703087,8.879594,,,,,,
1465828371.56,3.073055,-0.049158,-1.441463,0.000486,0.002183,-0.001907,0.068401,0.049138,0.996447,-0.000988,-0.000448,-0.000445,-44.027588,49.703087,8.879594,,,,,,
1465828371.58,3.073067,-0.049162,-1.441455,0.000479,0.000053,0.000235,0.068390,0.049142,0.996448,-0.000778,0.000495,-0.000339,-44.028645,49.702412,8.878121,,,,,,
1465828371.60,3.073029,-0.049226,-1.441463,0.002607,-0.001010,0.000244,0.068427,0.049206,0.996442,-0.000617,0.000568,0.000323,-44.028645,49.702412,8.878121,,,,,,
1465828371.59,3.073040,-0.049197,-1.441454,0.001541,-0.002071,0.000250,0.068417,0.049177,0.996444,0.000553,0.001040,-0.001861,-44.028645,49.702412,8.878121,,,,,,
1465828371.61,3.073014,-0.049210,-1.441460,0.000479,0.000053,0.000235,0.068442,0.049191,0.996442,0.000924,-0.000622,-0.000287,-44.028656,49.702797,8.875887,,,,,,
1465828371.62,3.073031,-0.049222,-1.441467,-0.000582,0.001045,0.000227,0.068425,0.049202,0.996442,-0.001042,0.000755,0.000124,-44.028656,49.702797,8.875887,,,,,,
1465828371.63,3.073029,-0.049198,-1.441468,0.000479,-0.002141,0.000248,0.068427,0.049178,0.996443,-0.000937,-0.001144,-0.001570,-44.028656,49.702797,8.875887,,,,,,
1465828371.64,3.073022,-0.049192,-1.441476,0.000480,-0.001079,0.000241,0.068434,0.049172,0.996443,-0.000838,-0.000894,0.000444,-44.028458,49.702961,8.875973,,,,,,
1465828371.65,3.073060,-0.049157,-1.441470,-0.002709,0.003170,0.000211,0.068396,0.049137,0.996447,-0.001379,-0.000828,-0.000735,-44.028458,49.702961,8.875973,,,,,,
1465828371.66,3.073074,-0.049125,-1.441461,-0.000581,-0.000013,-0.000831,0.068382,0.049105,0.996450,-0.000297,-0.001391,-0.001699,-44.027828,49.703194,8.877820,,,,,,
1465828371.67,3.073098,-0.049113,-1.441462,-0.000582,0.001046,0.000227,0.068359,0.049093,0.996452,-0.001098,-0.000357,-0.000358,-44.027828,49.703194,8.877820,,,,,,
1465828371.68,3.073118,-0.049089,-1.441464,0.000483,0.001045,0.000228,0.068339,0.049069,0.996455,-0.000208,-0.001065,0.000829,-44.027828,49.703194,8.877820,,,,,,
1465828371.69,3.073100,-0.049097,-1.441450,0.001548,-0.002135,-0.001880,0.068357,0.049078,0.996453,0.000003,0.000391,-0.001855,-44.028931,49.702038,8.878802,,,,,,
1465828371.70,3.073110,-0.049058,-1.441446,-0.000580,0.001048,-0.000838,0.068346,0.049039,0.996456,-0.000124,-0.001767,-0.002117,-44.028931,49.702038,8.878802,,,,,,
1465828371.71,3.073110,-0.049071,-1.441443,0.001545,-0.001079,0.000242,0.068347,0.049051,0.996455,-0.000690,0.000357,-0.001368,-44.028931,49.702038,8.878802,,,,,,
1465828371.72,3.073139,-0.049074,-1.441440,0.000483,-0.000014,-0.000830,0.068318,0.049054,0.996457,-0.001591,-0.000241,-0.002316,-44.029610,49.701096,8.880723,,,,,,
1465828371.73,3.073152,-0.049059,-1.441436,-0.000583,-0.000016,0.000234,0.068305,0.049039,0.996459,-0.001197,-0.000943,-0.001769,-44.029610,49.701096,8.880723,,,,,,
1465828371.74,3.073147,-0.049084,-1.441449,0.000478,-0.001081,0.001306,0.068309,0.049064,0.996457,-0.000774,0.000923,-0.000623,-44.029610,49.701096,8.880723,,,,,,
1465828371.75,3.073156,-0.049058,-1.441445,-0.001643,0.002111,-0.000845,0.068301,0.049038,0.996459,-0.000262,-0.000973,-0.001586,-44.029911,49.701351,8.877796,,,,,,
1465828371.76,3.073164,-0.049078,-1.441447,0.000484,-0.000013,-0.000830,0.068293,0.049059,0.996458,-0.000987,0.000502,-0.002287,-44.029911,49.701351,8.877796,,,,,,
1465828371.77,3.073172,-0.049082,-1.441444,-0.001644,0.001049,-0.000839,0.068285,0.049062,0.996459,0.000517,0.000895,0.000444,-44.029911,49.701351,8.877796,,,,,,
1465828371.78,3.073207,-0.049065,-1.441439,-0.000582,-0.001075,-0.000824,0.068250,0.049045,0.996462,-0.001935,-0.000491,-0.002031,-44.029911,49.701351,8.877796,,,,,,
1465828371.79,3.073220,-0.049063,-1.441429,0.000484,-0.001126,-0.000824,0.068237,0.049044,0.996463,-0.001418,-0.000078,0.000165,-44.030876,49.700779,8.876183,,,,,,
1465828371.80,3.073226,-0.049040,-1.441425,-0.000579,-0.000064,-0.000831,0.068232,0.049020,0.996464,0.000235,-0.000482,-0.000951,-44.030876,49.700779,8.876183,,,,,,
1465828371.81,3.073238,-0.049031,-1.441415,-0.000583,-0.001128,0.000240,0.068219,0.049012,0.996466,-0.001203,0.000030,-0.001913,-44.030876,49.700779,8.876183,,,,,,
1465828371.82,3.073232,-0.049038,-1.441417,-0.000580,-0.001125,-0.000825,0.068226,0.049018,0.996465,-0.000339,0.000390,-0.000509,-44.030876,49.700779,8.876183,,,,,,
1465828371.83,3.073252,-0.049062,-1.441413,-0.001642,0.000999,-0.000839,0.068206,0.049042,0.996465,-0.001021,0.001983,-0.001897,-44.030876,49.700779,8.876183,,,,,,
1465828371.84,3.073221,-0.049067,-1.441406,0.000486,-0.000064,-0.000830,0.068236,0.049047,0.996463,0.001131,-0.000036,-0.000369,-44.030876,49.700779,8.876183,,,,,,
1465828371.85,3.073187,-0.049080,-1.441404,0.000479,-0.004314,0.000261,0.068271,0.049060,0.996460,0.000379,0.000119,-0.000870,-44.032612,49.699341,8.875639,,,,,,
1465828371.86,3.073197,-0.049092,-1.441405,-0.000582,-0.001128,0.000240,0.068260,0.049072,0.996460,-0.001351,0.001313,-0.000961,-44.032612,49.699341,8.875639,,,,,,
1465828371.87,3.073156,-0.049083,-1.441409,0.001545,-0.003253,0.000255,0.068301,0.049063,0.996458,0.000654,-0.001181,-0.001524,-44.032536,49.699436,8.875505,,,,,,
1465828371.88,3.073170,-0.049105,-1.441410,0.000482,-0.002190,0.000247,0.068287,0.049086,0.996458,-0.001499,0.001375,0.000262,-44.032536,49.699436,8.875505,,,,,,
1465828371.89,3.073166,-0.049064,-1.441401,-0.000579,-0.000063,-0.000831,0.068291,0.049044,0.996459,0.000466,-0.002169,-0.000854,-44.032536,49.699436,8.875505,,,,,,
1465828371.90,3.073166,-0.049064,-1.441403,0.000481,-0.002190,0.000247,0.068291,0.049044,0.996459,-0.000862,0.000104,0.001710,-44.032104,49.699734,8.875961,,,,,,
1465828371.92,3.073184,-0.049062,-1.441407,0.000482,-0.000070,0.001299,0.068273,0.049042,0.996461,-0.002630,-0.001496,-0.000001,-44.032104,49.699734,8.875961,,,,,,
1465828371.91,3.073136,-0.049092,-1.441407,0.001546,-0.002191,0.000248,0.068321,0.049073,0.996456,0.000344,0.000686,-0.001857,-44.032104,49.699734,8.875961,,,,,,
1465828371.93,3.073199,-0.049064,-1.441408,-0.000579,0.000996,0.000226,0.068259,0.049044,0.996461,-0.000723,0.000379,-0.002122,-44.032227,49.699345,8.877527,,,,,,
1465828371.95,3.073184,-0.049101,-1.441413,0.002611,-0.003282,0.000256,0.068273,0.049081,0.996459,-0.000646,0.000113,-0.003569,-44.032227,49.699345,8.877527,,,,,,
1465828371.94,3.073205,-0.049080,-1.441410,-0.000579,-0.000095,0.000233,0.068252,0.049061,0.996461,-0.000701,0.001095,0.001052,-44.032227,49.699345,8.877527,,,,,,
1465828371.96,3.073193,-0.049105,-1.441414,-0.000580,-0.001156,0.000240,0.068264,0.049085,0.996459,-0.001248,0.000628,0.000184,-44.032227,49.699345,8.877527,,,,,,
1465828371.97,3.073204,-0.049095,-1.441410,-0.000579,-0.000095,0.000233,0.068253,0.049076,0.996460,-0.000611,-0.000415,-0.003235,-44.032089,49.699924,8.874952,,,,,,
1465828371.98,3.073212,-0.049085,-1.441418,0.000486,-0.000095,0.000234,0.068245,0.049065,0.996461,-0.000923,-0.000908,-0.000429,-44.032089,49.699924,8.874952,,,,,,
1465828371.99,3.073235,-0.049079,-1.441429,0.000484,-0.000098,0.001298,0.068223,0.049059,0.996463,-0.001557,-0.000338,-0.001560,-44.032089,49.699924,8.874952,,,,,,
1465828372.01,3.073248,-0.049065,-1.441427,0.000485,-0.001157,0.000241,0.068210,0.049046,0.996465,-0.001147,0.000011,-0.001164,-44.032017,49.699966,8.875090,,,,,,
1465828372.00,3.073236,-0.049059,-1.441425,-0.001641,-0.000091,-0.000833,0.068221,0.049040,0.996464,-0.000289,-0.000639,-0.002202,-44.032017,49.699966,8.875090,,,,,,
1465828372.02,3.073214,-0.049067,-1.441415,-0.000576,-0.000091,-0.000832,0.068243,0.049048,0.996462,0.000971,-0.000265,-0.000826,-44.032017,49.699966,8.875090,,,,,,
1465828372.03,3.073211,-0.049086,-1.441406,-0.001642,-0.001153,-0.000826,0.068246,0.049066,0.996461,-0.000619,0.001364,-0.001375,-44.032104,49.699749,8.875892,,,,,,
1465828372.05,3.073195,-0.049095,-1.441406,0.000487,-0.001154,-0.000824,0.068262,0.049075,0.996460,-0.000680,0.000699,0.000183,-44.032104,49.699749,8.875892,,,,,,
1465828372.04,3.073195,-0.049078,-1.441414,0.000483,-0.001160,0.001305,0.068262,0.049058,0.996461,0.000235,-0.000764,-0.000214,-44.032104,49.699749,8.875892,,,,,,
1465828372.07,3.073164,-0.049114,-1.441411,-0.000579,-0.001156,0.000240,0.068293,0.049094,0.996457,-0.000086,0.000832,-0.001629,-44.032104,49.699749,8.875892,,,,,,
1465828372.06,3.073187,-0.049100,-1.441409,0.000487,-0.000095,0.000234,0.068270,0.049080,0.996459,0.000029,-0.000374,-0.001021,-44.032104,49.699749,8.875892,,,,,,
1465828372.08,3.073173,-0.049124,-1.441413,-0.000577,0.000968,0.000226,0.068284,0.049105,0.996457,-0.000276,0.000959,-0.000134,-44.032104,49.699749,8.875892,,,,,,
1465828372.09,3.073169,-0.049145,-1.441410,0.000487,-0.000095,0.000234,0.068288,0.049125,0.996455,-0.000264,0.001168,-0.001796,-44.032024,49.699993,8.874881,,,,,,
1465828372.10,3.073171,-0.049149,-1.441417,0.000486,-0.001156,0.000241,0.068285,0.049129,0.996455,-0.000643,0.000188,-0.001460,-44.032024,49.699993,8.874881,,,,,,
1465828372.11,3.073161,-0.049147,-1.441414,0.000488,-0.002237,-0.000817,0.068295,0.049127,0.996455,-0.000546,-0.000482,-0.001658,-44.032024,49.699993,8.874881,,,,,,
1465828372.12,3.073170,-0.049159,-1.441416,0.000487,-0.001178,0.000241,0.068287,0.049139,0.996455,-0.001255,0.000406,-0.000147,-44.031891,49.700317,8.873724,,,,,,
1465828372.13,3.073147,-0.049153,-1.441414,-0.000577,-0.002237,-0.000818,0.068310,0.049133,0.996454,0.000645,-0.000351,-0.000528,-44.031891,49.700317,8.873724,,,,,,
1465828372.14,3.073122,-0.049136,-1.441406,0.000488,-0.002237,-0.000817,0.068335,0.049116,0.996453,0.000040,-0.001112,-0.001976,-44.031891,49.700317,8.873724,,,,,,
1465828372.16,3.073190,-0.049134,-1.441395,0.000486,-0.002240,0.000247,0.068267,0.049114,0.996457,-0.003173,-0.000484,-0.003248,-44.031982,49.699730,8.876595,,,,,,
1465828372.15,3.073168,-0.049134,-1.441400,-0.000575,0.000946,0.000226,0.068289,0.049114,0.996456,-0.002111,0.000263,0.001286,-44.031982,49.699730,8.876595,,,,,,
1465828372.17,3.073183,-0.049090,-1.441392,-0.000575,0.000946,0.000226,0.068274,0.049070,0.996459,0.000756,-0.001936,0.000901,-44.031982,49.699730,8.876595,,,,,,
1465828372.18,3.073168,-0.049108,-1.441390,0.000489,-0.001175,-0.000824,0.068289,0.049088,0.996457,-0.000067,0.000289,-0.003263,-44.033077,49.699265,8.873760,,,,,,
1465828372.19,3.073186,-0.049126,-1.441387,0.000487,-0.001178,0.000240,0.068271,0.049106,0.996458,-0.001209,0.000698,-0.001493,-44.033077,49.699265,8.873760,,,,,,
1465828372.20,3.073224,-0.049131,-1.441387,-0.000574,0.000946,0.000226,0.068233,0.049111,0.996460,-0.001201,0.000892,-0.001938,-44.033077,49.699265,8.873760,,,,,,
1465828372.21,3.073240,-0.049144,-1.441384,0.000490,0.000946,0.000227,0.068217,0.049124,0.996460,-0.000605,0.000589,-0.003510,-44.033779,49.698879,8.872431,,,,,,
1465828372.22,3.073238,-0.049118,-1.441381,0.000490,-0.001175,-0.000824,0.068219,0.049099,0.996461,-0.000379,-0.001598,-0.001833,-44.033779,49.698879,8.872431,,,,,,
1465828372.23,3.073222,-0.049122,-1.441373,0.000491,-0.000113,-0.000831,0.068235,0.049102,0.996460,-0.000501,-0.000854,-0.001480,-44.033779,49.698879,8.872431,,,,,,
1465828372.24,3.073216,-0.049113,-1.441370,-0.000577,-0.001177,0.000239,0.068241,0.049093,0.996460,0.000073,-0.000738,0.001587,-44.034180,49.698513,8.872501,,,,,,
1465828372.25,3.073204,-0.049120,-1.441367,0.000486,-0.002239,0.000247,0.068253,0.049100,0.996459,-0.000458,0.000323,-0.002227,-44.034180,49.698513,8.872501,,,,,,
1465828372.26,3.073212,-0.049104,-1.441369,-0.000577,0.000944,0.001291,0.068245,0.049084,0.996460,0.000023,-0.000683,-0.001267,-44.034466,49.698032,8.873766,,,,,,
1465828372.27,3.073221,-0.049095,-1.441366,0.000491,-0.001192,-0.000824,0.068236,0.049075,0.996462,-0.000807,-0.000994,-0.002901,-44.034466,49.698032,8.873766,,,,,,
1465828372.28,3.073230,-0.049083,-1.441358,0.001557,-0.000130,-0.000830,0.068228,0.049063,0.996463,-0.001303,-0.001410,-0.001452,-44.034466,49.698032,8.873766,,,,,,
1465828372.29,3.073238,-0.049079,-1.441365,-0.000574,0.001988,0.001284,0.068220,0.049059,0.996463,0.000308,0.000074,-0.001102,-44.035110,49.697285,8.874744,,,,,,
1465828372.30,3.073239,-0.049094,-1.441362,-0.000572,-0.000129,-0.000832,0.068218,0.049075,0.996463,-0.000561,0.000867,-0.001391,-44.035110,49.697285,8.874744,,,,,,
1465828372.31,3.073257,-0.049070,-1.441362,-0.001634,0.001995,-0.000846,0.068200,0.049051,0.996465,-0.000497,-0.000406,0.000575,-44.035110,49.697285,8.874744,,,,,,
1465828372.32,3.073257,-0.049068,-1.441354,0.000491,-0.001191,-0.000824,0.068200,0.049049,0.996465,-0.000970,-0.000327,-0.003881,-44.035034,49.697536,8.873750,,,,,,
1465828372.34,3.073286,-0.049054,-1.441353,0.001554,-0.001195,0.000241,0.068171,0.049034,0.996468,-0.000026,-0.000359,-0.001580,-44.035034,49.697536,8.873750,,,,,,
1465828372.33,3.073300,-0.049043,-1.441344,0.000492,-0.000129,-0.000831,0.068158,0.049024,0.996469,-0.001889,-0.001782,0.000830,-44.035034,49.697536,8.873750,,,,,,
1465828372.35,3.073291,-0.049035,-1.441355,-0.000573,0.000930,0.000226,0.068167,0.049016,0.996469,-0.000006,-0.001027,0.000723,-44.035751,49.696899,8.873734,,,,,,
1465828372.36,3.073304,-0.049014,-1.441361,-0.000578,-0.001196,0.001304,0.068154,0.048994,0.996471,-0.001824,-0.000899,0.000019,-44.035751,49.696899,8.873734,,,,,,
1465828372.37,3.073324,-0.049011,-1.441362,0.000490,-0.000132,0.000234,0.068134,0.048991,0.996473,-0.001911,-0.000682,-0.004499,-44.035751,49.696899,8.873734,,,,,,
1465828372.38,3.073315,-0.049013,-1.441359,-0.000574,-0.001190,-0.000825,0.068143,0.048993,0.996472,-0.000256,0.000064,-0.000943,-44.035378,49.697021,8.874887,,,,,,
1465828372.40,3.073316,-0.049047,-1.441359,-0.000576,-0.001193,0.000239,0.068142,0.049027,0.996470,-0.000424,0.000060,-0.001399,-44.035378,49.697021,8.874887,,,,,,
1465828372.39,3.073322,-0.049040,-1.441361,0.002617,-0.002256,0.000249,0.068136,0.049020,0.996471,-0.002157,0.000312,-0.000805,-44.035378,49.697021,8.874887,,,,,,
1465828372.41,3.073275,-0.049069,-1.441352,0.001556,-0.003312,-0.001874,0.068182,0.049049,0.996466,0.000650,0.000587,-0.001502,-44.035706,49.697113,8.872735,,,,,,
1465828372.43,3.073334,-0.049026,-1.441357,-0.002701,0.000918,0.000224,0.068124,0.049006,0.996473,-0.001550,0.000204,-0.001599,-44.035706,49.697113,8.872735,,,,,,
1465828372.42,3.073300,-0.049043,-1.441353,-0.000573,-0.000145,0.000233,0.068157,0.049024,0.996469,-0.001431,-0.001294,-0.002252,-44.035706,49.697113,8.872735,,,,,,
1465828372.44,3.073342,-0.049020,-1.441355,0.000493,0.000916,0.000227,0.068116,0.049000,0.996473,0.000351,-0.000340,-0.000319,-44.035851,49.696827,8.873627,,,,,,
1465828372.45,3.073319,-0.049029,-1.441358,0.001553,-0.003331,0.000255,0.068139,0.049009,0.996471,0.000190,-0.000196,-0.002178,-44.035851,49.696827,8.873627,,,,,,
1465828372.46,3.073303,-0.049027,-1.441366,0.000491,-0.001207,0.000240,0.068155,0.049008,0.996470,-0.000192,-0.000378,-0.000773,-44.035851,49.696827,8.873627,,,,,,
1465828372.47,3.073300,-0.049019,-1.441369,0.001555,-0.001208,0.000241,0.068157,0.048999,0.996471,0.000355,-0.000797,-0.000301,-44.035160,49.697334,8.874228,,,,,,
1465828372.49,3.073311,-0.048981,-1.441374,0.001557,0.001975,0.001286,0.068147,0.048962,0.996473,-0.000642,-0.001324,0.001528,-44.035160,49.697334,8.874228,,,,,,
1465828372.48,3.073311,-0.048989,-1.441365,0.000488,-0.003331,0.000254,0.068147,0.048970,0.996473,-0.000840,-0.001835,-0.001951,-44.035160,49.697334,8.874228,,,,,,
1465828372.50,3.073327,-0.049018,-1.441370,-0.000572,-0.001204,-0.000825,0.068131,0.048998,0.996472,-0.000321,0.002637,-0.003812,-44.035133,49.697083,8.875751,,,,,,
1465828372.51,3.073337,-0.049016,-1.441367,-0.000570,0.001979,0.000219,0.068121,0.048996,0.996473,-0.000174,-0.000229,-0.002104,-44.035133,49.697083,8.875751,,,,,,
1465828372.52,3.073360,-0.049022,-1.441374,0.000490,-0.000148,0.001298,0.068098,0.049003,0.996475,-0.001325,0.000024,-0.002197,-44.035133,49.697083,8.875751,,,,,,
1465828372.53,3.073371,-0.049053,-1.441370,0.001556,-0.001207,0.000241,0.068087,0.049033,0.996474,-0.003756,-0.000251,-0.002394,-44.035282,49.697639,8.871907,,,,,,
1465828372.54,3.073399,-0.049081,-1.441362,0.000497,0.001982,-0.000844,0.068059,0.049061,0.996474,-0.001225,0.000606,-0.001906,-44.035282,49.697639,8.871907,,,,,,
1465828372.55,3.073433,-0.049076,-1.441362,-0.002702,-0.000143,0.000230,0.068025,0.049057,0.996477,-0.002183,0.000046,-0.000826,-44.036400,49.697464,8.867367,,,,,,
1465828372.56,3.073477,-0.049044,-1.441361,-0.002698,0.003043,0.000210,0.067981,0.049025,0.996481,-0.001239,-0.000074,-0.002417,-44.036400,49.697464,8.867367,,,,,,
1465828372.57,3.073495,-0.049049,-1.441351,-0.000571,-0.001203,-0.000825,0.067963,0.049029,0.996482,-0.001969,0.000440,-0.002739,-44.036400,49.697464,8.867367,,,,,,
1465828372.58,3.073492,-0.049022,-1.441358,0.000488,-0.003345,0.001318,0.067967,0.049003,0.996483,-0.000965,-0.001273,-0.001595,-44.037003,49.697216,8.865746,,,,,,
1465828372.59,3.073503,-0.049018,-1.441349,-0.001632,0.000909,-0.000839,0.067955,0.048998,0.996484,-0.000023,0.000135,0.002157,-44.037003,49.697216,8.865746,,,,,,
1465828372.60,3.073544,-0.049011,-1.441339,-0.000566,0.001971,-0.000845,0.067914,0.048991,0.996488,-0.001737,-0.000254,-0.002637,-44.037003,49.697216,8.865746,,,,,,
1465828372.61,3.073500,-0.049022,-1.441331,0.000492,-0.003339,-0.000811,0.067958,0.049003,0.996484,0.000234,0.000314,-0.001321,-44.037003,49.697216,8.865746,,,,,,
1465828372.62,3.073476,-0.049007,-1.441340,0.000494,-0.000157,0.000234,0.067982,0.048988,0.996483,0.000850,-0.001594,-0.002343,-44.038597,49.696014,8.864573,,,,,,
1465828372.63,3.073461,-0.049008,-1.441337,-0.000573,-0.002280,0.000246,0.067997,0.048989,0.996482,-0.000019,0.000266,-0.002677,-44.038597,49.696014,8.864573,,,,,,
1465828372.64,3.073403,-0.049023,-1.441342,0.001557,-0.003340,-0.000810,0.068055,0.049003,0.996477,0.001937,0.000024,0.002058,-44.037895,49.696072,8.867725,,,,,,
1465828372.65,3.073419,-0.049033,-1.441338,0.000490,-0.003342,0.000254,0.068039,0.049013,0.996478,-0.001999,0.000410,-0.004107,-44.037895,49.696072,8.867725,,,,,,
1465828372.66,3.073411,-0.049028,-1.441335,-0.000568,-0.000153,-0.000832,0.068047,0.049009,0.996478,-0.000237,-0.000577,0.000043,-44.037895,49.696072,8.867725,,,,,,
1465828372.67,3.073422,-0.049054,-1.441336,0.001553,-0.003345,0.001319,0.068036,0.049035,0.996477,-0.001630,0.001396,-0.003801,-44.037895,49.696072,8.867725,,,,,,
1465828372.68,3.073385,-0.049082,-1.441330,0.004751,-0.005462,-0.001858,0.068073,0.049062,0.996473,-0.000781,-0.000310,-0.000196,-44.037647,49.695961,8.869583,,,,,,
,,,,,,,,,,,,,,,,29.719969,-95.399103,10.308825,-1.000000,-1.000000,1465830721.22
1465828372.69,3.073367,-0.049080,-1.441333,-0.000570,-0.000156,0.000233,0.068091,0.049060,0.996472,0.000162,-0.000827,-0.002621,-44.037647,49.695961,8.869583,,,,,,
1465828372.70,3.073369,-0.049084,-1.441336,-0.000570,-0.000156,0.000233,0.068088,0.049064,0.996472,-0.000538,-0.000038,0.000446,-44.037849,49.696049,8.868113,,,,,,
1465828372.71,3.073371,-0.049114,-1.441333,0.001555,-0.003342,0.000255,0.068087,0.049095,0.996471,-0.001268,0.000863,-0.006587,-44.037849,49.696049,8.868113,,,,,,
1465828372.72,3.073355,-0.049147,-1.441335,0.002619,-0.004404,0.000262,0.068102,0.049127,0.996468,-0.001314,0.001075,0.001701,-44.037849,49.696049,8.868113,,,,,,
1465828372.73,3.073385,-0.049116,-1.441332,0.000496,0.000906,0.000227,0.068073,0.049096,0.996472,-0.001392,-0.002404,0.001804,-44.037849,49.696049,8.868113,,,,,,
1465828372.74,3.073332,-0.049137,-1.441324,-0.000575,-0.005462,-0.000799,0.068125,0.049118,0.996467,0.000402,0.001313,-0.006080,-44.037544,49.696655,8.866172,,,,,,
1465828372.75,3.073366,-0.049097,-1.441325,-0.000564,0.004080,0.000206,0.068091,0.049078,0.996471,-0.001349,-0.002050,0.006718,-44.037544,49.696655,8.866172,,,,,,
1465828372.76,3.073369,-0.049123,-1.441327,0.000494,-0.001229,0.000241,0.068089,0.049103,0.996470,-0.001026,0.000580,-0.006556,-44.037865,49.696098,8.867712,,,,,,
1465828372.77,3.073334,-0.049141,-1.441331,0.000496,-0.000168,0.000234,0.068123,0.049121,0.996467,0.000862,0.000913,0.002572,-44.037865,49.696098,8.867712,,,,,,
1465828372.78,3.073371,-0.049153,-1.441322,0.000499,0.000897,-0.000837,0.068087,0.049133,0.996469,-0.001330,0.000107,-0.005258,-44.037865,49.696098,8.867712,,,,,,
1465828372.79,3.073348,-0.049178,-1.441324,-0.000573,-0.003352,0.000253,0.068109,0.049158,0.996466,-0.000849,0.000769,-0.002631,-44.037865,49.696098,8.867712,,,,,,
1465828372.80,3.073346,-0.049172,-1.441333,0.000499,0.001956,0.000221,0.068112,0.049153,0.996466,0.000385,-0.000538,0.000711,-44.038364,49.696091,8.865289,,,,,,
1465828372.81,3.073338,-0.049171,-1.441334,-0.001638,-0.002293,0.001310,0.068119,0.049151,0.996466,-0.000568,0.000700,-0.003576,-44.038364,49.696091,8.865289,,,,,,
1465828372.82,3.073324,-0.049164,-1.441342,0.000498,0.000894,0.000227,0.068133,0.049144,0.996465,0.000440,-0.000301,0.000514,-44.037670,49.696697,8.865338,,,,,,
1465828372.83,3.073321,-0.049197,-1.441339,0.001556,-0.004415,0.000262,0.068137,0.049177,0.996463,-0.001044,0.001177,-0.003101,-44.037670,49.696697,8.865338,,,,,,
1465828372.84,3.073329,-0.049159,-1.441341,0.000498,0.000895,0.000227,0.068128,0.049139,0.996466,-0.000104,-0.002127,0.003138,-44.037670,49.696697,8.865338,,,,,,
1465828372.85,3.073313,-0.049199,-1.441339,0.000494,-0.002291,0.000247,0.068144,0.049180,0.996463,-0.000059,0.001586,-0.004336,-44.037670,49.696697,8.865338,,,,,,
1465828372.86,3.073325,-0.049169,-1.441340,0.000495,-0.001229,0.000241,0.068132,0.049149,0.996465,-0.002321,-0.002075,0.001292,-44.037083,49.696980,8.866688,,,,,,
1465828372.87,3.073311,-0.049137,-1.441343,-0.000572,-0.001231,0.001304,0.068146,0.049117,0.996466,0.001007,-0.001876,-0.000250,-44.037083,49.696980,8.866688,,,,,,
1465828372.88,3.073319,-0.049131,-1.441333,-0.000568,-0.001225,-0.000825,0.068139,0.049111,0.996466,-0.001473,-0.000039,-0.000144,-44.037083,49.696980,8.866688,,,,,,
1465828372.89,3.073345,-0.049102,-1.441324,0.000500,0.000898,-0.000837,0.068113,0.049082,0.996470,-0.000608,-0.001689,0.001120,-44.037277,49.696468,8.868579,,,,,,
1465828372.90,3.073310,-0.049137,-1.441327,0.000494,-0.003362,0.000254,0.068147,0.049118,0.996466,-0.000276,0.001587,-0.004415,-44.037277,49.696468,8.868579,,,,,,
1465828372.92,3.073333,-0.049126,-1.441330,-0.000568,-0.002297,-0.000818,0.068125,0.049106,0.996468,-0.000635,0.000821,-0.004036,-44.037525,49.696236,8.868660,,,,,,
1465828372.91,3.073323,-0.049119,-1.441339,-0.000565,0.003006,0.001278,0.068134,0.049099,0.996467,-0.000172,-0.000759,0.005730,-44.037525,49.696236,8.868660,,,,,,
1465828372.93,3.073310,-0.049110,-1.441327,0.000498,-0.000177,0.000234,0.068147,0.049091,0.996467,-0.000001,-0.000888,0.000130,-44.037525,49.696236,8.868660,,,,,,
1465828372.95,3.073330,-0.049121,-1.441309,-0.000570,-0.002299,0.000247,0.068127,0.049101,0.996468,-0.001569,-0.000059,-0.001015,-44.037533,49.696301,8.868243,,,,,,
1465828372.94,3.073333,-0.049121,-1.441318,0.000498,-0.001235,-0.000823,0.068125,0.049101,0.996468,-0.001764,-0.000044,-0.000115,-44.037533,49.696301,8.868243,,,,,,
1465828372.96,3.073343,-0.049126,-1.441311,0.000498,-0.000176,0.000234,0.068114,0.049107,0.996468,-0.000472,-0.000202,0.001441,-44.037533,49.696301,8.868243,,,,,,
1465828372.97,3.073364,-0.049154,-1.441312,0.000494,-0.003361,0.000254,0.068094,0.049135,0.996468,-0.002771,0.000945,-0.002267,-44.037533,49.696301,8.868243,,,,,,
1465828372.98,3.073386,-0.049152,-1.441314,0.000498,-0.000176,0.000234,0.068072,0.049132,0.996470,-0.002123,-0.000838,-0.001139,-44.038544,49.695473,8.867855,,,,,,
1465828372.99,3.073415,-0.049160,-1.441315,-0.000565,0.000887,0.000227,0.068043,0.049141,0.996471,-0.001423,0.000389,-0.003277,-44.038544,49.695473,8.867855,,,,,,
1465828373.00,3.073418,-0.049147,-1.441307,0.000500,-0.000173,-0.000830,0.068040,0.049128,0.996472,-0.000611,-0.001139,-0.000577,-44.038544,49.695473,8.867855,,,,,,
1465828373.01,3.073422,-0.049191,-1.441309,0.001560,-0.002300,0.000249,0.068036,0.049171,0.996470,-0.001813,0.001534,-0.002604,-44.039505,49.695389,8.863558,,,,,,
1465828373.02,3.073417,-0.049167,-1.441311,0.000498,-0.000175,0.000234,0.068041,0.049147,0.996471,-0.001009,-0.001677,0.001179,-44.039505,49.695389,8.863558,,,,,,
1465828373.03,3.073410,-0.049192,-1.441318,0.001557,-0.003364,0.001320,0.068047,0.049172,0.996470,-0.001229,0.001060,-0.003351,-44.039360,49.695686,8.862602,,,,,,
1465828373.04,3.073428,-0.049196,-1.441324,-0.000569,-0.000177,0.001298,0.068029,0.049176,0.996471,-0.001867,0.000553,-0.000667,-44.039360,49.695686,8.862602,,,,,,
1465828373.05,3.073453,-0.049164,-1.441324,-0.001629,0.001950,0.000219,0.068004,0.049144,0.996474,-0.000805,-0.001033,-0.002181,-44.039360,49.695686,8.862602,,,,,,
1465828373.06,3.073454,-0.049203,-1.441322,0.002630,-0.001244,-0.000821,0.068004,0.049183,0.996472,-0.000529,0.001308,-0.001294,-44.039360,49.695686,8.862602,,,,,,
1465828373.07,3.073444,-0.049175,-1.441324,0.000498,-0.001246,0.000241,0.068014,0.049155,0.996473,-0.000463,-0.001899,0.000476,-44.039249,49.696407,8.859133,,,,,,
1465828373.08,3.073450,-0.049167,-1.441320,-0.001629,-0.001242,-0.000825,0.068007,0.049147,0.996474,-0.001967,-0.000670,-0.003523,-44.039249,49.696407,8.859133,,,,,,
1465828373.09,3.073475,-0.049154,-1.441310,0.000501,-0.000181,-0.000830,0.067982,0.049134,0.996476,-0.002034,-0.000642,0.002700,-44.039192,49.696110,8.861085,,,,,,
1465828373.10,3.073475,-0.049177,-1.441307,0.000498,-0.001245,0.000241,0.067983,0.049157,0.996475,-0.000295,0.000876,-0.003479,-44.039192,49.696110,8.861085,,,,,,
1465828373.11,3.073458,-0.049157,-1.441310,0.000498,-0.001245,0.000241,0.068000,0.049138,0.996475,-0.000480,-0.001515,-0.001235,-44.039192,49.696110,8.861085,,,,,,
1465828373.12,3.073475,-0.049153,-1.441306,-0.000563,-0.000180,-0.000831,0.067982,0.049133,0.996476,-0.000706,-0.000106,-0.002915,-44.040070,49.695602,8.859569,,,,,,
1465828373.13,3.073463,-0.049154,-1.441304,0.001563,-0.001246,0.000243,0.067994,0.049134,0.996475,-0.000932,-0.001084,-0.004227,-44.040070,49.695602,8.859569,,,,,,
1465828373.14,3.073473,-0.049161,-1.441296,0.000505,0.000884,-0.001901,0.067985,0.049141,0.996475,-0.000251,0.000130,0.001190,-44.040070,49.695602,8.859569,,,,,,
1465828373.15,3.073482,-0.049162,-1.441291,0.000498,-0.003366,-0.000810,0.067976,0.049142,0.996476,-0.002317,-0.000329,-0.001344,-44.040581,49.694973,8.860527,,,,,,
1465828373.16,3.073481,-0.049167,-1.441289,0.001564,-0.000184,0.000236,0.067977,0.049147,0.996476,-0.000594,-0.000868,0.001358,-44.040581,49.694973,8.860527,,,,,,
1465828373.17,3.073490,-0.049204,-1.441286,0.000500,-0.001242,-0.000823,0.067967,0.049184,0.996474,-0.001897,0.001047,-0.004363,-44.040581,49.694973,8.860527,,,,,,
1465828373.18,3.073466,-0.049208,-1.441289,0.001562,-0.002307,0.000249,0.067992,0.049188,0.996473,-0.001021,-0.000512,-0.001874,-44.040985,49.694729,8.859882,,,,,,
1465828373.19,3.073480,-0.049205,-1.441275,0.001569,-0.000177,-0.001893,0.067978,0.049185,0.996474,-0.000931,-0.001181,-0.000502,-44.040985,49.694729,8.859882,,,,,,
1465828373.20,3.073466,-0.049187,-1.441283,0.000497,-0.000186,0.001299,0.067991,0.049167,0.996474,-0.000029,-0.001377,-0.001006,-44.040985,49.694729,8.859882,,,,,,
1465828373.21,3.073490,-0.049206,-1.441289,-0.000569,-0.001247,0.001305,0.067968,0.049187,0.996474,-0.002248,0.001457,-0.001235,-44.041203,49.694592,8.859573,,,,,,
1465828373.22,3.073495,-0.049201,-1.441297,0.001564,0.000876,0.001294,0.067962,0.049181,0.996475,-0.000107,-0.000917,0.000382,-44.041203,49.694592,8.859573,,,,,,
1465828373.23,3.073496,-0.049211,-1.441294,0.001564,-0.002312,-0.000815,0.067962,0.049191,0.996475,-0.001144,-0.000058,-0.000839,-44.041203,49.694592,8.859573,,,,,,
1465828373.24,3.073511,-0.049199,-1.441285,-0.000562,-0.000187,-0.000830,0.067947,0.049179,0.996476,-0.000762,-0.000488,-0.001161,-44.040836,49.695282,8.857547,,,,,,
1465828373.25,3.073503,-0.049195,-1.441287,-0.000563,0.000872,0.000228,0.067954,0.049175,0.996476,0.000008,-0.000195,-0.000306,-44.040836,49.695282,8.857547,,,,,,
1465828373.26,3.073467,-0.049201,-1.441291,-0.000567,-0.002314,0.000248,0.067991,0.049181,0.996473,0.000628,-0.000048,-0.002271,-44.040836,49.695282,8.857547,,,,,,
1465828373.27,3.073445,-0.049153,-1.441293,-0.000566,-0.001252,0.000241,0.068012,0.049134,0.996474,0.000622,-0.002289,-0.002883,-44.040897,49.695004,8.858829,,,,,,
1465828373.28,3.073461,-0.049187,-1.441289,-0.000563,-0.001249,-0.000824,0.067996,0.049167,0.996473,-0.002033,0.001690,-0.000044,-44.040897,49.695004,8.858829,,,,,,
1465828373.29,3.073494,-0.049193,-1.441289,-0.000564,-0.000190,0.000234,0.067964,0.049173,0.996475,-0.002763,0.000357,-0.000504,-44.040897,49.695004,8.858829,,,,,,
1465828373.30,3.073511,-0.049195,-1.441291,0.000501,-0.000190,0.000235,0.067947,0.049176,0.996476,-0.000900,0.000126,-0.001039,-44.040894,49.694836,8.859770,,,,,,
1465828373.31,3.073540,-0.049177,-1.441292,0.000501,-0.000190,0.000235,0.067918,0.049157,0.996479,-0.001359,-0.000893,-0.002461,-44.040894,49.694836,8.859770,,,,,,
1465828373.32,3.073558,-0.049187,-1.441303,0.001562,-0.001255,0.001307,0.067900,0.049167,0.996480,-0.001982,0.000317,-0.001103,-44.040894,49.694836,8.859770,,,,,,
1465828373.33,3.073546,-0.049208,-1.441306,0.000499,-0.001252,0.000242,0.067911,0.049188,0.996478,-0.000269,0.000800,-0.002963,-44.041039,49.695480,8.855408,,,,,,
1465828373.34,3.073531,-0.049180,-1.441313,-0.000569,-0.002316,0.001312,0.067927,0.049160,0.996478,-0.000544,-0.001614,-0.000232,-44.041039,49.695480,8.855408,,,,,,
1465828373.35,3.073528,-0.049175,-1.441316,-0.000565,-0.001251,0.000241,0.067930,0.049155,0.996478,-0.000333,-0.000648,-0.000919,-44.041039,49.695480,8.855408,,,,,,
1465828373.36,3.073510,-0.049165,-1.441303,0.000503,-0.000187,-0.000829,0.067948,0.049145,0.996478,0.000396,-0.001309,0.000089,-44.040287,49.695889,8.856875,,,,,,
1465828373.37,3.073522,-0.049156,-1.441305,-0.001627,0.000873,0.000226,0.067936,0.049136,0.996479,-0.000583,0.000134,-0.000584,-44.040287,49.695889,8.856875,,,,,,
