timestamp,attitude_roll,attitude_pitch,attitude_yaw,rotation_rate_x,rotation_rate_y,rotation_rate_z,gravity_x,gravity_y,gravity_z,user_acc_x,user_acc_y,user_acc_z,magnetic_field_x,magnetic_field_y,magnetic_field_z,latitude(degree),longitude(degree),altitude(meter),speed(m/s),course(degree),timestamp
1466441163.54,0.788253,-1.064409,-1.208324,0.018405,-0.277078,-0.000041,0.343939,0.874503,-0.341981,-0.795584,-0.870963,-0.551040,5.083292,-8.645625,-24.663256,,,,,,
1466441163.55,0.752837,-1.059810,-1.237052,0.015344,-0.246338,-0.000286,0.334361,0.872263,-0.356876,-0.813212,-0.872827,-0.521358,4.405193,-9.813617,-24.354671,,,,,,
1466441163.56,0.718258,-1.055238,-1.265235,0.014396,-0.228340,-0.001513,0.324444,0.870018,-0.371221,-0.810833,-0.866997,-0.486323,4.405193,-9.813617,-24.354671,,,,,,
1466441163.57,0.684098,-1.050381,-1.293118,0.013457,-0.201851,-0.001729,0.314243,0.867613,-0.385356,-0.817402,-0.869337,-0.478886,4.405193,-9.813617,-24.354671,,,,,,
1466441163.58,0.651014,-1.045547,-1.320560,0.011512,-0.128641,-0.003304,0.303863,0.865199,-0.398872,-0.815170,-0.861979,-0.448785,4.052993,-10.378579,-24.181007,,,,,,
,,,,,,,,,,,,,,,,29.719977,-95.399049,10.298757,-1.000000,-1.000000,1466441189.60
1466441163.59,0.649989,-1.045497,-1.320724,0.009451,-0.075547,-0.004703,0.303480,0.865174,-0.399217,-0.818967,-0.866212,-0.446853,4.052993,-10.378579,-24.181007,,,,,,
1466441163.60,0.649271,-1.045435,-1.320926,0.009486,-0.045819,-0.003825,0.303225,0.865143,-0.399477,-0.813281,-0.865814,-0.453275,4.052993,-10.378579,-24.181007,,,,,,
1466441163.61,0.648812,-1.045397,-1.321068,0.008440,-0.029894,-0.002861,0.303062,0.865124,-0.399643,-0.810203,-0.862713,-0.457336,4.052993,-10.378579,-24.181007,,,,,,
1466441163.62,0.648575,-1.045351,-1.321204,0.004597,-0.007210,-0.001606,0.302991,0.865100,-0.399747,-0.807935,-0.872562,-0.461703,3.717884,-10.923645,-23.994043,,,,,,
1466441163.63,0.648512,-1.045340,-1.321328,0.006751,0.008722,-0.003833,0.302972,0.865095,-0.399773,-0.814553,-0.864943,-0.455772,3.717884,-10.923645,-23.994043,,,,,,
1466441163.64,0.648670,-1.045310,-1.321473,0.004657,0.037392,-0.004015,0.303051,0.865080,-0.399746,-0.823070,-0.866530,-0.446644,3.707598,-10.927060,-23.994081,,,,,,
1466441163.66,0.651189,-1.045311,-1.321703,0.003793,0.197724,-0.005021,0.304056,0.865081,-0.398981,-0.810511,-0.861830,-0.446784,3.707598,-10.927060,-23.994081,,,,,,
1466441163.65,0.649520,-1.045316,-1.321573,0.003690,0.113845,-0.005560,0.303387,0.865083,-0.399484,-0.828625,-0.862855,-0.439734,3.707598,-10.927060,-23.994081,,,,,,
1466441163.67,0.653274,-1.045343,-1.321824,0.000628,0.216844,-0.007273,0.304871,0.865097,-0.398324,-0.781525,-0.864807,-0.477271,3.707598,-10.927060,-23.994081,,,,,,
1466441163.68,0.654724,-1.045338,-1.322005,0.007977,0.134020,-0.006746,0.305450,0.865094,-0.397885,-0.761108,-0.861219,-0.496570,3.782594,-10.930794,-23.980671,,,,,,
1466441163.69,0.655006,-1.045304,-1.322173,0.007821,0.012969,-0.003858,0.305580,0.865077,-0.397822,-0.759011,-0.866801,-0.504918,3.782594,-10.930794,-23.980671,,,,,,
1466441163.70,0.654229,-1.045243,-1.322337,0.009823,-0.086845,-0.002166,0.305303,0.865046,-0.398101,-0.775167,-0.865977,-0.488999,3.875093,-10.931958,-23.965364,,,,,,
1466441163.71,0.652891,-1.045173,-1.322493,0.010841,-0.124008,-0.001932,0.304807,0.865011,-0.398558,-0.794935,-0.867224,-0.473452,3.875093,-10.931958,-23.965364,,,,,,
1466441163.72,0.651668,-1.045095,-1.322663,0.010870,-0.100649,-0.002078,0.304360,0.864972,-0.398984,-0.793771,-0.864560,-0.462451,3.875093,-10.931958,-23.965364,,,,,,
1466441163.73,0.650533,-1.045028,-1.322830,0.009805,-0.102769,-0.003130,0.303942,0.864939,-0.399375,-0.789202,-0.865458,-0.473077,3.816741,-10.940966,-23.970619,,,,,,
1466441163.74,0.649136,-1.044961,-1.322993,0.010827,-0.136747,-0.002916,0.303419,0.864905,-0.399845,-0.781324,-0.864096,-0.479168,3.816741,-10.940966,-23.970619,,,,,,
1466441163.75,0.647218,-1.044868,-1.323174,0.012889,-0.187720,-0.000466,0.302701,0.864858,-0.400490,-0.780743,-0.863485,-0.479484,3.816741,-10.940966,-23.970619,,,,,,
1466441163.76,0.644870,-1.044767,-1.323332,0.011772,-0.229130,-0.000207,0.301812,0.864807,-0.401270,-0.788521,-0.865143,-0.473989,3.816741,-10.940966,-23.970619,,,,,,
1466441163.77,0.642203,-1.044664,-1.323501,0.013868,-0.257797,-0.001090,0.300794,0.864756,-0.402145,-0.787794,-0.864374,-0.464753,3.668352,-10.951833,-23.988817,,,,,,
1466441163.78,0.639283,-1.044536,-1.323675,0.014897,-0.284346,0.000142,0.299684,0.864692,-0.403110,-0.786623,-0.866217,-0.466610,3.668352,-10.951833,-23.988817,,,,,,
1466441163.79,0.636011,-1.044401,-1.323826,0.015906,-0.325762,0.002532,0.298433,0.864624,-0.404183,-0.788561,-0.866363,-0.468818,3.541409,-10.958740,-24.004732,,,,,,
,,,,,,,,,,,,,,,,29.719978,-95.399051,10.298757,-1.000000,-1.000000,1466441198.64
,,,,,,,,,,,,,,,,29.719978,-95.399053,10.298757,-1.000000,-1.000000,1466441198.66
1466441163.81,0.628489,-1.044099,-1.324129,0.015869,-0.356551,0.001661,0.295538,0.864472,-0.406627,-0.803579,-0.864426,-0.443166,3.541409,-10.958740,-24.004732,,,,,,
1466441163.80,0.632265,-1.044245,-1.323973,0.016915,-0.370358,0.002813,0.296996,0.864545,-0.405407,-0.799285,-0.866666,-0.460789,3.541409,-10.958740,-24.004732,,,,,,
1466441163.82,0.624929,-1.043948,-1.324270,0.016949,-0.342752,0.002640,0.294165,0.864396,-0.407783,-0.819220,-0.865403,-0.440591,3.378478,-10.966682,-24.024582,,,,,,
1466441163.83,0.621601,-1.043797,-1.324412,0.016992,-0.308774,0.002427,0.292882,0.864320,-0.408866,-0.816320,-0.865922,-0.435113,3.378478,-10.966682,-24.024582,,,,,,
1466441163.84,0.618627,-1.043665,-1.324555,0.013835,-0.279042,0.002237,0.291731,0.864254,-0.409827,-0.806318,-0.863674,-0.436746,3.378478,-10.966682,-24.024582,,,,,,
1466441163.85,0.615580,-1.043519,-1.324693,0.014867,-0.303467,0.003456,0.290554,0.864180,-0.410818,-0.796352,-0.864104,-0.451548,3.378478,-10.966682,-24.024582,,,,,,
1466441163.86,0.569427,-1.033772,-1.361459,0.018106,-0.371493,0.002754,0.275819,0.859235,-0.430859,-0.775392,-0.860074,-0.434985,3.061583,-10.982435,-24.059834,,,,,,
1466441163.87,0.524797,-1.023484,-1.396108,0.019210,-0.439520,0.003116,0.260737,0.853926,-0.450362,-0.763758,-0.854430,-0.412675,2.756075,-11.401306,-23.901402,,,,,,
1466441163.88,0.482035,-1.012513,-1.428406,0.020319,-0.496936,0.006606,0.245575,0.848166,-0.469370,-0.746750,-0.850424,-0.394567,2.756075,-11.401306,-23.901402,,,,,,
1466441163.89,0.441166,-1.000881,-1.458204,0.021386,-0.589383,0.008189,0.230389,0.841947,-0.487900,-0.725491,-0.841870,-0.382187,2.756075,-11.401306,-23.901402,,,,,,
1466441163.90,0.402504,-0.989455,-1.484917,0.027733,-0.712617,0.008910,0.215113,0.835727,-0.505259,-0.715540,-0.835696,-0.362066,2.756075,-11.401306,-23.901402,,,,,,
,,,,,,,,,,,,,,,,29.719986,-95.399074,10.171622,-1.000000,-1.000000,1466441198.83
1466441163.91,0.376159,-0.982430,-1.500353,0.028745,-0.803976,0.011578,0.203881,0.831849,-0.516198,-0.714012,-0.831544,-0.339255,1.744763,-12.960196,-23.191633,,,,,,
1466441163.92,0.359565,-0.979038,-1.506979,0.028675,-0.881507,0.013114,0.196279,0.829961,-0.522148,-0.703847,-0.829748,-0.331902,1.744763,-12.960196,-23.191633,,,,,,
1466441163.93,0.339603,-0.974197,-1.515461,0.031748,-1.008949,0.014960,0.187154,0.827251,-0.529745,-0.676213,-0.826701,-0.339915,1.274773,-13.277454,-23.042284,,,,,,
1466441163.94,0.315810,-0.967873,-1.525400,0.037905,-1.233020,0.017411,0.176119,0.823682,-0.539009,-0.651506,-0.823666,-0.341850,1.274773,-13.277454,-23.042284,,,,,,
1466441163.95,0.291974,-0.962372,-1.533129,0.046110,-1.507003,0.024440,0.164524,0.820549,-0.547385,-0.638066,-0.820809,-0.334710,1.274773,-13.277454,-23.042284,,,,,,
1466441163.96,0.273160,-0.960801,-1.534410,0.053215,-1.786273,0.029388,0.154545,0.819651,-0.551624,-0.626835,-0.818705,-0.320325,1.274773,-13.277454,-23.042284,,,,,,
1466441163.97,0.252275,-0.959542,-1.535028,0.060308,-2.076154,0.032276,0.143248,0.818929,-0.555730,-0.622206,-0.818410,-0.305705,-0.064262,-13.779869,-22.780996,,,,,,
1466441163.98,0.228719,-0.958378,-1.535334,0.069507,-2.377724,0.038432,0.130336,0.818260,-0.559877,-0.643199,-0.817925,-0.274961,-0.064262,-13.779869,-22.780996,,,,,,
1466441164.00,0.177623,-0.956801,-1.534375,0.069124,-2.678223,0.043510,0.101798,0.817353,-0.567073,-0.687125,-0.818909,-0.187810,-1.059507,-13.836231,-22.722212,,,,,,
1466441163.99,0.203762,-0.957578,-1.534881,0.072449,-2.574168,0.042860,0.116456,0.817800,-0.563596,-0.671906,-0.818334,-0.225848,-1.059507,-13.836231,-22.722212,,,,,,
1466441164.01,0.150498,-0.955956,-1.533806,0.080690,-2.786547,0.049523,0.086484,0.816866,-0.570308,-0.695996,-0.815416,-0.155858,-1.059507,-13.836231,-22.722212,,,,,,
1466441164.02,0.121747,-0.955073,-1.533115,0.081492,-2.992543,0.052944,0.070141,0.816356,-0.573275,-0.628765,-0.816508,-0.177748,-1.059507,-13.836231,-22.722212,,,,,,
1466441164.03,0.089208,-0.953958,-1.532506,0.092662,-3.423644,0.056723,0.051535,0.815711,-0.576159,-0.564505,-0.817420,-0.210676,-3.543366,-13.900556,-22.429489,,,,,,
1466441164.04,0.051553,-0.952755,-1.531709,0.107988,-3.925909,0.068404,0.029859,0.815015,-0.578670,-0.630948,-0.805021,-0.130192,-3.543366,-13.900556,-22.429489,,,,,,
1466441164.05,0.012380,-0.951679,-1.530459,0.100371,-4.044847,0.076593,0.007184,0.814391,-0.580272,-0.580884,-0.825133,-0.062200,-5.146083,-13.946012,-22.088217,,,,,,
1466441164.06,-0.030193,-0.950526,-1.529133,0.123225,-4.502490,0.077357,-0.017547,0.813722,-0.580990,-0.562210,-0.803986,-0.073383,-5.146083,-13.946012,-22.088217,,,,,,
1466441164.07,-0.077605,-0.949299,-1.527538,0.129013,-4.969707,0.087744,-0.045140,0.813008,-0.580501,-0.589458,-0.816593,-0.002797,-5.146083,-13.946012,-22.088217,,,,,,
1466441164.08,-0.127189,-0.948076,-1.525785,0.132014,-5.123670,0.088713,-0.073982,0.812295,-0.578535,-0.619148,-0.806207,0.109938,-5.146083,-13.946012,-22.088217,,,,,,
1466441164.09,-0.177444,-0.946833,-1.523923,0.143654,-5.181013,0.089084,-0.103130,0.811569,-0.575082,-0.684071,-0.801636,0.218774,-5.146083,-13.946012,-22.088217,,,,,,
1466441164.10,-0.226984,-0.945676,-1.521923,0.134181,-5.088639,0.091689,-0.131692,0.810893,-0.570184,-0.690650,-0.809382,0.258356,-9.130742,-14.025874,-20.706692,,,,,,
1466441164.11,-0.275968,-0.944589,-1.519899,0.135278,-5.066337,0.089421,-0.159693,0.810256,-0.563900,-0.674642,-0.807281,0.281673,-11.233212,-14.063272,-19.618923,,,,,,
1466441164.12,-0.325262,-0.943566,-1.517710,0.135208,-5.118371,0.091876,-0.187549,0.809656,-0.556131,-0.636578,-0.810282,0.306666,-11.233212,-14.063272,-19.618923,,,,,,
1466441164.13,-0.375643,-0.942599,-1.515460,0.137157,-5.265956,0.090675,-0.215605,0.809088,-0.546709,-0.594926,-0.800482,0.313219,-11.233212,-14.063272,-19.618923,,,,,,
1466441164.14,-0.427570,-0.941669,-1.512990,0.142266,-5.428430,0.097021,-0.244002,0.808542,-0.535466,-0.556016,-0.805429,0.369877,-11.233212,-14.063272,-19.618923,,,,,,
1466441164.15,-0.481516,-0.940828,-1.510397,0.144095,-5.665218,0.100637,-0.272835,0.808046,-0.522132,-0.506111,-0.795488,0.381767,-15.082917,-14.114946,-16.796925,,,,,,
1466441164.16,-0.538204,-0.940017,-1.507581,0.155408,-5.976344,0.106857,-0.302315,0.807568,-0.506398,-0.491173,-0.793744,0.442006,-15.082917,-14.114946,-16.796925,,,,,,
1466441164.18,-0.657170,-0.938581,-1.501448,0.166589,-6.394709,0.112686,-0.360989,0.806720,-0.467856,-0.392200,-0.794391,0.526816,-16.937349,-14.128719,-14.912017,,,,,,
1466441164.17,-0.596635,-0.939261,-1.504561,0.158438,-6.105888,0.108737,-0.331714,0.807122,-0.488384,-0.447323,-0.797418,0.520901,-16.937349,-14.128719,-14.912017,,,,,,
1466441164.19,-0.721024,-0.937998,-1.498025,0.175740,-6.729199,0.121179,-0.390418,0.806376,-0.444221,-0.363107,-0.795069,0.602165,-16.937349,-14.128719,-14.912017,,,,,,
1466441164.20,-0.787043,-0.937520,-1.494408,0.180790,-6.940512,0.126767,-0.419146,0.806093,-0.417769,-0.333036,-0.791887,0.645674,-16.937349,-14.128719,-14.912017,,,,,,
1466441164.21,-0.854736,-0.937232,-1.490751,0.179528,-7.100838,0.125643,-0.446619,0.805922,-0.388613,-0.292516,-0.785628,0.728548,-20.248400,-14.127243,-9.964240,,,,,,
1466441164.22,-0.924279,-0.937035,-1.486845,0.191980,-7.348265,0.134658,-0.472670,0.805806,-0.356735,-0.198946,-0.782338,0.741638,-20.248400,-14.127243,-9.964240,,,,,,
1466441164.24,-1.073091,-0.937284,-1.478596,0.207195,-7.943955,0.142667,-0.520160,0.805954,-0.282617,-0.102292,-0.777511,0.881723,-21.496510,-14.104752,-6.915112,,,,,,
1466441164.23,-0.997457,-0.937096,-1.482825,0.194680,-7.736894,0.140291,-0.497446,0.805842,-0.321196,-0.150183,-0.784281,0.769056,-21.496510,-14.104752,-6.915112,,,,,,
1466441164.25,-1.150284,-0.937705,-1.474452,0.198471,-8.105351,0.145799,-0.540096,0.806203,-0.241524,-0.047047,-0.778859,0.895287,-21.496510,-14.104752,-6.915112,,,,,,
1466441164.26,-1.229224,-0.938298,-1.470158,0.220622,-8.264645,0.151078,-0.557010,0.806553,-0.198021,-0.007871,-0.778385,0.979027,-21.496510,-14.104752,-6.915112,,,,,,
1466441164.27,-1.309548,-0.939109,-1.466022,0.204479,-8.401608,0.151921,-0.570471,0.807032,-0.152520,0.047613,-0.768153,0.984277,-22.643158,-14.002421,0.287051,,,,,,
1466441164.28,-1.390637,-0.940139,-1.461895,0.218290,-8.426037,0.152088,-0.580132,0.807640,-0.105662,0.026726,-0.770698,1.064082,-22.643158,-14.002421,0.287051,,,,,,
1466441164.30,-1.544272,-0.942592,-1.454737,0.186161,-7.737952,0.140290,-0.587486,0.809084,-0.015587,0.016929,-0.769412,1.115181,-22.313324,-13.924513,4.133561,,,,,,
1466441164.29,-1.468908,-0.941319,-1.458064,0.200707,-8.017228,0.147378,-0.585669,0.808335,-0.059880,0.042700,-0.780900,1.159413,-22.313324,-13.924513,4.133561,,,,,,
1466441164.31,-1.614879,-0.943960,-1.451488,0.192253,-7.130595,0.133293,-0.586015,0.809888,0.025850,0.023744,-0.770047,1.236953,-22.313324,-13.924513,4.133561,,,,,,
1466441164.32,-1.680073,-0.945324,-1.448778,0.159831,-6.675048,0.124017,-0.581988,0.810687,0.063852,0.125735,-0.767504,1.077124,-22.313324,-13.924513,4.133561,,,,,,
1466441164.33,-1.744227,-0.946757,-1.446254,0.172704,-6.604963,0.119333,-0.575552,0.811525,0.100832,0.210592,-0.762743,1.015044,-20.153734,-13.751134,10.658151,,,,,,
1466441164.34,-1.807151,-0.948203,-1.443866,0.158019,-6.435055,0.113995,-0.566932,0.812369,0.136549,0.261802,-0.761160,1.014711,-20.153734,-13.751134,10.658151,,,,,,
1466441164.35,-1.867838,-0.949690,-1.441897,0.151991,-6.152604,0.109024,-0.556450,0.813235,0.170328,0.257042,-0.760882,1.001379,-18.617043,-13.665827,13.248157,,,,,,
1466441164.36,-1.924360,-0.951162,-1.439974,0.150464,-5.679028,0.101794,-0.544816,0.814091,0.201076,0.275972,-0.772983,1.063251,-18.617043,-13.665827,13.248157,,,,,,
1466441164.37,-1.977523,-0.952548,-1.438526,0.126363,-5.373210,0.097723,-0.532325,0.814895,0.229296,0.282279,-0.758697,0.941328,-18.617043,-13.665827,13.248157,,,,,,
1466441164.38,-2.026941,-0.953927,-1.437090,0.132268,-4.921926,0.087448,-0.519339,0.815693,0.254817,0.285925,-0.772252,0.991903,-16.918512,-13.583666,15.430837,,,,,,
1466441164.39,-2.070716,-0.955155,-1.436048,0.104293,-4.310305,0.080391,-0.506811,0.816403,0.276819,0.263509,-0.773511,0.967123,-16.918512,-13.583666,15.430837,,,,,,
1466441164.40,-2.108566,-0.956257,-1.435153,0.099736,-3.714605,0.067070,-0.495199,0.817039,0.295338,0.291967,-0.763542,0.943233,-16.918512,-13.583666,15.430837,,,,,,
1466441164.41,-2.141228,-0.957216,-1.434419,0.081242,-3.187927,0.058426,-0.484631,0.817592,0.310928,0.292996,-0.771327,0.903305,-16.918512,-13.583666,15.430837,,,,,,
1466441164.42,-2.168374,-0.958031,-1.433883,0.068121,-2.621965,0.049542,-0.475462,0.818061,0.323593,0.349699,-0.768424,0.860580,-13.773634,-13.451254,18.390585,,,,,,
1466441164.43,-2.191937,-0.958724,-1.433409,0.061027,-2.345875,0.041416,-0.467245,0.818459,0.334376,0.432470,-0.759087,0.782659,-13.773634,-13.451254,18.390585,,,,,,
1466441164.44,-2.214240,-0.959419,-1.432976,0.060090,-2.247121,0.038667,-0.459216,0.818858,0.344371,0.498462,-0.772655,0.704595,-12.644008,-13.407163,19.215616,,,,,,
1466441164.45,-2.236076,-0.960096,-1.432571,0.060143,-2.203590,0.039459,-0.451152,0.819247,0.353973,0.537852,-0.768984,0.684296,-12.644008,-13.407163,19.215616,,,,,,
1466441164.46,-2.257203,-0.960791,-1.432208,0.058114,-2.125012,0.037899,-0.443133,0.819645,0.363064,0.564715,-0.774448,0.655063,-12.644008,-13.407163,19.215616,,,,,,
1466441164.47,-2.278908,-0.961479,-1.431832,0.064337,-2.256679,0.038731,-0.434720,0.820039,0.372229,0.669324,-0.772096,0.610910,-10.882077,-13.339980,20.309801,,,,,,
1466441164.48,-2.304241,-0.962304,-1.431437,0.072314,-2.676116,0.048821,-0.424649,0.820511,0.382669,0.709226,-0.768417,0.510337,-10.882077,-13.339980,20.309801,,,,,,
1466441164.49,-2.333175,-0.963210,-1.431024,0.080435,-2.991478,0.051871,-0.412863,0.821028,0.394280,0.744635,-0.765746,0.523720,-10.882077,-13.339980,20.309801,,,,,,
1466441164.50,-2.364389,-0.964210,-1.430672,0.086542,-3.207042,0.058552,-0.399781,0.821599,0.406387,0.742203,-0.770619,0.536224,-9.912937,-13.303866,20.823151,,,,,,
1466441164.51,-2.398053,-0.965278,-1.430323,0.092628,-3.448074,0.060069,-0.385282,0.822207,0.418966,0.746610,-0.761340,0.528208,-9.912937,-13.303866,20.823151,,,,,,
1466441164.52,-2.433123,-0.966394,-1.430068,0.093569,-3.540463,0.064908,-0.369758,0.822842,0.431521,0.723167,-0.762371,0.535276,-9.912937,-13.303866,20.823151,,,,,,
1466441164.54,-2.506488,-0.968702,-1.429867,0.097498,-3.793192,0.072883,-0.336005,0.824151,0.455933,0.761359,-0.759134,0.489593,-7.157156,-13.209729,21.980467,,,,,,
1466441164.53,-2.468939,-0.967512,-1.429895,0.092397,-3.630707,0.062279,-0.353495,0.823477,0.443764,0.771021,-0.757269,0.521522,-7.157156,-13.209729,21.980467,,,,,,
1466441164.55,-2.545464,-0.969891,-1.429970,0.090948,-3.921667,0.073682,-0.317434,0.824824,0.467868,0.794088,-0.751643,0.469769,-7.157156,-13.209729,21.980467,,,,,,
1466441164.56,-2.585188,-0.971069,-1.430209,0.093064,-3.925927,0.077969,-0.298089,0.825490,0.479280,0.727853,-0.759511,0.487501,-5.539846,-13.159410,22.472267,,,,,,
1466441164.57,-2.622600,-0.972181,-1.430560,0.079588,-3.641345,0.071913,-0.279499,0.826117,0.489297,0.719746,-0.752020,0.516043,-5.539846,-13.159410,22.472267,,,,,,
1466441164.58,-2.658135,-0.973195,-1.431042,0.078054,-3.488082,0.073409,-0.261549,0.826688,0.498176,0.734648,-0.758038,0.484001,-5.539846,-13.159410,22.472267,,,,,,
1466441164.60,-2.725067,-0.975047,-1.432310,0.060452,-3.090959,0.070901,-0.227024,0.827728,0.513153,0.711125,-0.756821,0.446122,-5.539846,-13.159410,22.472267,,,,,,
1466441164.59,-2.692854,-0.974200,-1.431628,0.070731,-3.384021,0.072749,-0.243738,0.827253,0.506206,0.709421,-0.751706,0.432484,-5.539846,-13.159410,22.472267,,,,,,
1466441164.61,-2.754163,-0.975832,-1.433049,0.053419,-2.757546,0.067738,-0.211754,0.828168,0.518939,0.669366,-0.762754,0.438383,-0.631974,-13.035627,23.206373,,,,,,
1466441164.62,-2.779370,-0.976484,-1.433773,0.043272,-2.363603,0.062064,-0.198416,0.828534,0.523606,0.678473,-0.771954,0.428085,-0.631974,-13.035627,23.206373,,,,,,
1466441164.63,-2.800853,-0.977032,-1.434431,0.037352,-2.001505,0.052336,-0.186971,0.828841,0.527319,0.668767,-0.783049,0.395823,0.583759,-13.011972,23.220907,,,,,,
1466441164.64,-2.818002,-0.977457,-1.434999,0.028349,-1.551275,0.042052,-0.177789,0.829078,0.530114,0.661172,-0.785530,0.386802,0.583759,-13.011972,23.220907,,,,,,
1466441164.65,-2.830602,-0.977771,-1.435427,0.019325,-1.121214,0.029766,-0.171016,0.829254,0.532064,0.663921,-0.786697,0.372416,1.444148,-12.997033,23.191687,,,,,,
1466441164.66,-2.838913,-0.977959,-1.435762,0.011358,-0.692224,0.020681,-0.166542,0.829359,0.533318,0.653678,-0.783934,0.361504,1.444148,-12.997033,23.191687,,,,,,
1466441164.67,-2.842463,-0.978038,-1.435984,0.001322,-0.215452,0.011294,-0.164628,0.829403,0.533843,0.644410,-0.779156,0.367341,1.444148,-12.997033,23.191687,,,,,,
1466441164.68,-2.841152,-0.977971,-1.436101,-0.010855,0.254947,0.003010,-0.165344,0.829365,0.533680,0.647034,-0.773854,0.360989,1.444148,-12.997033,23.191687,,,,,,
1466441164.69,-2.835541,-0.977802,-1.436175,-0.019911,0.669064,-0.002790,-0.168378,0.829271,0.532878,0.653425,-0.771669,0.359929,1.949805,-12.991343,23.157852,,,,,,
1466441164.70,-2.825818,-0.977478,-1.436202,-0.032170,1.073632,-0.010662,-0.173635,0.829090,0.531470,0.671483,-0.767628,0.354058,1.949805,-12.991343,23.157852,,,,,,
1466441164.71,-2.812633,-0.977052,-1.436197,-0.042416,1.390060,-0.014785,-0.180741,0.828851,0.529469,0.695939,-0.768457,0.348628,1.949805,-12.991343,23.157852,,,,,,
1466441164.72,-2.796724,-0.976543,-1.436141,-0.048470,1.650216,-0.020681,-0.189284,0.828567,0.526924,0.722212,-0.770751,0.341713,1.593832,-13.002446,23.178848,,,,,,
1466441164.74,-2.756574,-0.975269,-1.435902,-0.061616,2.187525,-0.034708,-0.210678,0.827853,0.519879,0.746078,-0.785174,0.373431,1.593832,-13.002446,23.178848,,,,,,
1466441164.75,-2.733129,-0.974563,-1.435660,-0.059250,2.365924,-0.042211,-0.223040,0.827457,0.515334,0.759371,-0.792255,0.376954,1.593832,-13.002446,23.178848,,,,,,
1466441164.73,-2.778016,-0.975955,-1.436059,-0.055555,1.936918,-0.026744,-0.199281,0.828238,0.523746,0.724931,-0.778524,0.364362,1.593832,-13.002446,23.178848,,,,,,
1466441164.76,-2.707847,-0.973818,-1.435341,-0.060072,2.552814,-0.047642,-0.236255,0.827038,0.510090,0.763110,-0.795483,0.388790,0.004901,-13.048527,23.207729,,,,,,
1466441164.77,-2.680805,-0.973045,-1.434962,-0.059884,2.692989,-0.054908,-0.250244,0.826603,0.504088,0.787476,-0.799214,0.401933,0.004901,-13.048527,23.207729,,,,,,
1466441164.78,-2.653528,-0.972287,-1.434503,-0.052433,2.685561,-0.058047,-0.264193,0.826176,0.497629,0.806414,-0.799062,0.386267,-1.103034,-13.076968,23.165468,,,,,,
1466441164.79,-2.626368,-0.971561,-1.433993,-0.050311,2.674951,-0.061172,-0.277905,0.825767,0.490792,0.809201,-0.794838,0.395774,-1.103034,-13.076968,23.165468,,,,,,
1466441164.80,-2.599208,-0.970825,-1.433489,-0.048191,2.668576,-0.060065,-0.291445,0.825352,0.483585,0.825274,-0.784184,0.408841,-2.328288,-13.105718,23.058231,,,,,,
1466441164.81,-2.572555,-0.970121,-1.432995,-0.046141,2.603808,-0.060722,-0.304542,0.824954,0.476135,0.812888,-0.779315,0.409012,-2.328288,-13.105718,23.058231,,,,,,
1466441164.82,-2.546542,-0.969398,-1.432556,-0.046195,2.564516,-0.058346,-0.317157,0.824545,0.468547,0.801090,-0.762763,0.414983,-2.328288,-13.105718,23.058231,,,,,,
1466441164.83,-2.520722,-0.968698,-1.432208,-0.048372,2.529471,-0.056000,-0.329484,0.824149,0.460672,0.806061,-0.762733,0.440695,-2.328288,-13.105718,23.058231,,,,,,
1466441164.84,-2.497607,-0.968028,-1.431952,-0.041354,2.189679,-0.049604,-0.340375,0.823769,0.453375,0.867429,-0.754433,0.398996,-4.707519,-13.157973,22.662079,,,,,,
1466441164.85,-2.478587,-0.967511,-1.431757,-0.033348,1.794661,-0.038603,-0.349198,0.823476,0.447155,0.855378,-0.758413,0.370899,-4.707519,-13.157973,22.662079,,,,,,
1466441164.86,-2.462148,-0.967043,-1.431625,-0.031481,1.590785,-0.034129,-0.356743,0.823211,0.441654,0.834969,-0.759917,0.407680,-4.707519,-13.157973,22.662079,,,,,,
1466441164.87,-2.447637,-0.966666,-1.431487,-0.023234,1.379473,-0.029602,-0.363313,0.822996,0.436670,0.815156,-0.770842,0.432776,-6.559116,-13.203688,22.169874,,,,,,
1466441164.88,-2.436057,-0.966353,-1.431316,-0.014060,1.055616,-0.026497,-0.368512,0.822818,0.432630,0.835248,-0.774952,0.419696,-6.559116,-13.203688,22.169874,,,,,,
1466441164.89,-2.428096,-0.966174,-1.431110,-0.003881,0.690336,-0.018874,-0.372041,0.822717,0.429793,0.831849,-0.787073,0.402040,-6.559116,-13.203688,22.169874,,,,,,
1466441164.90,-2.423408,-0.966089,-1.430836,0.007426,0.367542,-0.016838,-0.374098,0.822669,0.428097,0.832365,-0.784384,0.410709,-6.559116,-13.203688,22.169874,,,,,,
1466441164.92,-2.424231,-0.966255,-1.430219,0.025689,-0.336469,-0.002825,-0.373655,0.822763,0.428302,0.810240,-0.771707,0.423383,-7.385872,-13.220103,21.898415,,,,,,
1466441164.91,-2.422028,-0.966118,-1.430547,0.014438,0.025621,-0.008300,-0.374673,0.822685,0.427563,0.822945,-0.780754,0.414539,-7.385872,-13.220103,21.898415,,,,,,
1466441164.93,-2.430216,-0.966535,-1.429893,0.035830,-0.728299,0.007094,-0.370935,0.822922,0.430356,0.802209,-0.772126,0.441378,-7.354689,-13.213455,21.912916,,,,,,
1466441164.94,-2.440509,-0.966935,-1.429541,0.046986,-1.166838,0.013049,-0.366273,0.823149,0.433900,0.807405,-0.771147,0.438048,-7.354689,-13.213455,21.912916,,,,,,
1466441164.95,-2.454521,-0.967453,-1.429205,0.054010,-1.502383,0.019418,-0.359888,0.823443,0.438660,0.791238,-0.769915,0.435837,-7.354689,-13.213455,21.912916,,,,,,
1466441164.96,-2.470549,-0.968033,-1.428885,0.057006,-1.657414,0.022522,-0.352514,0.823772,0.443997,0.771291,-0.769802,0.447833,-6.986632,-13.195518,22.043776,,,,,,
1466441164.97,-2.487622,-0.968642,-1.428585,0.060066,-1.762537,0.024249,-0.344577,0.824117,0.449552,0.765750,-0.774160,0.458178,-6.986632,-13.195518,22.043776,,,,,,
1466441164.98,-2.506639,-0.969313,-1.428323,0.062971,-1.987649,0.028857,-0.335638,0.824497,0.455578,0.780981,-0.771809,0.436954,-6.986632,-13.195518,22.043776,,,,,,
1466441164.99,-2.528357,-0.970064,-1.428059,0.071147,-2.255237,0.033737,-0.325309,0.824922,0.462253,0.797309,-0.764848,0.410519,-5.503375,-13.138581,22.493406,,,,,,
1466441165.01,-2.575345,-0.971619,-1.427873,0.064677,-2.310465,0.040463,-0.302549,0.825800,0.475940,0.731763,-0.753671,0.438153,-5.503375,-13.138581,22.493406,,,,,,
1466441165.00,-2.551919,-0.970849,-1.427913,0.068838,-2.393279,0.037793,-0.313968,0.825365,0.469251,0.780673,-0.760973,0.409701,-5.503375,-13.138581,22.493406,,,,,,
1466441165.02,-2.597520,-0.972334,-1.427918,0.057368,-2.195786,0.039737,-0.291616,0.826203,0.482026,0.721242,-0.756394,0.467071,-4.480572,-13.103673,22.739416,,,,,,
1466441165.03,-2.619778,-0.973034,-1.428018,0.058396,-2.223397,0.040975,-0.280527,0.826597,0.487896,0.741862,-0.761365,0.428273,-4.480572,-13.103673,22.739416,,,,,,
1466441165.04,-2.641503,-0.973739,-1.428110,0.057446,-2.135261,0.038293,-0.269583,0.826994,0.493362,0.731573,-0.774076,0.416321,-4.480572,-13.103673,22.739416,,,,,,
1466441165.05,-2.661850,-0.974381,-1.428174,0.055505,-1.991904,0.033134,-0.259244,0.827354,0.498274,0.742047,-0.782524,0.419206,-4.480572,-13.103673,22.739416,,,,,,
1466441165.07,-2.698352,-0.975608,-1.428195,0.052691,-1.698828,0.024906,-0.240452,0.828043,0.506486,0.723530,-0.778284,0.397277,-2.451393,-13.042786,23.081144,,,,,,
1466441165.06,-2.680885,-0.975020,-1.428204,0.055660,-1.872974,0.029195,-0.249478,0.827713,0.502645,0.731107,-0.789551,0.413386,-2.451393,-13.042786,23.081144,,,,,,
1466441165.08,-2.713946,-0.976148,-1.428188,0.046541,-1.514062,0.020548,-0.232339,0.828346,0.509767,0.716332,-0.777824,0.390319,-1.550579,-13.015806,23.174278,,,,,,
1466441165.09,-2.727127,-0.976604,-1.428170,0.041561,-1.241173,0.017767,-0.225448,0.828601,0.512439,0.698501,-0.771671,0.387708,-1.550579,-13.015806,23.174278,,,,,,
1466441165.10,-2.736860,-0.976977,-1.428133,0.033494,-0.890760,0.010239,-0.220328,0.828809,0.514325,0.695090,-0.776823,0.397830,-0.789352,-12.991506,23.226288,,,,,,
1466441165.11,-2.743513,-0.977250,-1.428005,0.027469,-0.609364,0.003146,-0.216814,0.828962,0.515571,0.692659,-0.783125,0.378762,-0.789352,-12.991506,23.226288,,,,,,
1466441165.12,-2.747535,-0.977473,-1.427824,0.021414,-0.350270,-0.002743,-0.214667,0.829087,0.516268,0.698920,-0.781449,0.372404,-0.789352,-12.991506,23.226288,,,,,,
1466441165.13,-2.748549,-0.977597,-1.427569,0.015417,-0.046576,-0.009975,-0.214104,0.829156,0.516390,0.698937,-0.780588,0.376249,-0.789352,-12.991506,23.226288,,,,,,
1466441165.14,-2.746794,-0.977656,-1.427266,0.010425,0.211456,-0.015857,-0.214992,0.829190,0.515968,0.709498,-0.776974,0.363747,-0.006065,-12.961249,23.256584,,,,,,
1466441165.15,-2.742558,-0.977629,-1.426905,0.004348,0.454621,-0.020581,-0.217184,0.829175,0.515074,0.710424,-0.777920,0.371477,-0.006065,-12.961249,23.256584,,,,,,
1466441165.16,-2.735881,-0.977556,-1.426508,0.001459,0.694596,-0.024218,-0.220642,0.829133,0.513668,0.717117,-0.773973,0.369938,-0.006065,-12.961249,23.256584,,,,,,
1466441165.17,-2.726860,-0.977398,-1.426095,-0.006766,0.923955,-0.027793,-0.225319,0.829045,0.511776,0.722039,-0.777989,0.374164,-0.243373,-12.952896,23.259964,,,,,,
1466441165.18,-2.715773,-0.977196,-1.425642,-0.009707,1.121461,-0.032228,-0.231049,0.828932,0.509400,0.720597,-0.770964,0.379837,-0.243373,-12.952896,23.259964,,,,,,
1466441165.19,-2.702556,-0.976920,-1.425184,-0.015820,1.337016,-0.035715,-0.237858,0.828778,0.506509,0.744542,-0.771939,0.387244,-0.243373,-12.952896,23.259964,,,,,,
1466441165.20,-2.687815,-0.976595,-1.424731,-0.018866,1.453818,-0.037515,-0.245417,0.828596,0.503189,0.770670,-0.767530,0.360306,-0.686694,-12.956285,23.249212,,,,,,
1466441165.21,-2.672837,-0.976245,-1.424293,-0.019920,1.462313,-0.037570,-0.253057,0.828400,0.499716,0.768377,-0.768097,0.365564,-0.686694,-12.956285,23.249212,,,,,,
1466441165.22,-2.657493,-0.975885,-1.423844,-0.019853,1.514345,-0.038960,-0.260833,0.828198,0.496038,0.778747,-0.766537,0.381830,-0.686694,-12.956285,23.249212,,,,,,
1466441165.23,-2.641650,-0.975490,-1.423439,-0.025129,1.553631,-0.038147,-0.268815,0.827977,0.492131,0.780824,-0.769063,0.378078,-1.985719,-12.975325,23.163778,,,,,,
1466441165.24,-2.630094,-0.974073,-1.426500,-0.024095,1.534501,-0.034835,-0.275059,0.827181,0.490014,0.779865,-0.764941,0.385764,-1.985719,-12.975325,23.163778,,,,,,
1466441165.25,-2.618987,-0.972614,-1.429827,-0.026244,1.517507,-0.035797,-0.281086,0.826361,0.487974,0.786213,-0.762762,0.386583,-1.985719,-12.975325,23.163778,,,,,,
1466441165.26,-2.615215,-0.969486,-1.438753,-0.024204,1.451644,-0.033259,-0.284222,0.824595,0.489143,0.772122,-0.760477,0.386314,-2.675701,-13.027546,23.064833,,,,,,
1466441165.28,-2.607861,-0.963776,-1.455245,-0.025458,1.309310,-0.029183,-0.290202,0.821351,0.491085,0.769496,-0.760286,0.380771,-2.675701,-13.027546,23.064833,,,,,,
1466441165.27,-2.607298,-0.967576,-1.443841,-0.025329,1.408091,-0.030861,-0.288887,0.823513,0.488232,0.782128,-0.761043,0.388446,-2.675701,-13.027546,23.064833,,,,,,
1466441165.29,-2.609457,-0.959663,-1.466580,-0.023461,1.210522,-0.025375,-0.291130,0.818998,0.494455,0.745598,-0.763517,0.398123,-3.844992,-13.388377,22.689867,,,,,,
1466441165.30,-2.601566,-0.958144,-1.469928,-0.023460,1.210515,-0.026441,-0.295661,0.818126,0.493208,0.741508,-0.760509,0.413118,-3.844992,-13.388377,22.689867,,,,,,
1466441165.31,-2.602476,-0.954572,-1.480340,-0.021388,1.169072,-0.025120,-0.296711,0.816066,0.495982,0.766010,-0.765316,0.389623,-3.844992,-13.388377,22.689867,,,,,,
1466441165.32,-2.594565,-0.953736,-1.482188,-0.018457,0.963069,-0.021697,-0.300980,0.815583,0.494202,0.784943,-0.759461,0.353836,-4.317723,-13.577134,22.491808,,,,,,
1466441165.33,-2.592090,-0.952414,-1.486337,-0.011350,0.695468,-0.015755,-0.302765,0.814817,0.494374,0.795365,-0.763197,0.351558,-4.317723,-13.577134,22.491808,,,,,,
1466441165.34,-2.586935,-0.952286,-1.486220,-0.006348,0.443809,-0.010979,-0.305365,0.814743,0.492896,0.799063,-0.760315,0.351114,-4.317723,-13.577134,22.491808,,,,,,
1466441165.35,-2.584436,-0.952244,-1.486111,0.002886,0.170913,-0.006065,-0.306613,0.814719,0.492160,0.797458,-0.763373,0.349362,-5.010494,-13.775220,22.226133,,,,,,
1466441165.36,-2.584691,-0.952283,-1.485994,0.007867,-0.100914,-0.003290,-0.306471,0.814741,0.492211,0.794813,-0.760008,0.355262,-5.010494,-13.775220,22.226133,,,,,,
1466441165.37,-2.587571,-0.952395,-1.485898,0.014986,-0.360010,0.002599,-0.305004,0.814806,0.493015,0.788372,-0.754931,0.349332,-5.010494,-13.775220,22.226133,,,,,,
1466441165.38,-2.592969,-0.952577,-1.485835,0.018932,-0.603176,0.008386,-0.302262,0.814912,0.494527,0.785065,-0.758759,0.357478,-5.054705,-13.774306,22.216688,,,,,,
1466441165.39,-2.600554,-0.952847,-1.485785,0.026118,-0.812361,0.011834,-0.298388,0.815068,0.496617,0.766330,-0.760792,0.363796,-5.054705,-13.774306,22.216688,,,,,,
1466441165.40,-2.609667,-0.953177,-1.485740,0.033413,-0.933419,0.015794,-0.293714,0.815259,0.499084,0.777173,-0.792585,0.377168,-5.054705,-13.774306,22.216688,,,,,,
1466441165.41,-2.616608,-0.953733,-1.485394,0.061184,-0.848515,0.024869,-0.290016,0.815581,0.500717,1.692878,-0.710128,-0.021653,-4.498159,-13.753964,22.348553,,,,,,
1466441165.42,-2.650445,-0.953709,-1.485883,-0.005018,-4.418222,0.032289,-0.272919,0.815567,0.510260,1.658829,-0.718720,-0.480032,-4.498159,-13.753964,22.348553,,,,,,
1466441165.43,-2.711781,-0.955191,-1.486608,0.151170,-6.279811,0.105858,-0.240624,0.816424,0.524930,1.811303,-0.738406,0.059848,-4.498159,-13.753964,22.348553,,,,,,
1466441165.44,-2.785262,-0.957333,-1.487727,0.175796,-7.795142,0.161157,-0.200827,0.817659,0.539539,2.183234,-0.761949,-0.108447,-3.590437,-13.743120,22.518841,,,,,,
1466441165.45,-2.891227,-0.960638,-1.489455,0.317056,-11.425592,0.211743,-0.141965,0.819557,0.555132,2.299070,-0.737160,-0.364611,-3.590437,-13.743120,22.518841,,,,,,
1466441165.46,-3.031962,-0.964397,-1.492691,0.347275,-14.448647,0.261601,-0.062355,0.821705,0.566491,2.239220,-0.766499,0.138694,-3.590437,-13.743120,22.518841,,,,,,
1466441165.47,3.087637,-0.968422,-1.497855,0.414959,-16.436508,0.322036,0.030556,0.823993,0.565776,2.251335,-0.735843,0.586003,4.858754,-13.540598,22.403294,,,,,,
1466441165.48,2.895785,-0.970842,-1.507142,0.264027,-19.319756,0.531569,0.137391,0.825361,0.547634,3.487502,-0.624998,0.327214,4.858754,-13.540598,22.403294,,,,,,
1466441165.49,2.609130,-0.966594,-1.524250,-0.135852,-30.573406,1.301092,0.288403,0.822956,0.489457,-3.718151,0.098706,0.110214,4.858754,-13.540598,22.403294,,,,,,
1466441165.50,2.523893,-0.969104,-1.527247,-0.282966,3.993582,-0.043097,0.327827,0.824379,0.461442,-3.330391,-1.866295,7.312957,12.033919,-13.458117,19.568512,,,,,,
1466441165.51,2.688885,-0.968365,-1.525417,0.424863,16.217285,-0.330879,0.247853,0.823960,0.509567,1.059062,-0.880021,2.487229,12.033919,-13.458117,19.568512,,,,,,
1466441165.52,2.775238,-0.968841,-1.517977,-0.503358,5.000424,-0.487120,0.202841,0.824230,0.528678,3.457041,-1.074733,-4.016426,12.033919,-13.458117,19.568512,,,,,,
1466441165.53,2.765701,-0.970098,-1.514030,0.330550,-2.150714,-0.245581,0.207493,0.824941,0.525756,0.974102,-1.005361,-1.152282,14.051622,-13.543473,18.110466,,,,,,
1466441165.54,2.783697,-0.971610,-1.511025,-0.135799,3.053231,-0.211623,0.197561,0.825795,0.528235,0.753931,-0.799092,0.190988,14.051622,-13.543473,18.110466,,,,,,
1466441165.55,2.823810,-0.971928,-1.508802,0.070938,3.432843,-0.064775,0.176137,0.825974,0.535483,1.143993,-0.655839,-1.062842,14.065072,-13.456294,18.164930,,,,,,
1466441165.56,2.834216,-0.971699,-1.507026,-0.073884,-0.019995,-0.069875,0.170613,0.825845,0.537468,1.861446,-0.635720,-1.308907,14.065072,-13.456294,18.164930,,,,,,
1466441165.57,2.812479,-0.972746,-1.508249,0.161366,-2.504916,0.013004,0.181975,0.826435,0.532814,1.422304,-0.792454,-0.923714,14.065072,-13.456294,18.164930,,,,,,
1466441165.58,2.781642,-0.972866,-1.509603,-0.001269,-3.027435,0.086373,0.198281,0.826502,0.526857,0.738838,-0.768183,-0.373583,14.065072,-13.456294,18.164930,,,,,,
1466441165.59,2.757018,-0.973452,-1.511129,0.112333,-2.002470,0.062256,0.211011,0.826832,0.521367,0.343005,-0.761265,0.254467,14.139688,-13.423268,18.131405,,,,,,
1466441165.60,2.745388,-0.973450,-1.511339,-0.024660,-0.944714,0.007586,0.217061,0.826831,0.518878,0.277126,-0.726657,0.418057,14.139688,-13.423268,18.131405,,,,,,
1466441165.61,2.740842,-0.973740,-1.511529,0.047603,-0.237537,-0.015938,0.219324,0.826994,0.517666,0.246069,-0.761015,0.499989,14.139688,-13.423268,18.131405,,,,,,
1466441165.62,2.744211,-0.973798,-1.511279,-0.017564,0.451582,-0.011809,0.217560,0.827026,0.518358,0.319412,-0.755127,0.428023,14.753246,-13.417100,17.640465,,,,,,
1466441165.64,2.764637,-0.973977,-1.510641,0.002826,1.412530,-0.027395,0.206873,0.827127,0.522555,0.496298,-0.852518,0.109784,14.753246,-13.417100,17.640465,,,,,,
1466441165.63,2.752125,-0.973864,-1.510890,0.005303,0.856118,-0.014323,0.213430,0.827064,0.520012,0.387995,-0.769416,0.352226,14.753246,-13.417100,17.640465,,,,,,
1466441165.65,2.785195,-0.973615,-1.509904,-0.070885,2.069817,-0.029462,0.196192,0.826924,0.526978,0.939306,-0.812993,-0.487442,14.428804,-13.402857,17.917471,,,,,,
1466441165.66,2.793810,-0.973205,-1.509718,-0.013680,0.219990,0.032226,0.191760,0.826693,0.528967,1.259473,-0.728045,-0.620459,14.428804,-13.402857,17.917471,,,,,,
1466441165.67,2.780758,-0.973167,-1.511017,0.006525,-1.433359,0.083064,0.198659,0.826672,0.526449,0.963771,-0.745190,-0.695974,13.917024,-13.416267,18.308004,,,,,,
1466441165.68,2.770467,-0.972690,-1.512232,-0.014791,-0.608315,0.073610,0.204209,0.826403,0.524744,0.467910,-0.738162,0.056356,13.917024,-13.416267,18.308004,,,,,,
1466441165.69,2.777403,-0.972402,-1.512779,-0.028431,1.184129,0.020842,0.200649,0.826241,0.526370,0.455891,-0.783593,0.205304,13.917024,-13.416267,18.308004,,,,,,
1466441165.70,2.791472,-0.971768,-1.512528,-0.061381,1.213903,0.011042,0.193403,0.825884,0.529633,0.925112,-0.797914,-0.334382,14.282956,-13.437219,18.008362,,,,,,
1466441165.71,2.792322,-0.971543,-1.512744,-0.008932,-0.252491,0.026678,0.193017,0.825757,0.529972,1.011893,-0.808896,-0.583408,14.282956,-13.437219,18.008362,,,,,,
,,,,,,,,,,,,,,,,29.719981,-95.399079,10.141656,-1.000000,-1.000000,1466441200.66
1466441165.72,2.787091,-0.971418,-1.513254,0.000458,-0.406457,0.027653,0.195822,0.825687,0.529051,0.777048,-0.811130,-0.240050,14.282956,-13.437219,18.008362,,,,,,
1466441165.73,2.787869,-0.971252,-1.513537,-0.014671,0.261430,0.021320,0.195458,0.825593,0.529332,0.634925,-0.765534,-0.060644,13.953016,-13.469038,18.241741,,,,,,
1466441165.74,2.793016,-0.971009,-1.513590,-0.024925,0.553469,0.005641,0.192800,0.825455,0.530520,0.735209,-0.776261,-0.170230,13.953016,-13.469038,18.241741,,,,,,
1466441165.75,2.796650,-0.970876,-1.513564,-0.006107,0.267850,0.002128,0.190907,0.825381,0.531320,0.841380,-0.785449,-0.298913,13.953016,-13.469038,18.241741,,,,,,
1466441165.77,2.796315,-0.971118,-1.513566,0.014806,-0.060217,-0.010696,0.191018,0.825517,0.531068,0.820075,-0.791002,-0.236207,13.835334,-13.479308,18.323606,,,,,,
1466441165.76,2.796885,-0.970949,-1.513599,0.010566,-0.028390,-0.000255,0.190762,0.825422,0.531309,0.839816,-0.784971,-0.286161,13.835334,-13.479308,18.323606,,,,,,
1466441165.78,2.795347,-0.971338,-1.513450,0.020045,-0.131354,-0.012373,0.191470,0.825641,0.530712,0.802899,-0.774341,-0.251308,13.835334,-13.479308,18.323606,,,,,,
1466441165.79,2.793183,-0.971646,-1.513425,0.028434,-0.232233,-0.010668,0.192531,0.825815,0.530058,0.735233,-0.771601,-0.235944,13.797216,-13.471540,18.358028,,,,,,
1466441165.80,2.793499,-0.971964,-1.513367,0.026786,0.144720,-0.017291,0.192274,0.825994,0.529872,0.687700,-0.778372,-0.126872,13.797216,-13.471540,18.358028,,,,,,
1466441165.81,2.796772,-0.972155,-1.513144,0.013162,0.319921,-0.017339,0.190486,0.826102,0.530350,0.746404,-0.783530,-0.197388,13.797216,-13.471540,18.358028,,,,,,
1466441165.82,2.798899,-0.972385,-1.512938,0.018262,0.138356,-0.018324,0.189293,0.826232,0.530574,0.803489,-0.785903,-0.283046,13.835832,-13.457489,18.339262,,,,,,
1466441165.83,2.799755,-0.972622,-1.512780,0.021366,0.071452,-0.014708,0.188773,0.826365,0.530552,0.782723,-0.779795,-0.245121,13.835832,-13.457489,18.339262,,,,,,
1466441165.84,2.800784,-0.972834,-1.512823,0.020336,0.119199,-0.002235,0.188169,0.826485,0.530581,0.750506,-0.766075,-0.211031,13.835832,-13.457489,18.339262,,,,,,
1466441165.85,2.801841,-0.972963,-1.513032,0.014992,0.120234,0.008397,0.187573,0.826557,0.530679,0.754322,-0.759083,-0.221200,13.717944,-13.436300,18.443064,,,,,,
1466441165.86,2.802505,-0.973027,-1.513394,0.011750,0.095791,0.017063,0.187202,0.826593,0.530753,0.758965,-0.762995,-0.231940,13.717944,-13.436300,18.443064,,,,,,
1466441165.87,2.803406,-0.973030,-1.513695,0.005405,0.126592,0.014735,0.186723,0.826595,0.530919,0.756941,-0.775356,-0.222982,13.717944,-13.436300,18.443064,,,,,,
1466441165.88,2.805040,-0.973018,-1.513878,0.000183,0.197753,0.007896,0.185858,0.826588,0.531233,0.754922,-0.788594,-0.201170,13.674265,-13.434236,18.476974,,,,,,
1466441165.89,2.807438,-0.972989,-1.513924,-0.000809,0.248732,0.003318,0.184592,0.826572,0.531700,0.771096,-0.789844,-0.203025,13.674265,-13.434236,18.476974,,,,,,
1466441165.90,2.809631,-0.972994,-1.513972,0.001289,0.220068,0.001371,0.183424,0.826574,0.532100,0.762987,-0.784445,-0.216365,13.674265,-13.434236,18.476974,,,,,,
1466441165.91,2.812275,-0.972966,-1.513866,-0.006092,0.265750,-0.006374,0.182024,0.826559,0.532604,0.773725,-0.783438,-0.217938,13.529100,-13.437162,18.581411,,,,,,
1466441165.92,2.815238,-0.972958,-1.513690,-0.001811,0.278498,-0.009643,0.180447,0.826554,0.533148,0.768665,-0.779298,-0.205664,13.529100,-13.437162,18.581411,,,,,,
1466441165.93,2.818041,-0.972995,-1.513572,0.002426,0.265745,-0.006366,0.178942,0.826575,0.533623,0.772458,-0.784202,-0.196480,13.529100,-13.437162,18.581411,,,,,,
1466441165.94,2.820671,-0.973028,-1.513503,0.001344,0.255122,-0.004171,0.177530,0.826594,0.534066,0.775030,-0.782923,-0.208367,13.430904,-13.436870,18.652723,,,,,,
1466441165.95,2.822927,-0.973076,-1.513438,0.004477,0.205219,-0.004919,0.176312,0.826621,0.534427,0.787753,-0.779914,-0.218173,13.430904,-13.436870,18.652723,,,,,,
1466441165.96,2.824673,-0.973192,-1.513398,0.011883,0.163811,-0.006781,0.175349,0.826686,0.534643,0.786138,-0.779002,-0.201635,13.430904,-13.436870,18.652723,,,,,,
1466441165.97,2.826352,-0.973313,-1.513361,0.009758,0.169118,-0.005752,0.174420,0.826754,0.534842,0.772998,-0.776064,-0.202185,13.261947,-13.430624,18.777699,,,,,,
1466441165.98,2.827992,-0.973386,-1.513366,0.006537,0.156363,-0.000353,0.173524,0.826795,0.535069,0.774932,-0.774122,-0.205815,13.261947,-13.430624,18.777699,,,,,,
1466441165.99,2.829284,-0.973478,-1.513425,0.010761,0.129813,0.000882,0.172809,0.826847,0.535221,0.774380,-0.778308,-0.200672,13.261947,-13.430624,18.777699,,,,,,
1466441166.00,2.830527,-0.973572,-1.513466,0.009700,0.129819,-0.001248,0.172120,0.826900,0.535361,0.774444,-0.781688,-0.192969,13.201079,-13.426235,18.823669,,,,,,
1466441166.01,2.832071,-0.973655,-1.513388,0.005488,0.153205,-0.009914,0.171273,0.826946,0.535561,0.776313,-0.786510,-0.194008,13.201079,-13.426235,18.823669,,,,,,
1466441166.02,2.739291,-0.934694,-1.590570,0.004405,0.192279,-0.005861,0.232598,0.804417,0.546636,0.704200,-0.762501,-0.198903,13.201079,-13.426235,18.823669,,,,,,
1466441166.04,2.602240,-0.859190,-1.700793,0.001110,0.200412,-0.000518,0.335394,0.757314,0.560345,0.597101,-0.707357,-0.208004,12.902631,-14.530127,18.200558,,,,,,
1466441166.03,2.664590,-0.896120,-1.651298,0.006465,0.185714,-0.001522,0.286786,0.780909,0.554918,0.639697,-0.731608,-0.197634,12.902631,-14.530127,18.200558,,,,,,
1466441166.05,2.550611,-0.823745,-1.740995,0.001080,0.225719,0.007873,0.378590,0.733695,0.564235,0.552929,-0.685233,-0.206371,12.902631,-14.530127,18.200558,,,,,,
1466441166.06,2.508856,-0.790475,-1.772916,0.000004,0.255305,0.011975,0.416022,0.710688,0.567317,0.483606,-0.651255,-0.198451,12.320216,-16.370358,17.002541,,,,,,
1466441166.07,2.470270,-0.759720,-1.801874,-0.006467,0.237090,0.023825,0.450984,0.688719,0.567697,0.509527,-0.639234,-0.221491,12.320216,-16.370358,17.002541,,,,,,
1466441166.08,2.436203,-0.730660,-1.826073,0.006138,0.128655,0.025613,0.482834,0.667361,0.567010,0.446640,-0.610476,-0.215631,12.320216,-16.370358,17.002541,,,,,,
1466441166.09,2.405951,-0.703052,-1.847025,-0.002314,0.165777,-0.000145,0.511936,0.646549,0.565594,0.441922,-0.603092,-0.216793,10.963139,-18.932594,15.173307,,,,,,
1466441166.10,2.381686,-0.676426,-1.864046,-0.003306,0.243196,-0.003797,0.537179,0.626010,0.565288,0.427390,-0.594760,-0.192043,10.963139,-18.932594,15.173307,,,,,,
1466441166.11,2.383832,-0.676364,-1.864196,0.006233,0.238891,0.015400,0.535991,0.625961,0.566468,0.346989,-0.576370,-0.158051,10.963139,-18.932594,15.173307,,,,,,
1466441166.12,2.386624,-0.676292,-1.864292,-0.005422,0.296214,0.022480,0.534438,0.625906,0.567995,0.407456,-0.596334,-0.194704,10.285195,-19.857210,14.448833,,,,,,
1466441166.13,2.387284,-0.676063,-1.864687,0.011214,0.012643,0.046628,0.534161,0.625727,0.568452,0.388095,-0.555186,-0.224885,10.285195,-19.857210,14.448833,,,,,,
1466441166.14,2.389668,-0.676318,-1.864536,-0.003022,0.367603,-0.068444,0.532696,0.625926,0.569607,0.402897,-0.603312,-0.188183,10.285195,-19.857210,14.448833,,,,,,
1466441166.15,2.394347,-0.676349,-1.864037,-0.010742,0.268663,0.003487,0.530012,0.625950,0.572079,0.531161,-0.629169,-0.240322,10.158060,-19.858147,14.537213,,,,,,
1466441166.16,2.392824,-0.675936,-1.865506,0.058949,0.004955,0.130816,0.531058,0.625628,0.571461,0.062311,-0.490801,-0.031086,10.158060,-19.858147,14.537213,,,,,,
1466441166.17,2.402884,-0.676386,-1.864200,-0.083615,1.283251,-0.195614,0.525092,0.625979,0.576566,0.571831,-0.620165,-0.202024,10.158060,-19.858147,14.537213,,,,,,
1466441166.18,2.403435,-0.675890,-1.864405,0.049475,-0.740455,0.146125,0.524984,0.625592,0.577085,0.579875,-0.537182,-0.427610,10.087106,-19.862944,14.580008,,,,,,
1466441166.19,2.405021,-0.676459,-1.865637,0.042895,1.270203,-0.107057,0.523829,0.626035,0.577653,-0.236170,-0.515073,0.339247,10.087106,-19.862944,14.580008,,,,,,
1466441166.20,2.422389,-0.675978,-1.862998,-0.155931,0.768915,-0.025342,0.513915,0.625661,0.586890,1.236344,-0.748799,-0.661551,10.087106,-19.862944,14.580008,,,,,,
1466441166.21,2.417808,-0.676342,-1.865164,0.184535,0.010119,0.160713,0.516448,0.625945,0.584358,-0.410872,-0.496382,0.151283,9.704788,-19.867100,14.831664,,,,,,
1466441166.22,2.433461,-0.675823,-1.864327,-0.197401,1.707490,-0.002529,0.507449,0.625539,0.592617,0.699734,-0.674627,-0.169415,9.704788,-19.867100,14.831664,,,,,,
1466441166.23,2.437994,-0.675938,-1.863830,0.073201,0.092429,-0.019806,0.504711,0.625629,0.594857,0.423542,-0.602482,-0.463067,9.704788,-19.867100,14.831664,,,,,,
1466441166.24,2.442149,-0.675950,-1.864776,-0.018881,0.668797,0.062708,0.502231,0.625639,0.596943,0.274991,-0.566633,0.001919,9.509913,-19.867252,14.957158,,,,,,
1466441166.25,2.451560,-0.675464,-1.864256,-0.048156,0.929243,-0.044336,0.496784,0.625260,0.601877,0.468853,-0.586792,-0.234461,9.509913,-19.867252,14.957158,,,,,,
1466441166.26,2.452716,-0.675717,-1.863954,0.026044,-0.180384,-0.035173,0.495987,0.625457,0.602329,0.637421,-0.580398,-0.393360,9.509913,-19.867252,14.957158,,,,,,
1466441166.27,2.455041,-0.675839,-1.863923,-0.007244,0.494851,-0.007508,0.494538,0.625552,0.603421,0.276382,-0.597048,-0.042035,9.226826,-19.869833,15.130042,,,,,,
1466441166.28,2.461708,-0.675582,-1.863665,-0.025257,0.588258,0.006791,0.490604,0.625352,0.606830,0.387722,-0.570603,-0.107837,9.226826,-19.869833,15.130042,,,,,,
1466441166.29,2.465234,-0.675505,-1.863799,0.003131,0.313217,0.015995,0.488492,0.625291,0.608594,0.381702,-0.568147,-0.174115,9.226826,-19.869833,15.130042,,,,,,
1466441166.30,2.468863,-0.675291,-1.863880,-0.020206,0.386487,0.017641,0.486363,0.625124,0.610467,0.414394,-0.551729,-0.208948,9.094970,-19.872759,15.205845,,,,,,
1466441166.31,2.472352,-0.675172,-1.863973,0.005292,0.330219,0.010568,0.484276,0.625032,0.612219,0.415687,-0.573060,-0.150808,9.094970,-19.872759,15.205845,,,,,,
1466441166.32,2.475879,-0.675259,-1.864074,0.006452,0.380167,-0.005711,0.482081,0.625099,0.613880,0.405020,-0.611153,-0.124744,9.094970,-19.872759,15.205845,,,,,,
1466441166.34,2.481566,-0.675759,-1.863906,0.026487,0.199695,-0.020526,0.478390,0.625489,0.616365,0.435260,-0.587892,-0.173692,8.865684,-19.877634,15.334341,,,,,,
1466441166.33,2.479361,-0.675431,-1.863959,0.011724,0.312256,-0.022311,0.479874,0.625234,0.615470,0.454452,-0.594457,-0.184501,8.865684,-19.877634,15.334341,,,,,,
1466441166.35,2.484243,-0.676085,-1.863856,0.021288,0.295265,-0.023259,0.476614,0.625744,0.617482,0.386057,-0.585964,-0.126607,8.865684,-19.877634,15.334341,,,,,,
1466441166.36,2.487492,-0.676358,-1.863815,0.020238,0.315425,-0.018064,0.474501,0.625957,0.618892,0.390459,-0.570369,-0.141398,8.788083,-19.869200,15.389843,,,,,,
1466441166.37,2.489982,-0.676615,-1.863877,0.025451,0.241073,-0.009077,0.472861,0.626157,0.619943,0.393564,-0.575269,-0.159311,8.788083,-19.869200,15.389843,,,,,,
1466441166.38,2.492869,-0.676860,-1.863948,0.021293,0.319652,-0.010639,0.470976,0.626349,0.621183,0.380205,-0.582754,-0.134962,8.788083,-19.869200,15.389843,,,,,,
1466441166.40,2.500330,-0.677219,-1.863941,0.013902,0.370619,-0.009901,0.466194,0.626628,0.624500,0.388817,-0.581706,-0.147342,8.625887,-19.849775,15.506235,,,,,,
1466441166.39,2.496608,-0.677053,-1.863940,0.012850,0.378058,-0.012078,0.468578,0.626498,0.622844,0.389133,-0.582675,-0.132411,8.625887,-19.849775,15.506235,,,,,,
1466441166.41,2.504252,-0.677339,-1.863954,0.009676,0.403525,-0.005854,0.463697,0.626721,0.626263,0.384112,-0.575559,-0.145047,8.625887,-19.849775,15.506235,,,,,,
1466441166.42,2.508561,-0.677437,-1.863959,0.006523,0.438563,-0.005012,0.460958,0.626798,0.628206,0.386820,-0.578519,-0.132555,8.514365,-19.843485,15.575766,,,,,,
1466441166.43,2.512907,-0.677553,-1.863955,0.009712,0.429014,-0.008143,0.458180,0.626888,0.630145,0.398128,-0.582683,-0.141497,8.514365,-19.843485,15.575766,,,,,,
1466441166.44,2.517087,-0.677700,-1.863930,0.010762,0.412034,-0.011228,0.455489,0.627003,0.631979,0.404573,-0.587452,-0.145499,8.514365,-19.843485,15.575766,,,,,,
1466441166.45,2.521156,-0.677879,-1.863869,0.013950,0.400364,-0.015410,0.452848,0.627143,0.633736,0.406711,-0.590232,-0.137795,8.258007,-19.835058,15.723823,,,,,,
1466441166.46,2.524955,-0.678150,-1.863866,0.022433,0.372753,-0.015228,0.450339,0.627353,0.635313,0.403970,-0.590213,-0.135405,8.258007,-19.835058,15.723823,,,,,,
1466441166.47,2.528586,-0.678443,-1.863868,0.024552,0.361078,-0.017282,0.447923,0.627581,0.636794,0.403639,-0.592700,-0.132857,8.140627,-19.827265,15.794698,,,,,,
1466441166.48,2.532248,-0.678759,-1.863898,0.027758,0.371692,-0.016281,0.445475,0.627828,0.638267,0.391607,-0.580434,-0.132942,8.140627,-19.827265,15.794698,,,,,,
1466441166.49,2.536230,-0.679069,-1.863926,0.027805,0.410975,-0.015463,0.442819,0.628069,0.639876,0.382560,-0.583910,-0.125425,8.140627,-19.827265,15.794698,,,,,,
1466441166.50,2.540614,-0.679379,-1.863956,0.026787,0.448139,-0.015697,0.439899,0.628310,0.641650,0.383038,-0.578917,-0.126300,8.140627,-19.827265,15.794698,,,,,,
1466441166.51,2.545354,-0.679625,-1.863933,0.017247,0.482121,-0.015919,0.436766,0.628501,0.643601,0.380587,-0.584373,-0.126648,7.904054,-19.805454,15.941540,,,,,,
1466441166.52,2.550365,-0.679810,-1.863903,0.013003,0.501224,-0.011786,0.433470,0.628646,0.645684,0.386613,-0.578704,-0.132226,7.904054,-19.805454,15.941540,,,,,,
1466441166.53,2.555387,-0.679950,-1.863898,0.010868,0.503337,-0.007543,0.430174,0.628754,0.647780,0.385027,-0.579529,-0.131743,7.904054,-19.805454,15.941540,,,,,,
1466441166.54,2.560526,-0.680092,-1.863926,0.013010,0.518193,-0.004441,0.426790,0.628864,0.649907,0.384397,-0.580967,-0.126729,7.754191,-19.797949,16.024250,,,,,,
1466441166.55,2.565654,-0.680216,-1.863962,0.011938,0.513943,-0.003351,0.423409,0.628961,0.652022,0.392249,-0.579400,-0.127821,7.754191,-19.797949,16.024250,,,,,,
1466441166.56,2.570873,-0.680294,-1.864015,0.007690,0.527740,-0.000248,0.419975,0.629021,0.654181,0.386986,-0.582970,-0.125220,7.754191,-19.797949,16.024250,,,,,,
1466441166.57,2.576172,-0.680343,-1.864075,0.007697,0.535170,0.000770,0.416486,0.629059,0.656372,0.388095,-0.584122,-0.129883,7.426543,-19.789211,16.189392,,,,,,
1466441166.58,2.581651,-0.680427,-1.864117,0.007229,0.551484,-0.002283,0.412855,0.629125,0.658599,0.390123,-0.589452,-0.117889,7.426543,-19.789211,16.189392,,,,,,
1466441166.59,2.586861,-0.680494,-1.864139,0.007178,0.511135,-0.002030,0.409396,0.629177,0.660705,0.392881,-0.583813,-0.130309,7.426543,-19.789211,16.189392,,,,,,
1466441166.60,2.591836,-0.680572,-1.864179,0.007160,0.500511,0.000166,0.406078,0.629237,0.662692,0.392201,-0.583370,-0.122333,7.250652,-19.786671,16.272015,,,,,,
1466441166.61,2.596898,-0.680620,-1.864243,0.006106,0.512186,0.002221,0.402703,0.629275,0.664714,0.388252,-0.581072,-0.123973,7.250652,-19.786671,16.272015,,,,,,
1466441166.62,2.601951,-0.680603,-1.864311,0.000771,0.510053,0.006486,0.399344,0.629262,0.666749,0.381357,-0.575032,-0.120790,7.250652,-19.786671,16.272015,,,,,,
1466441166.63,2.607140,-0.680565,-1.864426,0.000790,0.530218,0.009553,0.395891,0.629232,0.668832,0.389540,-0.582723,-0.124979,6.916078,-19.783186,16.421211,,,,,,
1466441166.64,2.612429,-0.680465,-1.864516,-0.007733,0.531276,0.012732,0.392380,0.629155,0.670971,0.390838,-0.582432,-0.125332,6.916078,-19.783186,16.421211,,,,,,
1466441166.65,2.617597,-0.680360,-1.864604,-0.005609,0.522786,0.010658,0.388940,0.629073,0.673047,0.381232,-0.583358,-0.113233,6.916078,-19.783186,16.421211,,,,,,
1466441166.66,2.603252,-0.659918,-1.876951,-0.005622,0.545000,0.014822,0.405065,0.613052,0.678300,0.378596,-0.571822,-0.121369,6.737425,-19.785213,16.492880,,,,,,
1466441166.67,2.591543,-0.642359,-1.887283,-0.003567,0.508830,0.016156,0.418542,0.599086,0.682582,0.363136,-0.557994,-0.131817,6.737425,-19.785213,16.492880,,,,,,
1466441166.68,2.578878,-0.623569,-1.897782,-0.005747,0.489653,0.015252,0.433082,0.583936,0.686628,0.341210,-0.537641,-0.134504,6.737425,-19.785213,16.492880,,,,,,
1466441166.69,2.567784,-0.605173,-1.906998,-0.008988,0.473667,0.014326,0.446429,0.568905,0.690687,0.313886,-0.526241,-0.130323,5.897239,-20.676542,15.702415,,,,,,
1466441166.70,2.554921,-0.585341,-1.916908,-0.002654,0.459780,0.017658,0.461432,0.552483,0.694149,0.313379,-0.510568,-0.135082,5.897239,-20.676542,15.702415,,,,,,
1466441166.71,2.542830,-0.566621,-1.925906,-0.003814,0.406621,0.018034,0.475538,0.536784,0.696941,0.291964,-0.493556,-0.143550,5.897239,-20.676542,15.702415,,,,,,
1466441166.72,2.529686,-0.546186,-1.935025,-0.002793,0.394870,0.017091,0.490856,0.519432,0.699465,0.277073,-0.476097,-0.137026,5.386667,-21.231230,15.135438,,,,,,
1466441166.73,2.518303,-0.527065,-1.942996,-0.004945,0.399053,0.016042,0.504493,0.502999,0.701769,0.261560,-0.464394,-0.137712,5.386667,-21.231230,15.135438,,,,,,
1466441166.74,2.508291,-0.509686,-1.949935,-0.001817,0.371376,0.018388,0.516589,0.487903,0.703624,0.236768,-0.446445,-0.144450,5.386667,-21.231230,15.135438,,,,,,
1466441166.75,2.499543,-0.492904,-1.955971,-0.007178,0.358586,0.016373,0.527554,0.473186,0.705536,0.210300,-0.432384,-0.141114,4.370462,-22.223848,13.995088,,,,,,
1466441166.76,2.490634,-0.476613,-1.961957,-0.000808,0.371254,0.020596,0.538419,0.458772,0.706847,0.216754,-0.416246,-0.140823,4.370462,-22.223848,13.995088,,,,,,
1466441166.77,2.482091,-0.461649,-1.967522,-0.003011,0.332970,0.021934,0.548583,0.445425,0.707569,0.206849,-0.404302,-0.152667,4.370462,-22.223848,13.995088,,,,,,
1466441166.78,2.473913,-0.447202,-1.972618,0.005440,0.295751,0.021146,0.558277,0.432444,0.708038,0.188763,-0.384700,-0.147293,3.900599,-22.617731,13.493934,,,,,,
1466441166.79,2.465044,-0.433297,-1.977798,0.002193,0.274453,0.023440,0.568245,0.419865,0.707680,0.186562,-0.377522,-0.165077,3.900599,-22.617731,13.493934,,,,,,
1466441166.80,2.457477,-0.419200,-1.982044,0.001030,0.217061,0.025962,0.577267,0.407030,0.707877,0.164463,-0.375399,-0.141745,3.900599,-22.617731,13.493934,,,,,,
1466441166.81,2.450080,-0.405675,-1.986152,0.010626,0.241435,0.023722,0.585945,0.394639,0.707763,0.170464,-0.365952,-0.137039,3.078799,-23.234152,12.631626,,,,,,
1466441166.82,2.442406,-0.393822,-1.990211,0.005250,0.211662,0.021805,0.594328,0.383721,0.706776,0.163027,-0.340279,-0.160420,3.078799,-23.234152,12.631626,,,,,,
1466441166.83,2.434900,-0.382511,-1.993893,0.015805,0.148970,0.020109,0.602395,0.373251,0.705552,0.145423,-0.329810,-0.155777,3.078799,-23.234152,12.631626,,,,,,
1466441166.84,2.428120,-0.371388,-1.997126,0.008323,0.142557,0.021235,0.609845,0.362909,0.704547,0.127795,-0.327020,-0.152423,2.713058,-23.481438,12.252520,,,,,,
1466441166.85,2.421330,-0.360830,-2.000283,0.012543,0.131883,0.025591,0.617108,0.353051,0.703231,0.130375,-0.318307,-0.153746,2.713058,-23.481438,12.252520,,,,,,
1466441166.86,2.413376,-0.351189,-2.003628,0.005007,0.078748,0.025943,0.624918,0.344015,0.700807,0.141012,-0.302313,-0.173250,2.713058,-23.481438,12.252520,,,,,,
1466441166.87,2.405721,-0.341754,-2.006524,0.013397,-0.007309,0.028645,0.632415,0.335140,0.698378,0.118531,-0.297817,-0.161986,2.116914,-23.858818,11.624896,,,,,,
1466441166.88,2.398491,-0.332800,-2.009176,0.013378,-0.007353,0.030798,0.639452,0.326690,0.695970,0.116727,-0.287506,-0.150316,2.116914,-23.858818,11.624896,,,,,,
1466441166.89,2.390879,-0.324204,-2.011839,0.021835,-0.050919,0.026845,0.646623,0.318554,0.693110,0.128188,-0.284436,-0.151683,2.116914,-23.858818,11.624896,,,,,,
1466441166.90,2.382552,-0.316291,-2.014518,0.029213,-0.107226,0.022971,0.654087,0.311044,0.689509,0.126980,-0.273736,-0.159205,1.878451,-24.007580,11.356509,,,,,,
1466441166.91,2.374785,-0.308584,-2.016785,0.027041,-0.142279,0.015759,0.661066,0.303709,0.686114,0.103353,-0.270750,-0.152682,1.878451,-24.007580,11.356509,,,,,,
1466441166.92,2.367461,-0.301230,-2.018870,0.029153,-0.142317,0.017911,0.667616,0.296695,0.682832,0.090043,-0.264301,-0.150285,1.878451,-24.007580,11.356509,,,,,,
1466441166.93,2.360113,-0.294288,-2.020889,0.020601,-0.152975,0.022247,0.674051,0.290058,0.679354,0.083838,-0.253849,-0.157809,1.504970,-24.240211,10.909172,,,,,,
1466441166.94,2.353162,-0.287716,-2.022747,0.021638,-0.160446,0.025507,0.680094,0.283763,0.675981,0.065908,-0.244258,-0.155931,1.504970,-24.240211,10.909172,,,,,,
1466441166.95,2.346649,-0.281332,-2.024480,0.011010,-0.129689,0.029580,0.685762,0.277635,0.672793,0.068419,-0.237154,-0.151995,1.504970,-24.240211,10.909172,,,,,,
1466441166.96,2.340390,-0.275166,-2.026161,0.013132,-0.118052,0.034849,0.691175,0.271707,0.669666,0.067980,-0.230416,-0.148242,1.352327,-24.333086,10.720766,,,,,,
1466441166.97,2.333812,-0.269261,-2.027939,0.006738,-0.115954,0.033782,0.696713,0.266019,0.666202,0.083576,-0.224881,-0.157932,1.352327,-24.333086,10.720766,,,,,,
1466441166.98,2.327522,-0.263384,-2.029520,0.009884,-0.142533,0.036098,0.702014,0.260349,0.662869,0.063565,-0.225010,-0.153134,1.352327,-24.333086,10.720766,,,,,,
1466441166.99,2.321712,-0.257717,-2.031019,0.004618,-0.090526,0.034718,0.706921,0.254873,0.659775,0.072071,-0.219061,-0.146515,1.066174,-24.489035,10.392936,,,,,,
1466441167.00,2.315516,-0.252258,-2.032579,0.002448,-0.112855,0.035937,0.712008,0.249591,0.656315,0.082060,-0.214068,-0.157490,1.066174,-24.489035,10.392936,,,,,,
1466441167.01,2.308898,-0.246938,-2.034121,0.005565,-0.163858,0.038405,0.717308,0.244436,0.652473,0.073037,-0.212621,-0.161521,1.066174,-24.489035,10.392936,,,,,,
1466441167.02,2.302531,-0.241791,-2.035538,0.005546,-0.169197,0.039518,0.722374,0.239441,0.648725,0.068184,-0.207337,-0.153485,0.933069,-24.555202,10.248619,,,,,,
1466441167.03,2.300776,-0.241490,-2.035819,-0.001909,-0.171317,0.039524,0.723564,0.239150,0.647505,0.083534,-0.202086,-0.160017,0.933069,-24.555202,10.248619,,,,,,
1466441167.04,2.298596,-0.241196,-2.036128,0.004411,-0.220171,0.043030,0.725027,0.238864,0.645972,0.075495,-0.205692,-0.172034,0.933069,-24.555202,10.248619,,,,,,
1466441167.05,2.296139,-0.240858,-2.036439,0.000114,-0.245661,0.046379,0.726672,0.238536,0.644242,0.087995,-0.204876,-0.166779,0.838173,-24.614172,10.114481,,,,,,
1466441167.06,2.293296,-0.240538,-2.036790,0.004328,-0.281765,0.046610,0.728558,0.238225,0.642224,0.093280,-0.205846,-0.163266,0.838173,-24.614172,10.114481,,,,,,
1466441167.07,2.290194,-0.240224,-2.037134,0.003223,-0.313618,0.046808,0.730603,0.237920,0.640010,0.094150,-0.203038,-0.172756,0.838173,-24.614172,10.114481,,,,,,
1466441167.08,2.286893,-0.239920,-2.037509,0.006421,-0.310434,0.046792,0.732766,0.237625,0.637643,0.084083,-0.209594,-0.159738,0.867567,-24.614504,10.111195,,,,,,
1466441167.09,2.283918,-0.239596,-2.037792,-0.002070,-0.299795,0.040330,0.734718,0.237310,0.635510,0.112984,-0.204580,-0.163571,0.867567,-24.614504,10.111195,,,,,,
1466441167.10,2.280334,-0.239328,-2.038087,0.004248,-0.357132,0.039631,0.737039,0.237050,0.632914,0.098593,-0.205571,-0.188487,0.867567,-24.614504,10.111195,,,,,,
1466441167.11,2.276505,-0.238979,-2.038365,-0.004319,-0.384755,0.047247,0.739520,0.236711,0.630141,0.101514,-0.207948,-0.188582,0.952624,-24.614508,10.103527,,,,,,
1466441167.12,2.272324,-0.238537,-2.038692,-0.004376,-0.416633,0.055963,0.742228,0.236281,0.627111,0.103994,-0.204345,-0.187811,0.952624,-24.614508,10.103527,,,,,,
1466441167.13,2.267809,-0.238089,-2.038999,-0.006551,-0.454854,0.055136,0.745133,0.235846,0.623821,0.102492,-0.206473,-0.184826,0.952624,-24.614508,10.103527,,,,,,
1466441167.14,2.263412,-0.237652,-2.039387,0.003075,-0.416639,0.057034,0.747948,0.235421,0.620605,0.118797,-0.208795,-0.139358,1.007862,-24.616133,10.094204,,,,,,
1466441167.15,2.259554,-0.237264,-2.039787,0.006355,-0.357165,0.051343,0.750407,0.235044,0.617773,0.102483,-0.211729,-0.149847,1.007862,-24.616133,10.094204,,,,,,
1466441167.16,2.256289,-0.236905,-2.040062,-0.006359,-0.318914,0.043639,0.752485,0.234695,0.615373,0.122972,-0.199081,-0.180421,1.007862,-24.616133,10.094204,,,,,,
1466441167.17,2.252762,-0.236499,-2.040324,-0.004279,-0.349722,0.049156,0.754725,0.234301,0.612775,0.110326,-0.214846,-0.176724,1.114498,-24.618567,10.077043,,,,,,
1466441167.18,2.249586,-0.236082,-2.040559,-0.011663,-0.299804,0.045643,0.756744,0.233895,0.610436,0.117585,-0.195260,-0.185723,1.114498,-24.618567,10.077043,,,,,,
1466441167.19,2.246573,-0.235589,-2.040756,-0.016996,-0.295575,0.053062,0.758669,0.233416,0.608225,0.106992,-0.209780,-0.185496,1.114498,-24.618567,10.077043,,,,,,
1466441167.20,2.244094,-0.235058,-2.040942,-0.017971,-0.223372,0.052608,0.760272,0.232900,0.606420,0.126493,-0.204610,-0.150334,1.157612,-24.621086,10.066022,,,,,,
1466441167.21,2.242149,-0.234510,-2.041204,-0.014722,-0.173480,0.056556,0.761549,0.232366,0.605019,0.117235,-0.211767,-0.166649,1.157612,-24.621086,10.066022,,,,,,
1466441167.22,2.240669,-0.233909,-2.041340,-0.030648,-0.139492,0.055263,0.762553,0.231782,0.603978,0.142003,-0.205659,-0.169469,1.157612,-24.621086,10.066022,,,,,,
1466441167.23,2.239833,-0.233346,-2.041404,-0.029467,-0.059834,0.046249,0.763160,0.231235,0.603421,0.139458,-0.199664,-0.153760,1.191929,-24.631308,10.036967,,,,,,
1466441167.24,2.239962,-0.232755,-2.041403,-0.040002,0.032543,0.047788,0.763189,0.230659,0.603604,0.137094,-0.210120,-0.162305,1.191929,-24.631308,10.036967,,,,,,
1466441167.25,2.240511,-0.232136,-2.041354,-0.041036,0.053785,0.045525,0.762970,0.230057,0.604112,0.159943,-0.206391,-0.162080,1.191929,-24.631308,10.036967,,,,,,
1466441167.26,2.241307,-0.231568,-2.041341,-0.036713,0.101570,0.043100,0.762591,0.229504,0.604800,0.149015,-0.203213,-0.177844,1.175642,-24.639135,10.019668,,,,,,
1466441167.27,2.242775,-0.230958,-2.041198,-0.051559,0.142999,0.038568,0.761811,0.228910,0.606006,0.196196,-0.205137,-0.155063,1.175642,-24.639135,10.019668,,,,,,
1466441167.28,2.243946,-0.230409,-2.041102,-0.036688,0.113264,0.037705,0.761200,0.228375,0.606976,0.185517,-0.213117,-0.163968,1.175642,-24.639135,10.019668,,,,,,
1466441167.29,2.245241,-0.229836,-2.041020,-0.045196,0.122822,0.038701,0.760515,0.227818,0.608043,0.210249,-0.209965,-0.181163,1.095684,-24.657894,9.982510,,,,,,
1466441167.30,2.245968,-0.229316,-2.040915,-0.035674,0.062315,0.031639,0.760165,0.227311,0.608669,0.216107,-0.204148,-0.145062,1.095684,-24.657894,9.982510,,,,,,
1466441167.31,2.246926,-0.228960,-2.040774,-0.036659,0.100584,0.015431,0.759645,0.226964,0.609448,0.225325,-0.185796,-0.167599,1.095684,-24.657894,9.982510,,,,,,
1466441167.32,2.247965,-0.228569,-2.040537,-0.040931,0.095269,0.018653,0.759080,0.226584,0.610292,0.216750,-0.213217,-0.132051,1.057693,-24.666916,9.964302,,,,,,
1466441167.33,2.249186,-0.228214,-2.040431,-0.028118,0.129231,0.021646,0.758397,0.226238,0.611269,0.217967,-0.203197,-0.143663,1.057693,-24.666916,9.964302,,,,,,
1466441167.34,2.250134,-0.227729,-2.040215,-0.051630,0.065523,0.026280,0.757902,0.225766,0.612057,0.237199,-0.211438,-0.188015,1.057693,-24.666916,9.964302,,,,,,
1466441167.35,2.250470,-0.227293,-2.040077,-0.029302,0.035790,0.023296,0.757773,0.225341,0.612373,0.240029,-0.196151,-0.120293,0.997859,-24.682922,9.930778,,,,,,
1466441167.36,2.251423,-0.226887,-2.039867,-0.049436,0.103770,0.017527,0.757261,0.224946,0.613152,0.242663,-0.203431,-0.134835,0.997859,-24.682922,9.930778,,,,,,
1466441167.37,2.252136,-0.226448,-2.039635,-0.037794,0.050669,0.020001,0.756900,0.224517,0.613754,0.248441,-0.206436,-0.113602,0.997859,-24.682922,9.930778,,,,,,
1466441167.38,2.252756,-0.226100,-2.039460,-0.040963,0.062365,0.014602,0.756580,0.224179,0.614273,0.258496,-0.196591,-0.130615,0.974960,-24.691229,9.912389,,,,,,
1466441167.39,2.253229,-0.225664,-2.039183,-0.045255,0.041122,0.017924,0.756365,0.223754,0.614693,0.244704,-0.212172,-0.095192,0.974960,-24.691229,9.912389,,,,,,
1466441167.40,2.254224,-0.225357,-2.038926,-0.040891,0.102742,0.003704,0.755806,0.223454,0.615488,0.271660,-0.186406,-0.091150,0.974960,-24.691229,9.912389,,,,,,
1466441167.42,2.255399,-0.224670,-2.038184,-0.043059,0.074072,0.004946,0.755201,0.222785,0.616472,0.256243,-0.203482,-0.073443,0.934265,-24.708393,9.873460,,,,,,
1466441167.41,2.254825,-0.224992,-2.038506,-0.056953,0.028427,0.003090,0.755499,0.223098,0.615994,0.272013,-0.207123,-0.110653,0.934265,-24.708393,9.873460,,,,,,
1466441167.43,2.256265,-0.224227,-2.037716,-0.069697,0.061338,0.007128,0.754743,0.222353,0.617189,0.271014,-0.212236,-0.105821,0.934265,-24.708393,9.873460,,,,,,
1466441167.44,2.256647,-0.223805,-2.037323,-0.049511,0.028409,0.008419,0.754580,0.221941,0.617537,0.273268,-0.202883,-0.062971,0.922455,-24.718275,9.849808,,,,,,
1466441167.45,2.256984,-0.223362,-2.036897,-0.068697,0.013550,0.009558,0.754448,0.221510,0.617852,0.288765,-0.206144,-0.078988,0.922455,-24.718275,9.849808,,,,,,
1466441167.46,2.256860,-0.222860,-2.036435,-0.060231,-0.027864,0.009826,0.754610,0.221020,0.617830,0.281996,-0.204602,-0.051088,0.922455,-24.718275,9.849808,,,,,,
1466441167.47,2.256528,-0.222430,-2.036005,-0.066643,-0.053332,0.005722,0.754889,0.220601,0.617639,0.289361,-0.203556,-0.060266,0.903959,-24.742779,9.789820,,,,,,
1466441167.48,2.255751,-0.221938,-2.035450,-0.068818,-0.096854,0.001735,0.755453,0.220120,0.617121,0.284159,-0.199002,-0.020945,0.903959,-24.742779,9.789820,,,,,,
1466441167.49,2.255024,-0.221599,-2.034999,-0.059204,-0.078796,-0.002627,0.755959,0.219790,0.616619,0.283821,-0.191729,-0.021923,0.903959,-24.742779,9.789820,,,,,,
1466441167.50,2.253980,-0.221128,-2.034376,-0.076306,-0.129757,-0.001260,0.756682,0.219330,0.615894,0.270738,-0.209610,-0.012684,0.914314,-24.755854,9.755745,,,,,,
1466441167.51,2.252883,-0.220720,-2.033919,-0.060324,-0.112791,0.003972,0.757427,0.218933,0.615120,0.266194,-0.201995,0.000160,0.914314,-24.755854,9.755745,,,,,,
1466441167.52,2.251475,-0.220151,-2.033328,-0.082772,-0.173320,0.010716,0.758389,0.218377,0.614132,0.269977,-0.212334,-0.002621,0.934694,-24.768709,9.721120,,,,,,
1466441167.53,2.249734,-0.219654,-2.032901,-0.058292,-0.176523,0.012889,0.759541,0.217892,0.612878,0.256862,-0.199963,0.026969,0.934694,-24.768709,9.721120,,,,,,
1466441167.54,2.248059,-0.219077,-2.032386,-0.080662,-0.183948,0.013978,0.760665,0.217329,0.611684,0.259645,-0.210920,0.020442,0.934694,-24.768709,9.721120,,,,,,
1466441167.55,2.246219,-0.218611,-2.031899,-0.060437,-0.203044,0.004538,0.761868,0.216873,0.610347,0.273319,-0.191178,0.033818,0.986995,-24.796179,9.645630,,,,,,
1466441167.56,2.243781,-0.218153,-2.031375,-0.073296,-0.269928,0.003880,0.763431,0.216427,0.608549,0.263806,-0.202297,0.022279,0.986995,-24.796179,9.645630,,,,,,
1466441167.57,2.241295,-0.217671,-2.030878,-0.062625,-0.244462,0.007989,0.765023,0.215956,0.606714,0.234900,-0.200087,0.062567,0.986995,-24.796179,9.645630,,,,,,
1466441167.58,2.239277,-0.217136,-2.030376,-0.079635,-0.215799,0.013114,0.766337,0.215434,0.605240,0.234624,-0.208034,0.051986,0.986995,-24.796179,9.645630,,,,,,
1466441167.59,2.236825,-0.216479,-2.029823,-0.077993,-0.267397,0.021043,0.767929,0.214792,0.603447,0.224609,-0.203043,0.050361,1.068236,-24.822845,9.568066,,,,,,
1466441167.60,2.234360,-0.215806,-2.029390,-0.080122,-0.253616,0.029470,0.769528,0.214135,0.601642,0.215137,-0.205971,0.066373,1.068236,-24.822845,9.568066,,,,,,
1466441167.61,2.232303,-0.214975,-2.028813,-0.094957,-0.195213,0.030154,0.770905,0.213323,0.600166,0.188705,-0.209371,0.085320,1.105995,-24.838413,9.523273,,,,,,
1466441167.62,2.230697,-0.214298,-2.028307,-0.082148,-0.181395,0.022629,0.771981,0.212662,0.599016,0.225913,-0.193146,0.076003,1.105995,-24.838413,9.523273,,,,,,
1466441167.63,2.228465,-0.213436,-2.027622,-0.109938,-0.254666,0.030512,0.773461,0.211819,0.597403,0.198966,-0.220761,0.059610,1.105995,-24.838413,9.523273,,,,,,
1466441167.64,2.226991,-0.212586,-2.027067,-0.093809,-0.118781,0.036062,0.774483,0.210988,0.596372,0.155296,-0.205526,0.143694,1.129588,-24.855743,9.475166,,,,,,
1466441167.65,2.226630,-0.211606,-2.026291,-0.126698,-0.040165,0.025956,0.774862,0.210031,0.596218,0.139246,-0.212915,0.123173,1.129588,-24.855743,9.475166,,,,,,
1466441167.66,2.225589,-0.210741,-2.025343,-0.123609,-0.149488,0.010678,0.775626,0.209184,0.595521,0.090417,-0.193636,0.153548,1.129588,-24.855743,9.475166,,,,,,
1466441167.67,2.225827,-0.210014,-2.024493,-0.105197,0.093665,0.005978,0.775605,0.208474,0.595798,-0.104493,-0.187859,0.362835,1.157556,-24.899008,9.357471,,,,,,
1466441167.68,2.229617,-0.209315,-2.023540,-0.122862,0.429224,-0.003595,0.773456,0.207790,0.598823,-0.241794,-0.207194,0.480980,1.157556,-24.899008,9.357471,,,,,,
1466441167.69,2.235098,-0.208501,-2.022472,-0.129106,0.556623,0.003051,0.770295,0.206994,0.603157,-0.362748,-0.214516,0.504341,1.157556,-24.899008,9.357471,,,,,,
1466441167.70,2.242312,-0.207698,-2.021573,-0.121429,0.749841,0.011427,0.766054,0.206208,0.608801,-0.469027,-0.197465,0.538950,1.122159,-24.920225,9.305157,,,,,,
1466441167.72,2.262941,-0.205598,-2.019727,-0.132735,1.112916,0.033621,0.753664,0.204153,0.624749,-0.599505,-0.198935,0.555152,1.122159,-24.920225,9.305157,,,,,,
1466441167.71,2.251918,-0.206681,-2.020574,-0.140297,1.000412,0.018352,0.760333,0.205213,0.616264,-0.565326,-0.208051,0.569207,1.122159,-24.920225,9.305157,,,,,,
1466441167.73,2.274927,-0.204399,-2.018972,-0.132649,1.208431,0.050053,0.746309,0.202979,0.633895,-0.598527,-0.185050,0.547349,1.122159,-24.920225,9.305157,,,,,,
1466441167.74,2.287932,-0.203120,-2.018446,-0.117650,1.308189,0.065409,0.738197,0.201726,0.643717,-0.560524,-0.193456,0.520315,0.806821,-24.969234,9.205931,,,,,,
1466441167.75,2.301116,-0.202002,-2.018163,-0.088913,1.300739,0.066549,0.729814,0.200631,0.653543,-0.472627,-0.183328,0.405798,0.806821,-24.969234,9.205931,,,,,,
1466441167.76,2.312632,-0.200767,-2.017880,-0.110504,1.074568,0.074333,0.722422,0.199421,0.662071,-0.301493,-0.257145,0.211967,0.806821,-24.969234,9.205931,,,,,,
1466441167.77,2.320724,-0.199677,-2.017723,-0.067275,0.715692,0.063853,0.717199,0.198352,0.668043,-0.134481,-0.243671,0.095949,0.293521,-25.012182,9.119611,,,,,,
1466441167.78,2.325669,-0.199433,-2.017883,0.009136,0.439717,0.017760,0.713922,0.198113,0.671615,-0.006677,-0.148309,0.124986,0.293521,-25.012182,9.119611,,,,,,
1466441167.79,2.328970,-0.199398,-2.018088,0.010012,0.294241,0.021866,0.711706,0.198079,0.673972,0.037592,-0.171346,0.068780,0.293521,-25.012182,9.119611,,,,,,
1466441167.80,2.329441,-0.199217,-2.018421,0.012750,-0.043458,0.039954,0.711415,0.197902,0.674332,0.094265,-0.247142,-0.045945,0.150230,-25.020649,9.099853,,,,,,
1466441167.81,2.326827,-0.198969,-2.018940,0.023060,-0.287721,0.057463,0.713211,0.197659,0.672504,0.076004,-0.206387,-0.049701,0.150230,-25.020649,9.099853,,,,,,
1466441167.82,2.324167,-0.198505,-2.019559,0.004984,-0.227260,0.082612,0.715064,0.197204,0.670667,0.038735,-0.199645,0.047061,0.101936,-25.018570,9.106236,,,,,,
1466441167.84,2.321312,-0.196228,-2.020859,-0.054688,-0.147797,0.155501,0.717302,0.194971,0.668927,0.050871,-0.234476,-0.040769,0.101936,-25.018570,9.106236,,,,,,
1466441167.83,2.322755,-0.197616,-2.020196,-0.021553,-0.106298,0.116954,0.716138,0.196333,0.669776,0.006137,-0.209593,0.040749,0.101936,-25.018570,9.106236,,,,,,
1466441167.85,2.319696,-0.194522,-2.021620,-0.064301,-0.132994,0.179881,0.718625,0.193297,0.667993,0.086887,-0.226684,-0.084100,0.076118,-25.021692,9.097905,,,,,,
1466441167.86,2.319529,-0.192628,-2.022224,-0.092822,0.044347,0.176612,0.719003,0.191439,0.668121,0.130225,-0.232760,-0.087936,0.076118,-25.021692,9.097905,,,,,,
1466441167.87,2.320897,-0.190780,-2.022642,-0.097964,0.162257,0.158836,0.718346,0.189625,0.669344,0.256157,-0.212452,-0.165163,0.076118,-25.021692,9.097905,,,,,,
1466441167.88,2.321563,-0.188959,-2.022931,-0.102385,0.021060,0.152266,0.718151,0.187837,0.670057,0.432316,-0.204683,-0.358701,0.076118,-25.021692,9.097905,,,,,,
1466441167.89,2.319523,-0.187139,-2.023214,-0.105950,-0.278361,0.152011,0.719766,0.186049,0.668822,0.568228,-0.213500,-0.553419,-0.097562,-25.053051,9.010988,,,,,,
1466441167.90,2.314988,-0.185529,-2.023465,-0.083804,-0.490660,0.126754,0.723011,0.184466,0.665753,0.601802,-0.189105,-0.590267,-0.097562,-25.053051,9.010988,,,,,,
1466441167.91,2.309051,-0.184285,-2.023577,-0.081788,-0.637093,0.092547,0.727120,0.183243,0.661603,0.580787,-0.168213,-0.520291,-0.111361,-25.070250,8.962864,,,,,,
1466441167.92,2.301992,-0.183159,-2.023649,-0.057366,-0.697616,0.088693,0.731926,0.182137,0.656590,0.411889,-0.183312,-0.394506,-0.111361,-25.070250,8.962864,,,,,,
1466441167.93,2.296074,-0.182095,-2.023748,-0.075278,-0.552131,0.084570,0.735943,0.181090,0.652376,0.246082,-0.198485,-0.223711,-0.111361,-25.070250,8.962864,,,,,,
1466441167.94,2.291149,-0.180947,-2.023620,-0.079435,-0.483091,0.076681,0.739303,0.179961,0.648880,0.133042,-0.191054,-0.115570,-0.111361,-25.070250,8.962864,,,,,,
1466441167.95,2.286690,-0.179888,-2.023554,-0.079365,-0.432116,0.073168,0.742332,0.178920,0.645702,0.038307,-0.196009,-0.023876,0.013165,-25.096411,8.890038,,,,,,
1466441167.96,2.283486,-0.178817,-2.023332,-0.085535,-0.271757,0.063641,0.744542,0.177865,0.643445,-0.067708,-0.197091,0.096393,0.013165,-25.096411,8.890038,,,,,,
1466441167.97,2.282703,-0.177971,-2.023051,-0.070277,-0.026427,0.039764,0.745159,0.177033,0.642960,-0.128338,-0.182022,0.205765,0.013165,-25.096411,8.890038,,,,,,
1466441167.98,2.282892,-0.177529,-2.022889,-0.029732,0.005468,0.017251,0.745096,0.176598,0.643152,-0.097956,-0.157555,0.215521,0.045955,-25.110764,8.849308,,,,,,
1466441167.99,2.282123,-0.177526,-2.022806,0.002138,-0.102763,-0.013972,0.745591,0.176595,0.642579,-0.066514,-0.165898,0.171157,0.045955,-25.110764,8.849308,,,,,,
1466441168.00,2.281202,-0.178063,-2.022923,0.055451,-0.085725,-0.041701,0.746111,0.177123,0.641830,-0.037828,-0.144851,0.170792,0.034565,-25.121141,8.819854,,,,,,
1466441168.01,2.279016,-0.178842,-2.022991,0.055244,-0.277864,-0.057528,0.747407,0.177890,0.640108,0.040282,-0.184390,0.059324,0.034565,-25.121141,8.819854,,,,,,
1466441168.02,2.274814,-0.179791,-2.023110,0.077406,-0.450923,-0.066000,0.749961,0.178824,0.636852,0.042092,-0.200903,-0.004558,0.034565,-25.121141,8.819854,,,,,,
1466441168.03,2.270579,-0.180998,-2.023352,0.104134,-0.389308,-0.082327,0.752486,0.180012,0.633531,-0.001524,-0.173634,0.057357,0.145222,-25.106529,8.860241,,,,,,
1466441168.04,2.268299,-0.182396,-2.023651,0.108687,-0.163131,-0.089063,0.753735,0.181387,0.631651,-0.051449,-0.162725,0.131655,0.145222,-25.106529,8.860241,,,,,,
1466441168.05,2.267367,-0.183544,-2.023862,0.086378,-0.088853,-0.068262,0.754163,0.182515,0.630814,-0.026563,-0.221730,0.054290,0.145222,-25.106529,8.860241,,,,,,
1466441168.06,2.265666,-0.184674,-2.024180,0.100101,-0.186539,-0.069765,0.755076,0.183626,0.629398,0.055807,-0.226183,-0.069583,0.243622,-25.087673,8.911346,,,,,,
1466441168.07,2.264007,-0.185876,-2.024410,0.092722,-0.139796,-0.077516,0.755948,0.184808,0.628003,0.113772,-0.190423,-0.094434,0.243622,-25.087673,8.911346,,,,,,
1466441168.08,2.262978,-0.186942,-2.024681,0.084225,-0.097363,-0.061824,0.756442,0.185855,0.627099,0.129437,-0.222964,-0.125863,0.243622,-25.087673,8.911346,,,,,,
1466441168.09,2.261550,-0.187934,-2.024866,0.079913,-0.150434,-0.067882,0.757195,0.186829,0.625900,0.142067,-0.231675,-0.172562,0.243622,-25.087673,8.911346,,,,,,
1466441168.10,2.260751,-0.189136,-2.025018,0.086482,-0.033592,-0.085640,0.757521,0.188010,0.625151,0.103059,-0.215354,-0.102797,0.360876,-25.053778,9.002262,,,,,,
1466441168.11,2.261779,-0.190134,-2.024992,0.055796,0.139462,-0.073982,0.756733,0.188991,0.625810,0.109264,-0.244746,-0.150483,0.360876,-25.053778,9.002262,,,,,,
1466441168.12,2.252631,-0.178573,-2.026840,0.031239,0.131945,-0.060069,0.764071,0.177626,0.620197,0.090467,-0.228300,-0.158878,0.417471,-25.038284,9.042834,,,,,,
1466441168.13,2.254048,-0.179060,-2.026652,0.016339,0.157400,-0.047470,0.763125,0.178105,0.621224,0.095503,-0.197072,-0.112130,0.417471,-25.038284,9.042834,,,,,,
1466441168.14,2.256456,-0.179501,-2.026558,0.015385,0.262490,-0.037485,0.761565,0.178539,0.623011,0.099427,-0.224391,-0.126291,0.417471,-25.038284,9.042834,,,,,,
1466441168.15,2.259219,-0.179586,-2.026291,-0.020855,0.265635,-0.016252,0.759829,0.178622,0.625103,0.097120,-0.227435,-0.138622,0.242836,-25.085482,8.917535,,,,,,
1466441168.16,2.255423,-0.169243,-2.027213,-0.016707,0.225203,0.001079,0.763587,0.168436,0.623349,0.069711,-0.192835,-0.090222,0.242836,-25.085482,8.917535,,,,,,
1466441168.17,2.257915,-0.169020,-2.027019,-0.032635,0.269789,0.007171,0.762060,0.168216,0.625274,0.010507,-0.194431,-0.018279,0.242836,-25.085482,8.917535,,,,,,
1466441168.18,2.261732,-0.168621,-2.026869,-0.038885,0.412019,0.026497,0.759720,0.167823,0.628221,-0.030060,-0.205207,0.012572,0.041242,-25.139647,8.766943,,,,,,
1466441168.19,2.266312,-0.168020,-2.026729,-0.050555,0.467200,0.039977,0.756912,0.167231,0.631758,-0.066681,-0.188852,0.051790,0.041242,-25.139647,8.766943,,,,,,
1466441168.20,2.271693,-0.167287,-2.026593,-0.061099,0.570165,0.052094,0.753596,0.166508,0.635900,-0.109293,-0.208469,0.096964,0.041242,-25.139647,8.766943,,,,,,
1466441168.22,2.286528,-0.164996,-2.026302,-0.093943,0.769680,0.094452,0.744365,0.164249,0.647258,-0.098857,-0.200946,0.092717,-0.128171,-25.154636,8.722995,,,,,,
1466441168.21,2.278818,-0.166270,-2.026432,-0.083280,0.748497,0.073307,0.749173,0.165505,0.641364,-0.106900,-0.222527,0.078760,-0.128171,-25.154636,8.722995,,,,,,
1466441168.23,2.294926,-0.163693,-2.026274,-0.089570,0.865232,0.097051,0.739063,0.162963,0.653628,-0.068546,-0.215132,0.062910,-0.128171,-25.154636,8.722995,,,,,,
1466441168.25,2.313177,-0.160550,-2.026055,-0.099160,0.883246,0.111831,0.727385,0.159861,0.667350,-0.041914,-0.176768,0.058831,-0.295898,-25.169168,8.676877,,,,,,
1466441168.24,2.304197,-0.162099,-2.026073,-0.126772,0.936356,0.109341,0.733164,0.161390,0.660624,-0.031565,-0.205350,0.035924,-0.295898,-25.169168,8.676877,,,,,,
1466441168.26,2.322554,-0.159066,-2.025888,-0.117115,0.972493,0.094222,0.721268,0.158396,0.674302,-0.027176,-0.166040,0.088241,-0.295898,-25.169168,8.676877,,,,,,
1466441168.28,2.342326,-0.156319,-2.025851,-0.091650,0.894981,0.090476,0.708104,0.155683,0.688731,0.014277,-0.148801,0.042165,-0.709725,-25.203926,8.551096,,,,,,
1466441168.27,2.332961,-0.157643,-2.025848,-0.092558,1.041472,0.103394,0.714374,0.156991,0.681927,0.008939,-0.178323,0.035984,-0.709725,-25.203926,8.551096,,,,,,
1466441168.29,2.351283,-0.155347,-2.025857,-0.058552,0.923709,0.062653,0.702015,0.154723,0.695152,0.019421,-0.141295,0.084984,-0.709725,-25.203926,8.551096,,,,,,
1466441168.31,2.370420,-0.154075,-2.025913,-0.022371,0.853705,0.029066,0.688720,0.153466,0.708599,0.160904,-0.143486,-0.087261,-0.927612,-25.218687,8.486466,,,,,,
1466441168.30,2.361467,-0.154650,-2.025856,-0.048804,1.029929,0.046029,0.694974,0.154034,0.702342,0.094073,-0.160122,-0.003184,-0.927612,-25.218687,8.486466,,,,,,
1466441168.32,2.377759,-0.154037,-2.025951,0.006273,0.717871,-0.003052,0.683506,0.153428,0.713639,0.194226,-0.131501,-0.084809,-0.927612,-25.218687,8.486466,,,,,,
1466441168.33,2.385275,-0.154368,-2.025942,0.026604,0.759338,-0.027774,0.678087,0.153756,0.718719,0.268309,-0.156609,-0.159973,-1.269416,-25.229944,8.408402,,,,,,
1466441168.34,2.391725,-0.154862,-2.025895,0.034923,0.580986,-0.039420,0.673386,0.154244,0.723022,0.339920,-0.166908,-0.273284,-1.269416,-25.229944,8.408402,,,,,,
1466441168.35,2.395469,-0.155553,-2.025871,0.054847,0.314502,-0.051567,0.670601,0.154927,0.725460,0.350349,-0.166111,-0.284298,-1.269416,-25.229944,8.408402,,,,,,
1466441168.36,2.397400,-0.156397,-2.025761,0.052550,0.155277,-0.066537,0.669110,0.155761,0.726657,0.255115,-0.175872,-0.202075,-1.371440,-25.226023,8.404148,,,,,,
1466441168.37,2.398737,-0.157315,-2.025688,0.069556,0.131909,-0.066374,0.668042,0.156667,0.727445,0.170658,-0.184774,-0.120694,-1.371440,-25.226023,8.404148,,,,,,
1466441168.38,2.399806,-0.158183,-2.025620,0.050339,0.096867,-0.061915,0.667171,0.157524,0.728058,0.106846,-0.197731,-0.090531,-1.371440,-25.226023,8.404148,,,,,,
1466441168.39,2.400429,-0.158888,-2.025595,0.056635,0.049039,-0.045642,0.666643,0.158220,0.728391,0.041609,-0.195360,-0.042387,-1.377325,-25.210388,8.449975,,,,,,
1466441168.40,2.400928,-0.159528,-2.025671,0.044925,0.063886,-0.037232,0.666210,0.158853,0.728649,-0.030651,-0.189782,0.032581,-1.377325,-25.210388,8.449975,,,,,,
1466441168.41,2.402429,-0.160054,-2.025661,0.038677,0.182800,-0.033726,0.665060,0.159372,0.729586,-0.070425,-0.194207,0.072034,-1.377325,-25.210388,8.449975,,,,,,
1466441168.42,2.404993,-0.160417,-2.025672,0.021717,0.268770,-0.018315,0.663148,0.159729,0.731247,-0.058778,-0.210602,0.037262,-1.364915,-25.202896,8.474302,,,,,,
1466441168.43,2.407208,-0.160520,-2.025739,0.010946,0.201827,0.002318,0.661515,0.159831,0.732702,-0.086228,-0.211253,0.041133,-1.364915,-25.202896,8.474302,,,,,,
1466441168.44,2.409859,-0.160557,-2.025871,0.012134,0.309053,0.006969,0.659567,0.159868,0.734448,-0.074514,-0.188280,0.080997,-1.364915,-25.202896,8.474302,,,,,,
1466441168.46,2.418959,-0.160204,-2.025984,-0.010035,0.486342,0.021802,0.652893,0.159519,0.740462,-0.001404,-0.194523,0.002610,-1.427199,-25.196068,8.484342,,,,,,
1466441168.45,2.414099,-0.160437,-2.025927,-0.013249,0.456636,0.013470,0.656460,0.159750,0.737252,-0.047405,-0.202932,0.045188,-1.427199,-25.196068,8.484342,,,,,,
1466441168.47,2.423831,-0.159921,-2.026041,-0.023870,0.494837,0.023864,0.649308,0.159241,0.743668,0.028731,-0.188629,-0.012527,-1.427199,-25.196068,8.484342,,,,,,
1466441168.48,2.429259,-0.159569,-2.026068,-0.020603,0.557473,0.026668,0.645298,0.158892,0.747224,0.053234,-0.181185,-0.018983,-1.512486,-25.197216,8.466141,,,,,,
1466441168.49,2.434881,-0.159286,-2.026213,-0.013153,0.560646,0.029849,0.641117,0.158613,0.750874,0.057614,-0.182066,-0.032810,-1.512486,-25.197216,8.466141,,,,,,
1466441168.50,2.440339,-0.158887,-2.026317,-0.028088,0.545774,0.035249,0.637049,0.158219,0.754410,0.030217,-0.202393,-0.032471,-1.512486,-25.197216,8.466141,,,,,,
1466441168.51,2.446228,-0.158362,-2.026383,-0.037600,0.610534,0.040156,0.632649,0.157701,0.758212,0.010341,-0.195542,-0.002490,-1.721327,-25.202021,8.411776,,,,,,
1466441168.52,2.452877,-0.157663,-2.026446,-0.056709,0.677399,0.053555,0.627664,0.157011,0.762487,0.021125,-0.202696,-0.017553,-1.721327,-25.202021,8.411776,,,,,,
1466441168.53,2.459270,-0.156781,-2.026545,-0.061065,0.618970,0.065626,0.622863,0.156140,0.766591,0.037308,-0.193142,-0.041127,-1.721327,-25.202021,8.411776,,,,,,
1466441168.55,2.470306,-0.155132,-2.026697,-0.051533,0.553177,0.050082,0.614524,0.154510,0.773619,0.057519,-0.172668,0.013384,-1.848899,-25.207647,8.367727,,,,,,
1466441168.54,2.464826,-0.155909,-2.026635,-0.063278,0.541477,0.059723,0.618680,0.155278,0.770146,0.043613,-0.183690,-0.012715,-1.848899,-25.207647,8.367727,,,,,,
1466441168.56,2.475524,-0.154470,-2.026782,-0.049452,0.505410,0.045061,0.610543,0.153856,0.776895,0.067573,-0.172426,-0.027917,-1.848899,-25.207647,8.367727,,,,,,
1466441168.57,2.479631,-0.153885,-2.026899,-0.029379,0.376927,0.043758,0.607402,0.153278,0.779467,0.073049,-0.171528,-0.035479,-2.094684,-25.222155,8.265466,,,,,,
1466441168.58,2.480509,-0.144454,-2.027357,-0.027336,0.305814,0.029340,0.607578,0.143952,0.781106,0.069256,-0.153031,0.015220,-2.094684,-25.222155,8.265466,,,,,,
1466441168.59,2.483635,-0.144462,-2.027366,0.011774,0.302069,-0.010917,0.605133,0.143960,0.783001,0.077530,-0.162789,0.015461,-2.094684,-25.222155,8.265466,,,,,,
1466441168.61,2.489638,-0.145380,-2.027237,0.052229,0.228904,-0.054060,0.600340,0.144868,0.786514,0.190797,-0.142229,-0.099533,-2.303145,-25.269167,8.063964,,,,,,
1466441168.60,2.487014,-0.144683,-2.027315,0.022536,0.370060,-0.026235,0.602464,0.144179,0.785016,0.155486,-0.116576,-0.012723,-2.303145,-25.269167,8.063964,,,,,,
1466441168.62,2.476615,-0.139215,-2.029124,0.098888,0.050495,-0.079472,0.611071,0.138766,0.779317,0.219739,-0.132464,-0.107381,-2.303145,-25.269167,8.063964,,,,,,
1466441168.63,2.476758,-0.140639,-2.029022,0.097794,-0.003604,-0.098294,0.610838,0.140176,0.779248,0.225680,-0.168710,-0.146543,-2.390218,-25.282877,7.995362,,,,,,
1466441168.64,2.475716,-0.141550,-2.028845,0.050666,-0.158721,-0.054790,0.611570,0.141078,0.778511,0.188128,-0.246882,-0.211799,-2.390218,-25.282877,7.995362,,,,,,
1466441168.65,2.471120,-0.141901,-2.028971,0.029822,-0.562345,0.002008,0.615111,0.141426,0.775653,0.027055,-0.234153,-0.132266,-2.390218,-25.282877,7.995362,,,,,,
1466441168.66,2.464895,-0.141986,-2.029276,0.026547,-0.597432,0.020320,0.619920,0.141509,0.771799,-0.140627,-0.162246,0.114553,-2.390218,-25.282877,7.995362,,,,,,
1466441168.67,2.460261,-0.142139,-2.029626,0.034243,-0.409488,0.015956,0.623476,0.141661,0.768901,-0.247988,-0.142821,0.267994,-2.390218,-25.282877,7.995362,,,,,,
1466441168.68,2.456545,-0.142352,-2.030089,0.050235,-0.375548,0.026403,0.626310,0.141872,0.766556,-0.248853,-0.164470,0.246002,-2.390218,-25.282877,7.995362,,,,,,
1466441168.69,2.467545,-0.134866,-2.028584,0.066981,-0.556029,0.047797,0.618486,0.134457,0.774207,-0.258516,-0.163846,0.240685,-2.198919,-25.261118,8.118093,,,,,,
1466441168.70,2.461299,-0.135253,-2.029570,0.096731,-0.600648,0.051300,0.623277,0.134841,0.770288,-0.378648,-0.144637,0.351263,-2.198919,-25.261118,8.118093,,,,,,
1466441168.71,2.457040,-0.135640,-2.030540,0.087485,-0.332008,0.049606,0.626519,0.135224,0.767586,-0.429574,-0.152497,0.450370,-2.339707,-25.298748,7.960025,,,,,,
1466441168.72,2.456071,-0.136103,-2.031521,0.101742,-0.008153,0.043331,0.627222,0.135683,0.766930,-0.344385,-0.151995,0.437217,-2.339707,-25.298748,7.960025,,,,,,
1466441168.73,2.457380,-0.136833,-2.032509,0.124377,0.183010,0.024059,0.626155,0.136407,0.767673,-0.149944,-0.132531,0.303432,-2.339707,-25.298748,7.960025,,,,,,
1466441168.74,2.459738,-0.137867,-2.033465,0.144749,0.262694,0.002291,0.624254,0.137431,0.769038,0.055189,-0.128718,0.095006,-2.324395,-25.281487,8.019123,,,,,,
1466441168.75,2.462589,-0.139212,-2.034232,0.154472,0.308461,-0.039500,0.621942,0.138763,0.770671,0.226950,-0.132888,-0.073832,-2.324395,-25.281487,8.019123,,,,,,
1466441168.76,2.466801,-0.141277,-2.034656,0.203825,0.483847,-0.118256,0.618510,0.140807,0.773058,0.367436,-0.065597,-0.150011,-2.324395,-25.281487,8.019123,,,,,,
1466441168.77,2.473457,-0.144260,-2.034775,0.245793,0.721870,-0.192089,0.613088,0.143760,0.776824,0.483027,-0.091713,-0.311996,-2.393394,-25.235184,8.143709,,,,,,
1466441168.78,2.481415,-0.147201,-2.034487,0.201178,0.790933,-0.201083,0.606625,0.146670,0.781341,0.564243,-0.201129,-0.576568,-2.393394,-25.235184,8.143709,,,,,,
1466441168.79,2.488190,-0.149479,-2.034193,0.148686,0.620924,-0.146846,0.601113,0.148923,0.785165,0.605796,-0.272916,-0.751810,-2.393394,-25.235184,8.143709,,,,,,
1466441168.80,2.492588,-0.150745,-2.033985,0.065190,0.377616,-0.074085,0.597540,0.150175,0.787651,0.564981,-0.292829,-0.784904,-2.416990,-25.207085,8.223369,,,,,,
1466441168.81,2.494462,-0.150907,-2.033812,-0.012969,0.132206,-0.009822,0.596048,0.150335,0.788750,0.413214,-0.267904,-0.613884,-2.416990,-25.207085,8.223369,,,,,,
1466441168.82,2.496278,-0.150920,-2.033775,0.008439,0.227749,-0.007206,0.594613,0.150347,0.789830,0.226249,-0.150561,-0.250950,-2.416990,-25.207085,8.223369,,,,,,
1466441168.83,2.501582,-0.150974,-2.033499,-0.021871,0.644052,-0.032201,0.590411,0.150401,0.792966,0.061857,-0.140376,0.001514,-2.416990,-25.207085,8.223369,,,,,,
1466441168.84,2.510513,-0.151116,-2.033020,-0.010825,0.938207,-0.048937,0.583293,0.150541,0.798190,0.023015,-0.150343,0.049665,-2.467531,-25.193161,8.250987,,,,,,
1466441168.85,2.520848,-0.151297,-2.032416,-0.030900,1.046548,-0.059217,0.574996,0.150721,0.804153,0.063706,-0.175440,-0.009613,-2.467531,-25.193161,8.250987,,,,,,
1466441168.86,2.531216,-0.150749,-2.031595,-0.113036,0.979601,-0.024816,0.566676,0.150178,0.810139,0.220922,-0.261705,-0.220814,-2.467531,-25.193161,8.250987,,,,,,
1466441168.87,2.536921,-0.150105,-2.030915,-0.066928,0.386036,-0.023177,0.562100,0.149542,0.813438,0.415699,-0.140600,-0.325340,-2.709538,-25.208914,8.125994,,,,,,
1466441168.88,2.536294,-0.150412,-2.030534,0.016536,-0.186223,-0.053567,0.562584,0.149846,0.813047,0.406105,-0.070454,-0.226255,-2.709538,-25.208914,8.125994,,,,,,
1466441168.89,2.532723,-0.150849,-2.030168,0.013069,-0.410250,-0.056423,0.565445,0.150278,0.810980,0.246932,-0.153451,-0.114065,-2.709538,-25.208914,8.125994,,,,,,
1466441168.90,2.527064,-0.151487,-2.029851,0.054333,-0.640644,-0.068775,0.569970,0.150908,0.807688,0.127814,-0.095442,-0.020518,-2.732555,-25.217829,8.090547,,,,,,
1466441168.92,2.512904,-0.154394,-2.029136,0.150335,-0.596991,-0.129626,0.581089,0.153781,0.799179,-0.126637,-0.096057,0.293823,-2.732555,-25.217829,8.090547,,,,,,
1466441168.91,2.519319,-0.152603,-2.029461,0.067018,-0.788112,-0.114673,0.576110,0.152012,0.803113,-0.023742,-0.156986,0.192706,-2.732555,-25.217829,8.090547,,,,,,
1466441168.93,2.506861,-0.155444,-2.028808,0.030914,-0.650165,-0.077254,0.585812,0.154819,0.795522,-0.211666,-0.265247,0.133357,-2.453641,-25.206770,8.213477,,,,,,
1466441168.94,2.499408,-0.156686,-2.028803,0.131942,-0.743660,-0.074438,0.591609,0.156046,0.790979,-0.300746,-0.131388,0.251013,-2.453641,-25.206770,8.213477,,,,,,
1466441168.95,2.494897,-0.157646,-2.028762,0.042988,-0.321083,-0.053759,0.595081,0.156994,0.788182,-0.398334,-0.170925,0.354762,-2.453641,-25.206770,8.213477,,,,,,
1466441168.96,2.494999,-0.158180,-2.028988,0.065768,0.104534,0.000010,0.594950,0.157521,0.788176,-0.364267,-0.216863,0.281465,-2.300896,-25.197023,8.287258,,,,,,
1466441168.97,2.496098,-0.158027,-2.029288,-0.019513,0.085356,0.039430,0.594098,0.157370,0.788849,-0.200497,-0.215902,0.077118,-2.300896,-25.197023,8.287258,,,,,,
1466441168.98,2.497028,-0.157606,-2.029776,0.009233,0.135158,0.071080,0.593404,0.156954,0.789454,-0.137471,-0.172991,0.064764,-2.300896,-25.197023,8.287258,,,,,,
1466441168.99,2.499886,-0.156735,-2.030258,-0.070406,0.347488,0.095216,0.591226,0.156094,0.791256,-0.124261,-0.205425,0.047214,-2.287879,-25.185621,8.325430,,,,,,
1466441169.00,2.504965,-0.155414,-2.030566,-0.079752,0.553453,0.104559,0.587322,0.154789,0.794414,-0.026683,-0.176625,0.021901,-2.287879,-25.185621,8.325430,,,,,,
1466441169.01,2.510707,-0.154127,-2.030921,-0.094623,0.580009,0.103313,0.582868,0.153518,0.797933,0.107180,-0.163879,-0.077031,-2.403528,-25.191799,8.274006,,,,,,
1466441169.02,2.516776,-0.145113,-2.030989,-0.096916,0.468527,0.104037,0.578801,0.144604,0.802546,0.254314,-0.151745,-0.208674,-2.403528,-25.191799,8.274006,,,,,,
1466441169.03,2.519826,-0.143679,-2.031248,-0.108898,0.249807,0.103268,0.576470,0.143185,0.804475,0.352806,-0.170773,-0.303743,-2.403528,-25.191799,8.274006,,,,,,
1466441169.04,2.520506,-0.142259,-2.031313,-0.103815,0.022641,0.082344,0.576041,0.141779,0.805031,0.357064,-0.139384,-0.279854,-2.662091,-25.241409,8.040351,,,,,,
1466441169.05,2.520391,-0.141235,-2.031547,-0.067653,-0.015591,0.078362,0.576218,0.140766,0.805083,0.306046,-0.128437,-0.189101,-2.662091,-25.241409,8.040351,,,,,,
1466441169.06,2.513442,-0.130976,-2.031103,-0.157924,-0.706704,0.051771,0.582616,0.130601,0.802186,-0.105489,-0.161195,-0.016449,-2.662091,-25.241409,8.040351,,,,,,
1466441169.07,2.517730,-0.130490,-2.032399,0.102465,0.776229,0.142789,0.579208,0.130120,0.804728,-0.172378,-0.064737,0.509100,-2.662091,-25.241409,8.040351,,,,,,
1466441169.08,2.522780,-0.128189,-2.032126,-0.312217,0.282859,0.086925,0.575309,0.127838,0.807884,0.025216,-0.327881,-0.202751,-2.847689,-25.308287,7.761707,,,,,,
1466441169.09,2.519517,-0.128052,-2.032801,0.168244,-0.398979,0.062940,0.577953,0.127703,0.806017,0.200414,0.057631,-0.059313,-2.982900,-25.314045,7.691833,,,,,,
1466441169.10,2.518802,-0.127770,-2.033105,-0.114371,0.041881,0.034347,0.578549,0.127422,0.805633,0.241763,-0.155422,-0.078887,-2.982900,-25.314045,7.691833,,,,,,
1466441169.11,2.516609,-0.127015,-2.032854,-0.012665,-0.391339,0.020134,0.580371,0.126674,0.804440,0.337018,-0.207805,-0.297314,-2.982900,-25.314045,7.691833,,,,,,
1466441169.12,2.508177,-0.119340,-2.033269,0.065762,-0.754358,-0.037089,0.587691,0.119057,0.800278,0.298433,-0.014428,-0.142258,-2.982900,-25.314045,7.691833,,,,,,
1466441169.13,2.502423,-0.119556,-2.032903,-0.015918,-0.507984,-0.036587,0.592271,0.119271,0.796862,0.172881,-0.174599,-0.092562,-2.982900,-25.314045,7.691833,,,,,,
1466441169.14,2.496302,-0.119886,-2.032895,0.039181,-0.699175,-0.021495,0.597114,0.119599,0.793191,0.170953,-0.171799,-0.127114,-3.027154,-25.345345,7.570500,,,,,,
1466441169.15,2.487188,-0.120430,-2.032787,0.034671,-0.938011,-0.044484,0.604279,0.120139,0.787664,0.111206,-0.099128,-0.068883,-3.027154,-25.345345,7.570500,,,,,,
1466441169.16,2.479327,-0.120640,-2.032800,0.044474,-0.727837,-0.024502,0.610436,0.120348,0.782869,0.021980,-0.139040,0.027342,-2.920862,-25.345560,7.611432,,,,,,
1466441169.17,2.471522,-0.120826,-2.032835,0.007034,-0.836175,-0.004700,0.616514,0.120532,0.778064,-0.002454,-0.175860,-0.008471,-2.920862,-25.345560,7.611432,,,,,,
1466441169.18,2.461633,-0.121043,-2.033024,0.039815,-1.006097,0.002785,0.624161,0.120747,0.771908,-0.093308,-0.130696,0.059329,-2.920862,-25.345560,7.611432,,,,,,
1466441169.19,2.453072,-0.121254,-2.033248,0.018802,-0.777805,0.003461,0.630730,0.120957,0.766517,-0.234872,-0.144837,0.221337,-2.639485,-25.339659,7.732891,,,,,,
1466441169.20,2.448153,-0.121091,-2.033345,0.014920,-0.451871,0.017380,0.634506,0.120796,0.763421,-0.298309,-0.153388,0.289390,-2.639485,-25.339659,7.732891,,,,,,
1466441169.22,2.440978,-0.121184,-2.033823,0.013960,-0.370109,0.015802,0.639959,0.120888,0.758840,-0.123983,-0.143685,0.118830,-2.540750,-25.337236,7.773787,,,,,,
1466441169.21,2.444655,-0.121200,-2.033635,0.022520,-0.338256,0.014546,0.637164,0.120903,0.761186,-0.209231,-0.139107,0.222884,-2.540750,-25.337236,7.773787,,,,,,
1466441169.23,2.437483,-0.121349,-2.034135,0.032126,-0.327628,0.009167,0.642595,0.121052,0.756583,-0.073640,-0.137516,0.083764,-2.540750,-25.337236,7.773787,,,,,,
1466441169.24,2.437893,-0.114031,-2.034194,0.061198,-0.093958,-0.019918,0.642840,0.113784,0.757502,-0.004901,-0.116348,0.058523,-2.493015,-25.333549,7.801213,,,,,,
1466441169.25,2.433926,-0.114060,-2.033972,-0.033922,-0.393315,-0.026651,0.645839,0.113813,0.754943,-0.045115,-0.153730,-0.159332,-2.493015,-25.333549,7.801213,,,,,,
1466441169.26,2.431303,-0.115045,-2.034616,0.129227,-0.172586,-0.011906,0.647743,0.114792,0.753161,0.050087,-0.106231,0.016538,-2.493015,-25.333549,7.801213,,,,,,
1466441169.28,2.425527,-0.116177,-2.034708,0.124797,-0.347714,-0.035294,0.651997,0.115916,0.749309,0.131954,-0.118144,-0.111568,-2.493015,-25.333549,7.801213,,,,,,
1466441169.27,2.428985,-0.115203,-2.034322,-0.029462,-0.258425,-0.043459,0.649475,0.114949,0.751644,0.119583,-0.157887,-0.063030,-2.493015,-25.333549,7.801213,,,,,,
1466441169.29,2.423087,-0.109164,-2.034647,0.009892,-0.242564,-0.025397,0.654342,0.108947,0.748310,0.131242,-0.140106,-0.090549,-2.473100,-25.348936,7.757453,,,,,,
1466441169.30,2.421064,-0.110658,-2.034946,0.175060,-0.115266,-0.013257,0.655746,0.110432,0.746861,0.236206,-0.095295,-0.021321,-2.473100,-25.348936,7.757453,,,,,,
1466441169.31,2.416416,-0.112180,-2.033675,-0.005332,-0.801599,-0.213507,0.659099,0.111944,0.743678,0.330068,-0.030401,-0.164516,-2.473100,-25.348936,7.757453,,,,,,
1466441169.32,2.413392,-0.113315,-2.033203,0.137082,0.115253,-0.046674,0.661260,0.113073,0.741586,-0.725667,-0.062566,0.561026,-2.473100,-25.348936,7.757453,,,,,,
1466441169.33,2.424910,-0.113553,-2.034347,-0.038414,1.326486,0.080739,0.652657,0.113309,0.749133,-0.478310,-0.329327,0.448407,-2.473100,-25.348936,7.757453,,,,,,
1466441169.34,2.428884,-0.112151,-2.033199,-0.088875,-0.035472,-0.023601,0.649778,0.111916,0.751840,0.261218,-0.143182,-0.372522,-2.473100,-25.348936,7.757453,,,,,,
1466441169.35,2.425821,-0.114585,-2.034511,0.286925,-0.155506,-0.072502,0.651897,0.114334,0.749638,0.313130,0.135467,-0.090245,-2.535805,-25.376158,7.647423,,,,,,
1466441169.36,2.429519,-0.115004,-2.033723,-0.089240,0.413859,-0.094544,0.649089,0.114751,0.752008,0.384770,-0.233235,-0.252969,-2.535805,-25.376158,7.647423,,,,,,
1466441169.37,2.427551,-0.116210,-2.033489,0.143944,-0.443110,-0.097452,0.650476,0.115949,0.750624,0.432074,-0.153287,-0.461943,-2.503814,-25.360678,7.709070,,,,,,
1466441169.38,2.422686,-0.118065,-2.033789,0.135493,-0.381535,-0.092525,0.653978,0.117790,0.747287,0.287978,-0.015938,-0.211033,-2.503814,-25.360678,7.709070,,,,,,
1466441169.39,2.421293,-0.118868,-2.033330,0.010091,-0.175512,-0.083298,0.654956,0.118588,0.746304,0.266279,-0.211270,-0.306485,-2.503814,-25.360678,7.709070,,,,,,
1466441169.40,2.411690,-0.112931,-2.033726,0.111787,-0.588597,-0.092287,0.662550,0.112691,0.740492,0.166414,-0.135884,-0.235060,-2.401302,-25.347250,7.785471,,,,,,
1466441169.41,2.408132,-0.114366,-2.033791,0.089915,-0.206325,-0.098964,0.665071,0.114117,0.738009,0.003111,-0.080746,0.043271,-2.401302,-25.347250,7.785471,,,,,,
1466441169.42,2.409179,-0.115201,-2.033375,0.029632,0.139814,-0.087357,0.664234,0.114946,0.738634,-0.021167,-0.187181,0.057218,-2.401113,-25.369307,7.713346,,,,,,
1466441169.43,2.409282,-0.116344,-2.033195,0.084758,-0.054517,-0.088213,0.664070,0.116082,0.738604,0.033470,-0.102929,-0.027468,-2.401113,-25.369307,7.713346,,,,,,
1466441169.44,2.403238,-0.110871,-2.033639,0.056101,0.041017,-0.085621,0.668939,0.110644,0.735036,0.012366,-0.094531,-0.027013,-2.401113,-25.369307,7.713346,,,,,,
1466441169.46,2.404669,-0.112596,-2.033208,0.041015,-0.070520,-0.064712,0.667758,0.112358,0.735850,0.099210,-0.124413,-0.120188,-2.369313,-25.378399,7.693245,,,,,,
1466441169.45,2.404683,-0.111835,-2.033405,0.055151,0.147172,-0.076708,0.667805,0.111602,0.735923,0.056423,-0.113433,-0.034949,-2.369313,-25.378399,7.693245,,,,,,
1466441169.47,2.403266,-0.113241,-2.033082,0.037731,-0.126820,-0.054783,0.668741,0.112999,0.734859,0.066123,-0.133537,-0.113856,-2.369313,-25.378399,7.693245,,,,,,
1466441169.49,2.398943,-0.108511,-2.033217,0.020978,0.112067,-0.058403,0.672265,0.108298,0.732347,0.056266,-0.106376,-0.030534,-2.369313,-25.378399,7.693245,,,,,,
1466441169.48,2.397764,-0.107916,-2.033508,0.035840,0.068541,-0.063437,0.673171,0.107707,0.731601,0.045304,-0.089427,-0.014056,-2.369313,-25.378399,7.693245,,,,,,
1466441169.50,2.399363,-0.109130,-2.032975,0.031502,0.010135,-0.059882,0.671912,0.108914,0.732579,0.106378,-0.104794,-0.090917,-2.375433,-25.391285,7.648710,,,,,,
1466441169.51,2.398805,-0.109788,-2.032698,0.028215,-0.079028,-0.068906,0.672272,0.109568,0.732151,0.133514,-0.100123,-0.112843,-2.375433,-25.391285,7.648710,,,,,,
1466441169.52,2.397221,-0.110524,-2.032327,0.030230,-0.187304,-0.078870,0.673376,0.110299,0.731026,0.119090,-0.102975,-0.085778,-2.356457,-25.390051,7.658668,,,,,,
1466441169.53,2.395290,-0.111351,-2.032031,0.044058,-0.192629,-0.075629,0.674724,0.111121,0.729657,0.049535,-0.094230,-0.004926,-2.356457,-25.390051,7.658668,,,,,,
1466441169.54,2.393144,-0.112122,-2.031853,0.045042,-0.235139,-0.061524,0.676230,0.111888,0.728145,0.026056,-0.108912,0.016240,-2.356457,-25.390051,7.658668,,,,,,
1466441169.55,2.389500,-0.112865,-2.031824,0.055441,-0.417801,-0.050788,0.678822,0.112625,0.725614,0.061382,-0.105789,-0.032514,-2.235394,-25.385508,7.709853,,,,,,
1466441169.56,2.383785,-0.113609,-2.031840,0.055191,-0.617420,-0.049536,0.682900,0.113364,0.721662,0.099861,-0.102256,-0.070997,-2.235394,-25.385508,7.709853,,,,,,
1466441169.57,2.376855,-0.114373,-2.031891,0.059339,-0.705552,-0.048979,0.687825,0.114124,0.716849,0.085949,-0.100300,-0.054862,-2.136948,-25.379436,7.757608,,,,,,
1466441169.58,2.369537,-0.115165,-2.031941,0.060367,-0.740583,-0.051952,0.692988,0.114911,0.711732,0.070043,-0.106702,-0.017671,-2.136948,-25.379436,7.757608,,,,,,
1466441169.59,2.361098,-0.114920,-2.032044,0.062125,-0.794350,-0.057895,0.698990,0.114667,0.705878,0.062530,-0.110227,-0.019584,-2.136948,-25.379436,7.757608,,,,,,
1466441169.60,2.352930,-0.115760,-2.032037,0.057842,-0.816640,-0.059889,0.704663,0.115502,0.700078,0.049762,-0.112770,-0.017262,-2.000562,-25.372232,7.817314,,,,,,
1466441169.61,2.345144,-0.116576,-2.032045,0.055774,-0.762496,-0.057037,0.710026,0.116312,0.694504,0.034542,-0.118295,-0.004791,-2.000562,-25.372232,7.817314,,,,,,
1466441169.62,2.336857,-0.114609,-2.032091,0.046216,-0.735951,-0.057203,0.715919,0.114359,0.688754,0.030617,-0.110284,-0.015597,-2.000562,-25.372232,7.817314,,,,,,
1466441169.64,2.322751,-0.115960,-2.031907,0.034548,-0.694546,-0.053217,0.725450,0.115701,0.678481,0.040557,-0.108224,-0.028136,-2.000562,-25.372232,7.817314,,,,,,
1466441169.63,2.329696,-0.115317,-2.032017,0.043054,-0.708345,-0.056315,0.720774,0.115062,0.683553,0.043386,-0.105113,-0.020910,-2.000562,-25.372232,7.817314,,,,,,
1466441169.65,2.315773,-0.116540,-2.031811,0.031333,-0.700933,-0.046793,0.730117,0.116276,0.673356,0.042313,-0.108662,-0.023667,-1.617425,-25.369108,7.915491,,,,,,
1466441169.66,2.307614,-0.114295,-2.031851,0.027024,-0.720072,-0.038152,0.735778,0.114047,0.667550,0.033997,-0.102664,-0.016778,-1.617425,-25.369108,7.915491,,,,,,
1466441169.67,2.300271,-0.114696,-2.031918,0.033356,-0.738173,-0.021001,0.740626,0.114445,0.662099,0.042104,-0.108951,-0.022786,-1.527713,-25.376495,7.909641,,,,,,
1466441169.68,2.292660,-0.114985,-2.032051,0.027985,-0.760494,-0.011286,0.745619,0.114732,0.656421,0.078615,-0.109193,-0.044147,-1.527713,-25.376495,7.909641,,,,,,
1466441169.69,2.284505,-0.115276,-2.032161,0.027892,-0.843300,-0.016089,0.750922,0.115021,0.650297,0.079217,-0.099686,-0.043424,-1.527713,-25.376495,7.909641,,,,,,
1466441169.70,2.275510,-0.115402,-2.032304,0.036363,-0.890007,-0.022174,0.756730,0.115146,0.643507,0.061675,-0.093692,-0.013960,-1.399639,-25.372234,7.946920,,,,,,
1466441169.71,2.266794,-0.115806,-2.032447,0.034271,-0.858155,-0.021311,0.762275,0.115548,0.636857,0.046212,-0.108376,-0.008362,-1.399639,-25.372234,7.946920,,,,,,
1466441169.72,2.258287,-0.116141,-2.032567,0.031078,-0.850732,-0.017103,0.767635,0.115880,0.630324,0.046788,-0.108846,-0.020507,-1.399639,-25.372234,7.946920,,,,,,
1466441169.73,2.249526,-0.116451,-2.032764,0.034220,-0.880485,-0.009462,0.773099,0.116188,0.623553,0.036822,-0.112801,-0.016238,-1.399639,-25.372234,7.946920,,,,,,
1466441169.74,2.240793,-0.116081,-2.032943,0.026803,-0.845451,-0.006494,0.778549,0.115820,0.616804,0.023636,-0.106772,0.001100,-1.111762,-25.363827,8.018918,,,,,,
1466441169.75,2.233066,-0.116294,-2.033112,0.025858,-0.747767,-0.006043,0.783272,0.116032,0.610755,0.039955,-0.100590,-0.009467,-1.111762,-25.363827,8.018918,,,,,,
1466441169.76,2.225835,-0.116472,-2.033215,0.017381,-0.719089,-0.008360,0.787651,0.116209,0.605063,0.040169,-0.102308,-0.020682,-1.111762,-25.363827,8.018918,,,,,,
1466441169.77,2.218960,-0.116646,-2.033275,0.014250,-0.670241,-0.009734,0.791777,0.116382,0.599621,0.023638,-0.103228,0.003956,-0.854890,-25.357979,8.068761,,,,,,
1466441169.78,2.212620,-0.113571,-2.033360,0.012232,-0.571497,-0.009279,0.795845,0.113327,0.594800,0.021446,-0.104340,0.003222,-0.854890,-25.357979,8.068761,,,,,,
1466441169.79,2.207359,-0.113662,-2.033366,0.003772,-0.518414,-0.005363,0.798955,0.113417,0.590600,0.029979,-0.106596,-0.019326,-0.854890,-25.357979,8.068761,,,,,,
1466441169.80,2.202202,-0.113664,-2.033358,-0.001558,-0.513120,0.000985,0.801990,0.113419,0.586471,0.033734,-0.105088,-0.021224,-0.809451,-25.369169,8.038217,,,,,,
1466441169.81,2.197279,-0.113594,-2.033331,-0.007918,-0.485519,0.003999,0.804874,0.113349,0.582521,0.040296,-0.102928,-0.015107,-0.809451,-25.369169,8.038217,,,,,,
1466441169.82,2.190798,-0.109146,-2.033505,-0.004721,-0.470668,0.004990,0.809035,0.108929,0.577579,0.041841,-0.090573,-0.013171,-0.809451,-25.369169,8.038217,,,,,,
1466441169.83,2.186228,-0.109085,-2.033503,-0.004695,-0.451552,0.003806,0.811671,0.108869,0.573880,0.055059,-0.094663,-0.019253,-0.727511,-25.386345,7.991679,,,,,,
1466441169.84,2.181651,-0.109013,-2.033431,-0.011095,-0.465344,0.000692,0.814296,0.108797,0.570163,0.062062,-0.092455,-0.029239,-0.727511,-25.386345,7.991679,,,,,,
1466441169.85,2.176709,-0.109007,-2.033390,-0.000481,-0.499315,-0.003342,0.817104,0.108791,0.566132,0.056629,-0.080700,-0.013581,-0.727511,-25.386345,7.991679,,,,,,
1466441169.86,2.169620,-0.105845,-2.033613,0.002744,-0.475951,-0.009859,0.821377,0.105648,0.560516,0.074116,-0.085704,-0.020462,-0.656012,-25.387390,7.994546,,,,,,
1466441169.87,2.164618,-0.105980,-2.033534,0.000579,-0.516278,-0.017060,0.824158,0.105782,0.556393,0.080764,-0.085472,-0.039044,-0.656012,-25.387390,7.994546,,,,,,
1466441169.88,2.158890,-0.106210,-2.033501,0.013281,-0.586346,-0.022994,0.827312,0.106011,0.551649,0.075475,-0.077996,-0.023344,-0.656012,-25.387390,7.994546,,,,,,
1466441169.89,2.153028,-0.106526,-2.033522,0.018616,-0.582093,-0.026209,0.830503,0.106324,0.546772,0.068026,-0.088746,-0.017155,-0.534147,-25.398153,7.969392,,,,,,
1466441169.90,2.145400,-0.104868,-2.033704,0.021792,-0.600139,-0.031407,0.834796,0.104676,0.540517,0.077679,-0.085969,-0.034306,-0.534147,-25.398153,7.969392,,,,,,
1466441169.91,2.138920,-0.105259,-2.033756,0.024909,-0.661725,-0.031018,0.838247,0.105064,0.535073,0.081797,-0.087227,-0.032968,-0.458178,-25.402071,7.961631,,,,,,
1466441169.92,2.132119,-0.105636,-2.033774,0.023814,-0.687205,-0.031924,0.841833,0.105439,0.529339,0.074320,-0.083818,-0.027599,-0.458178,-25.402071,7.961631,,,,,,
1466441169.93,2.125213,-0.106039,-2.033828,0.023809,-0.691452,-0.031897,0.845432,0.105841,0.523490,0.072292,-0.088629,-0.032905,-0.458178,-25.402071,7.961631,,,,,,
1466441169.94,2.117554,-0.105647,-2.033911,0.020587,-0.706328,-0.028611,0.849452,0.105451,0.517021,0.081319,-0.089582,-0.036964,-0.458178,-25.402071,7.961631,,,,,,
1466441169.95,2.110314,-0.105997,-2.033909,0.015239,-0.729679,-0.030599,0.853141,0.105799,0.510839,0.089760,-0.093302,-0.042257,-0.222312,-25.397568,7.986051,,,,,,
1466441169.96,2.102838,-0.106337,-2.033884,0.017335,-0.754105,-0.029379,0.856906,0.106137,0.504428,0.093488,-0.088254,-0.037479,-0.222312,-25.397568,7.986051,,,,,,
1466441169.97,2.095166,-0.106669,-2.033903,0.018375,-0.771100,-0.027142,0.860720,0.106467,0.497822,0.087324,-0.086554,-0.025470,-0.222312,-25.397568,7.986051,,,,,,
1466441169.98,2.087271,-0.106737,-2.033990,0.025836,-0.763672,-0.027180,0.864617,0.106534,0.491008,0.083473,-0.086316,-0.019923,-0.089293,-25.395014,7.996756,,,,,,
1466441169.99,2.079679,-0.107069,-2.034058,0.020507,-0.762616,-0.023999,0.868289,0.106864,0.484412,0.102491,-0.087134,-0.037848,-0.089293,-25.395014,7.996756,,,,,,
1466441170.00,2.071584,-0.107369,-2.034156,0.023619,-0.823149,-0.020423,0.872153,0.107163,0.477352,0.109948,-0.090592,-0.055980,-0.089293,-25.395014,7.996756,,,,,,
1466441170.01,2.063033,-0.107611,-2.034245,0.018234,-0.865631,-0.015904,0.876180,0.107404,0.469865,0.117716,-0.086057,-0.055833,0.180090,-25.389015,8.014258,,,,,,
1466441170.02,2.053903,-0.107713,-2.034367,0.018165,-0.913424,-0.011346,0.880424,0.107505,0.461841,0.124001,-0.091574,-0.058856,0.180090,-25.389015,8.014258,,,,,,
,,,,,,,,,,,,,,,,29.719959,-95.399078,10.075582,-1.000000,-1.000000,1466441204.96
1466441170.03,2.044274,-0.107849,-2.034459,0.015943,-0.980328,-0.006671,0.884817,0.107640,0.453335,0.129129,-0.086216,-0.048580,0.180090,-25.389015,8.014258,,,,,,
1466441170.04,2.033996,-0.107977,-2.034608,0.020124,-1.037676,-0.003114,0.889417,0.107768,0.444211,0.128680,-0.085993,-0.039059,0.326823,-25.386181,8.018595,,,,,,
1466441170.05,2.023331,-0.108093,-2.034800,0.022203,-1.074846,-0.000750,0.894093,0.107882,0.434694,0.146831,-0.090579,-0.043535,0.326823,-25.386181,8.018595,,,,,,
1466441170.06,2.012027,-0.108209,-2.035009,0.024242,-1.148109,-0.001353,0.898938,0.107997,0.424555,0.157504,-0.088909,-0.050195,0.326823,-25.386181,8.018595,,,,,,
1466441170.07,2.000065,-0.108323,-2.035206,0.020983,-1.202256,-0.002081,0.903941,0.108111,0.413767,0.150442,-0.089511,-0.043787,0.666129,-25.379744,8.017962,,,,,,
1466441170.08,1.988006,-0.108417,-2.035378,0.017786,-1.202258,-0.001020,0.908855,0.108205,0.402832,0.147953,-0.089116,-0.027862,0.666129,-25.379744,8.017962,,,,,,
1466441170.09,1.975948,-0.108490,-2.035535,0.017780,-1.207566,-0.000986,0.913639,0.108278,0.391841,0.151668,-0.087388,-0.024623,0.666129,-25.379744,8.017962,,,,,,
1466441170.11,1.951523,-0.108710,-2.035866,0.019901,-1.222418,-0.006213,0.922915,0.108496,0.369401,0.167921,-0.084753,-0.022233,0.859264,-25.376352,8.010324,,,,,,
1466441170.10,1.963757,-0.108587,-2.035700,0.019897,-1.220303,-0.003033,0.918339,0.108373,0.380669,0.161343,-0.087057,-0.026025,0.859264,-25.376352,8.010324,,,,,,
1466441170.12,1.939393,-0.108877,-2.036003,0.018872,-1.204349,-0.012714,0.927311,0.108662,0.358173,0.168087,-0.084858,-0.008304,0.859264,-25.376352,8.010324,,,,,,
1466441170.13,1.927756,-0.109119,-2.036143,0.022154,-1.144873,-0.019471,0.931391,0.108903,0.347349,0.174872,-0.085038,-0.000013,1.252161,-25.370150,7.978117,,,,,,
1466441170.14,1.916673,-0.109482,-2.036236,0.021171,-1.101300,-0.033583,0.935146,0.109264,0.336991,0.195774,-0.082378,-0.004655,1.252161,-25.370150,7.978117,,,,,,
1466441170.15,1.905833,-0.109914,-2.036286,0.019096,-1.068365,-0.040178,0.938699,0.109693,0.326819,0.167883,-0.088514,0.012384,1.252161,-25.370150,7.978117,,,,,,
1466441170.17,1.888133,-0.110897,-2.036262,0.013084,-0.781652,-0.050498,0.944234,0.110669,0.310121,0.147044,-0.086728,0.045973,1.445349,-25.366079,7.958379,,,,,,
1466441170.16,1.896277,-0.110383,-2.036295,0.015043,-0.914384,-0.047535,0.941731,0.110159,0.317818,0.163982,-0.088202,0.037284,1.445349,-25.366079,7.958379,,,,,,
1466441170.18,1.881712,-0.111388,-2.036213,0.009055,-0.591599,-0.047436,0.946154,0.111157,0.304034,0.128462,-0.090375,0.069669,1.445349,-25.366079,7.958379,,,,,,
1466441170.20,1.876166,-0.112105,-2.035677,-0.031921,-0.139277,-0.040734,0.947749,0.111871,0.298758,0.188909,-0.099114,0.057046,1.768844,-25.358461,7.917220,,,,,,
1466441170.19,1.877859,-0.111817,-2.036078,-0.005513,-0.313414,-0.043873,0.947272,0.111584,0.300373,0.137063,-0.110776,0.066647,1.768844,-25.358461,7.917220,,,,,,
1466441170.21,1.874150,-0.112522,-2.035410,-0.007562,-0.258185,-0.049544,0.948305,0.112285,0.296833,0.255385,-0.076152,0.016506,1.768844,-25.358461,7.917220,,,,,,
1466441170.22,1.871962,-0.112775,-2.034920,-0.055342,-0.135021,-0.039719,0.948925,0.112536,0.294749,0.109028,-0.123828,0.085225,1.834615,-25.359232,7.899764,,,,,,
1466441170.23,1.874969,-0.113084,-2.034464,-0.022723,0.409659,-0.039910,0.948001,0.112843,0.297591,0.127545,-0.083623,0.207780,1.834615,-25.359232,7.899764,,,,,,
1466441170.24,1.879588,-0.113202,-2.033799,-0.069565,0.428771,-0.031561,0.946604,0.112960,0.301962,0.224691,-0.088302,0.084436,1.834615,-25.359232,7.899764,,,,,,
1466441170.26,1.880654,-0.113821,-2.032890,-0.076530,-0.072326,-0.053972,0.946215,0.113575,0.302950,0.309172,-0.118412,0.035383,1.850117,-25.367680,7.868972,,,,,,
1466441170.25,1.881334,-0.113524,-2.033508,0.001355,0.075191,-0.042046,0.946040,0.113280,0.303604,0.365391,-0.045989,0.025193,1.850117,-25.367680,7.868972,,,,,,
1466441170.27,1.881108,-0.114294,-2.032065,-0.050792,0.052992,-0.068570,0.946026,0.114046,0.303363,0.310398,-0.099626,0.152692,1.850117,-25.367680,7.868972,,,,,,
1466441170.28,1.881985,-0.114725,-2.031485,-0.036928,0.094355,-0.053913,0.945712,0.114474,0.304178,0.206128,-0.055163,0.219229,1.864481,-25.371353,7.853719,,,,,,
1466441170.29,1.884809,-0.115196,-2.031253,-0.003600,0.352353,-0.054433,0.944798,0.114941,0.306830,0.214854,-0.065930,0.263925,1.864481,-25.371353,7.853719,,,,,,
1466441170.30,1.888099,-0.115698,-2.030661,-0.055846,0.269600,-0.068869,0.943729,0.115440,0.309919,0.301953,-0.116767,0.159380,1.864481,-25.371353,7.853719,,,,,,
1466441170.31,1.888866,-0.116163,-2.029940,-0.044456,0.015817,-0.065137,0.943439,0.115902,0.310626,0.303616,-0.074779,0.164609,1.870742,-25.378725,7.828378,,,,,,
1466441170.32,1.889030,-0.116762,-2.029575,-0.010347,0.035992,-0.071616,0.943323,0.116497,0.310759,0.278372,-0.053189,0.299349,1.870742,-25.378725,7.828378,,,,,,
1466441170.33,1.889843,-0.117534,-2.029244,-0.009200,0.076384,-0.087835,0.942984,0.117264,0.311497,0.296900,-0.091949,0.304836,1.870742,-25.378725,7.828378,,,,,,
1466441170.35,1.886950,-0.119648,-2.028292,0.003224,-0.263300,-0.121884,0.943643,0.119363,0.308691,0.269293,-0.088174,0.333201,1.898670,-25.381592,7.812335,,,,,,
1466441170.34,1.889416,-0.118527,-2.028724,-0.021098,-0.117841,-0.115369,0.943006,0.118250,0.311058,0.350116,-0.116450,0.265541,1.898670,-25.381592,7.812335,,,,,,
1466441170.36,1.884220,-0.120861,-2.027995,0.008514,-0.291968,-0.122763,0.944344,0.120567,0.306068,0.221549,-0.085381,0.389107,1.898670,-25.381592,7.812335,,,,,,
1466441170.37,1.880938,-0.122056,-2.027776,0.020149,-0.351438,-0.121314,0.945206,0.121753,0.302923,0.198441,-0.087955,0.395624,2.048914,-25.374640,7.796947,,,,,,
1466441170.38,1.876250,-0.123248,-2.027684,0.030592,-0.502239,-0.112907,0.946476,0.122936,0.298445,0.143551,-0.079693,0.405138,2.048914,-25.374640,7.796947,,,,,,
1466441170.39,1.871099,-0.124411,-2.027731,0.040147,-0.516062,-0.107488,0.947864,0.124090,0.293523,0.116284,-0.079046,0.459010,2.171384,-25.366272,7.791025,,,,,,
1466441170.40,1.866080,-0.125495,-2.027813,0.040164,-0.495900,-0.103357,0.949196,0.125166,0.288723,0.092018,-0.088148,0.495548,2.171384,-25.366272,7.791025,,,,,,
1466441170.41,1.860565,-0.126567,-2.027966,0.045398,-0.552204,-0.093418,0.950645,0.126229,0.283445,0.014046,-0.096581,0.492907,2.171384,-25.366272,7.791025,,,,,,
1466441170.42,1.855835,-0.127702,-2.028118,0.047668,-0.456614,-0.104660,0.951837,0.127355,0.278905,0.000800,-0.084249,0.554454,2.303954,-25.355423,7.788266,,,,,,
1466441170.43,1.851877,-0.128838,-2.028342,0.052041,-0.369542,-0.107331,0.952793,0.128482,0.275095,-0.075199,-0.088428,0.555457,2.303954,-25.355423,7.788266,,,,,,
1466441170.44,1.848465,-0.129966,-2.028606,0.055288,-0.312233,-0.098107,0.953587,0.129601,0.271802,-0.144932,-0.095085,0.555133,2.303954,-25.355423,7.788266,,,,,,
1466441170.45,1.846230,-0.131090,-2.028877,0.058628,-0.194377,-0.097778,0.954051,0.130715,0.269631,-0.181025,-0.092965,0.573814,2.543507,-25.329840,7.796964,,,,,,
1466441170.46,1.845247,-0.132222,-2.029126,0.054529,-0.076498,-0.104908,0.954172,0.131837,0.268652,-0.204020,-0.096680,0.590067,2.543507,-25.329840,7.796964,,,,,,
1466441170.48,1.846719,-0.134584,-2.029708,0.054882,0.205939,-0.105615,0.953474,0.134178,0.269971,-0.374036,-0.109932,0.539386,2.619490,-25.315928,7.816957,,,,,,
1466441170.47,1.845247,-0.133405,-2.029441,0.062134,0.037123,-0.109871,0.954022,0.133009,0.268610,-0.283596,-0.100127,0.568289,2.619490,-25.315928,7.816957,,,,,,
1466441170.49,1.849491,-0.135747,-2.030018,0.062429,0.296162,-0.096593,0.952571,0.135331,0.272570,-0.399318,-0.103821,0.506239,2.619490,-25.315928,7.816957,,,,,,
1466441170.51,1.856964,-0.137952,-2.030962,0.080721,0.460712,-0.090156,0.950219,0.137515,0.279596,-0.475350,-0.096698,0.474661,2.619490,-25.315928,7.816957,,,,,,
1466441170.50,1.852742,-0.136862,-2.030434,0.076311,0.335430,-0.092568,0.951534,0.136436,0.275623,-0.418957,-0.088950,0.495953,2.619490,-25.315928,7.816957,,,,,,
1466441170.52,1.862850,-0.139046,-2.031547,0.090529,0.642272,-0.090220,0.948412,0.138599,0.285141,-0.537828,-0.094058,0.444534,2.663107,-25.285271,7.900992,,,,,,
1466441170.54,1.878480,-0.141145,-2.032845,0.091846,0.875813,-0.071459,0.943560,0.140677,0.299840,-0.609118,-0.103812,0.309733,2.663107,-25.285271,7.900992,,,,,,
1466441170.53,1.870100,-0.140152,-2.032215,0.091736,0.764365,-0.085663,0.946173,0.139694,0.291964,-0.575308,-0.103638,0.381529,2.663107,-25.285271,7.900992,,,,,,
1466441170.55,1.887899,-0.142026,-2.033516,0.090872,0.970276,-0.058215,0.940576,0.141549,0.308675,-0.623865,-0.087182,0.266505,2.541075,-25.248257,8.057999,,,,,,
1466441170.56,1.898284,-0.142799,-2.034219,0.092052,1.080670,-0.047197,0.937216,0.142314,0.318391,-0.654287,-0.088969,0.231841,2.541075,-25.248257,8.057999,,,,,,
1466441170.57,1.910078,-0.143505,-2.035015,0.097526,1.217611,-0.037406,0.933301,0.143013,0.329389,-0.655926,-0.099373,0.181796,2.541075,-25.248257,8.057999,,,,,,
1466441170.58,1.922926,-0.144085,-2.035815,0.093092,1.320913,-0.026263,0.928914,0.143587,0.341324,-0.666066,-0.110216,0.116471,2.407906,-25.230755,8.153149,,,,,,
1466441170.59,1.936756,-0.144643,-2.036609,0.093216,1.419661,-0.026882,0.924030,0.144139,0.354109,-0.655490,-0.112645,0.061678,2.407906,-25.230755,8.153149,,,,,,
1466441170.60,1.951433,-0.145181,-2.037420,0.091178,1.507765,-0.017856,0.918661,0.144671,0.367603,-0.663702,-0.118411,0.003689,2.407906,-25.230755,8.153149,,,,,,
1466441170.61,1.967370,-0.145641,-2.038105,0.080674,1.628804,-0.014368,0.912625,0.145126,0.382171,-0.655102,-0.114380,-0.045730,1.993637,-25.196875,8.366944,,,,,,
1466441170.62,1.984656,-0.145968,-2.038858,0.079750,1.767854,0.001790,0.905839,0.145450,0.397870,-0.649094,-0.115985,-0.077969,1.993637,-25.196875,8.366944,,,,,,
1466441170.63,2.003087,-0.146240,-2.039554,0.069243,1.881469,0.002132,0.898317,0.145720,0.414479,-0.622407,-0.125425,-0.155629,1.993637,-25.196875,8.366944,,,,,,
1466441170.64,2.021843,-0.146324,-2.040122,0.052172,1.885670,0.022313,0.890374,0.145802,0.431250,-0.585091,-0.132344,-0.237082,1.716580,-25.182941,8.469687,,,,,,
1466441170.66,2.061015,-0.146318,-2.041420,0.043833,2.044915,0.031950,0.872803,0.145796,0.465788,-0.517227,-0.118865,-0.323576,1.716580,-25.182941,8.469687,,,,,,
1466441170.65,2.040925,-0.146367,-2.040822,0.066060,1.931306,0.027363,0.881977,0.145845,0.448158,-0.555989,-0.109346,-0.265769,1.716580,-25.182941,8.469687,,,,,,
1466441170.67,2.081014,-0.146024,-2.041915,0.021358,1.986468,0.053583,0.863351,0.145506,0.483169,-0.468103,-0.107466,-0.421158,1.040005,-25.163210,8.636783,,,,,,
1466441170.68,2.100574,-0.145424,-2.042424,0.010619,1.963029,0.084589,0.853811,0.144911,0.500008,-0.460546,-0.084548,-0.441612,1.040005,-25.163210,8.636783,,,,,,
1466441170.69,2.120963,-0.144488,-2.042929,-0.012728,2.070204,0.112633,0.843555,0.143986,0.517381,-0.455600,-0.085148,-0.410189,0.664300,-25.160563,8.681452,,,,,,
1466441170.70,2.142312,-0.143223,-2.043409,-0.027577,2.156147,0.137626,0.832471,0.142734,0.535369,-0.439572,-0.094409,-0.412917,0.664300,-25.160563,8.681452,,,,,,
1466441170.71,2.164287,-0.141792,-2.043924,-0.045602,2.231518,0.146716,0.820674,0.141318,0.553646,-0.387507,-0.135474,-0.448269,0.240405,-25.164429,8.692326,,,,,,
1466441170.72,2.186487,-0.140232,-2.044139,-0.075439,2.173201,0.122569,0.808361,0.139773,0.571853,-0.199947,-0.137179,-0.519760,0.240405,-25.164429,8.692326,,,,,,
1466441170.73,2.206052,-0.138667,-2.044436,-0.056535,1.998997,0.144970,0.797194,0.138223,0.587687,-0.304167,-0.155252,-0.533381,0.240405,-25.164429,8.692326,,,,,,
1466441170.74,2.227746,-0.137309,-2.044744,-0.059453,2.195473,0.128832,0.784406,0.136878,0.604956,-0.186963,-0.146796,-0.456885,-0.216528,-25.173788,8.665813,,,,,,
1466441170.75,2.249637,-0.135905,-2.044893,-0.077587,2.158337,0.122660,0.771125,0.135487,0.622101,-0.183936,-0.147755,-0.533417,-0.216528,-25.173788,8.665813,,,,,,
1466441170.76,2.269754,-0.134657,-2.045164,-0.058640,1.961932,0.110073,0.758583,0.134250,0.637596,-0.091499,-0.154224,-0.575599,-0.216528,-25.173788,8.665813,,,,,,
1466441170.78,2.306641,-0.132424,-2.045819,-0.044942,1.829232,0.099210,0.734774,0.132037,0.665337,-0.058993,-0.144183,-0.587624,-1.061689,-25.192984,8.546885,,,,,,
1466441170.77,2.288406,-0.133471,-2.045443,-0.047059,1.847269,0.104417,0.746679,0.133075,0.651737,-0.069067,-0.141376,-0.596943,-1.061689,-25.192984,8.546885,,,,,,
1466441170.79,2.323968,-0.131389,-2.046163,-0.042976,1.700750,0.101082,0.723235,0.131011,0.678061,0.004014,-0.122985,-0.625296,-1.061689,-25.192984,8.546885,,,,,,
1466441170.80,2.339580,-0.130399,-2.046513,-0.046408,1.507509,0.100162,0.712655,0.130030,0.689358,0.070685,-0.106745,-0.660428,-1.061689,-25.192984,8.546885,,,,,,
