timestamp,attitude_roll,attitude_pitch,attitude_yaw,rotation_rate_x,rotation_rate_y,rotation_rate_z,gravity_x,gravity_y,gravity_z,user_acc_x,user_acc_y,user_acc_z,magnetic_field_x,magnetic_field_y,magnetic_field_z,latitude(degree),longitude(degree),altitude(meter),speed(m/s),course(degree),timestamp
1465825923.22,-0.155520,0.038234,-0.574478,0.001735,-0.043783,0.001443,-0.154781,-0.038225,-0.987209,0.018779,0.000963,0.000347,42.706589,43.043289,-18.205276,,,,,,
1465825923.23,-0.156083,0.038250,-0.574452,0.008015,-0.126610,0.004098,-0.155336,-0.038241,-0.987121,0.030138,0.003207,0.006195,42.706589,43.043289,-18.205276,,,,,,
1465825923.24,-0.157499,0.038326,-0.574408,0.014270,-0.234911,0.003719,-0.156734,-0.038316,-0.986897,0.040050,0.002153,-0.000545,42.713520,43.043907,-18.187538,,,,,,
1465825923.25,-0.160330,0.038466,-0.574317,0.021550,-0.364467,0.009861,-0.159526,-0.038457,-0.986444,0.031413,0.002645,0.002359,42.713520,43.043907,-18.187538,,,,,,
1465825923.26,-0.164255,0.038655,-0.574193,0.025689,-0.460028,0.010464,-0.163395,-0.038646,-0.985804,0.031910,0.002788,-0.001761,42.713520,43.043907,-18.187538,,,,,,
1465825923.27,-0.169076,0.038940,-0.574041,0.031999,-0.522677,0.010863,-0.168144,-0.038930,-0.984993,0.019767,0.000295,0.005639,42.562389,43.026276,-18.579357,,,,,,
1465825923.28,-0.174575,0.039212,-0.573869,0.032979,-0.586390,0.013393,-0.173557,-0.039202,-0.984043,0.016895,0.001528,-0.000332,42.562389,43.026276,-18.579357,,,,,,
1465825923.29,-0.180393,0.039523,-0.573670,0.035094,-0.594890,0.015577,-0.179276,-0.039512,-0.983005,0.017838,0.001320,0.008014,42.562389,43.026276,-18.579357,,,,,,
,,,,,,,,,,,,,,,,29.720793,-95.400292,10.633324,-1.000000,-1.000000,1465825923.22
,,,,,,,,,,,,,,,,29.719976,-95.399019,10.633324,-1.000000,-1.000000,1465825743.55
1465825923.30,-0.186006,0.039821,-0.573464,0.032988,-0.575776,0.015455,-0.184789,-0.039811,-0.981972,0.027471,0.001465,0.020363,42.378166,43.005360,-19.043095,,,,,,
1465825923.31,-0.191721,0.040124,-0.573243,0.037178,-0.627810,0.017914,-0.190395,-0.040113,-0.980888,0.044887,0.002561,0.015647,42.378166,43.005360,-19.043095,,,,,,
,,,,,,,,,,,,,,,,29.720793,-95.400292,10.633324,-1.000000,-1.000000,1465825923.23
1465825923.32,-0.199081,0.040579,-0.572925,0.057139,-0.834882,0.023491,-0.197606,-0.040568,-0.979442,0.087636,0.007456,0.031322,42.378166,43.005360,-19.043095,,,,,,
1465825923.33,-0.210777,0.041206,-0.572528,0.074663,-1.289351,0.029552,-0.209042,-0.041195,-0.977039,0.132108,0.010173,-0.027417,41.927685,42.947266,-20.139801,,,,,,
1465825923.34,-0.226915,0.042086,-0.571959,0.103942,-1.703490,0.039629,-0.224774,-0.042074,-0.973502,0.076229,0.005178,0.013038,41.927685,42.947266,-20.139801,,,,,,
1465825923.35,-0.245407,0.043033,-0.571253,0.110107,-1.869154,0.048126,-0.242726,-0.043020,-0.969141,0.062367,0.004781,0.004983,41.927685,42.947266,-20.139801,,,,,,
1465825923.36,-0.263991,0.044014,-0.570545,0.111204,-1.848972,0.044807,-0.260682,-0.044000,-0.964422,0.038758,0.004815,0.038594,41.377621,42.886398,-21.369568,,,,,,
1465825923.37,-0.282749,0.044935,-0.569830,0.106903,-1.886127,0.042907,-0.278715,-0.044920,-0.959323,-0.007814,-0.002580,-0.000669,41.377621,42.886398,-21.369568,,,,,,
1465825923.38,-0.301425,0.045859,-0.569093,0.110158,-1.834106,0.044713,-0.296569,-0.045843,-0.953911,-0.061356,-0.000590,-0.029122,41.377621,42.886398,-21.369568,,,,,,
1465825923.39,-0.317486,0.046652,-0.568402,0.089274,-1.513420,0.038423,-0.311840,-0.046635,-0.948990,-0.056370,-0.005596,0.031387,39.744190,42.713329,-24.576012,,,,,,
1465825923.40,-0.330306,0.047261,-0.567869,0.070503,-1.210776,0.029055,-0.323971,-0.047244,-0.944887,-0.062565,-0.002180,0.009096,39.744190,42.713329,-24.576012,,,,,,
1465825923.41,-0.341057,0.047784,-0.567415,0.061151,-1.032379,0.024733,-0.334102,-0.047766,-0.941326,-0.078648,-0.003595,-0.011357,39.744190,42.713329,-24.576012,,,,,,
,,,,,,,,,,,,,,,,29.721399,-95.401235,10.633324,-1.000000,-1.000000,1465825923.36
,,,,,,,,,,,,,,,,29.721500,-95.401392,10.633324,-1.000000,-1.000000,1465825923.37
1465825923.42,-0.350095,0.048199,-0.567040,0.048609,-0.851855,0.019331,-0.342589,-0.048181,-0.938249,-0.091066,-0.005515,-0.018690,39.049358,42.641525,-25.784821,,,,,,
1465825923.43,-0.356621,0.048505,-0.566763,0.034059,-0.574705,0.013320,-0.348700,-0.048486,-0.935980,-0.099482,-0.006034,-0.010462,39.049358,42.641525,-25.784821,,,,,,
1465825923.44,-0.359869,0.048658,-0.566631,0.013195,-0.241271,0.004822,-0.351735,-0.048639,-0.934835,-0.099650,-0.004752,0.001089,39.049358,42.641525,-25.784821,,,,,,
1465825923.46,-0.357873,0.048575,-0.566725,-0.015968,0.263123,-0.006886,-0.349869,-0.048556,-0.935539,-0.081649,-0.005415,-0.003670,38.300091,42.569073,-26.999756,,,,,,
1465825923.45,-0.360026,0.048674,-0.566623,-0.002396,0.052871,-0.002361,-0.351881,-0.048654,-0.934779,-0.090791,-0.006582,0.000789,38.300091,42.569073,-26.999756,,,,,,
1465825923.47,-0.354028,0.048397,-0.566884,-0.024283,0.422401,-0.008958,-0.346272,-0.048378,-0.936886,-0.078441,-0.003303,-0.010212,38.300091,42.569073,-26.999756,,,,,,
1465825923.48,-0.348432,0.048133,-0.567114,-0.036823,0.605049,-0.014374,-0.341029,-0.048115,-0.938821,-0.070149,-0.004223,-0.000343,38.300091,42.569073,-26.999756,,,,,,
1465825923.49,-0.341048,0.047789,-0.567444,-0.046175,0.778145,-0.021856,-0.334093,-0.047771,-0.941329,-0.070189,-0.006672,0.004027,38.594082,42.597107,-26.532862,,,,,,
1465825923.50,-0.331978,0.047359,-0.567802,-0.052357,0.948028,-0.019734,-0.325549,-0.047341,-0.944339,-0.063001,0.001030,0.004139,38.594082,42.597107,-26.532862,,,,,,
1465825923.51,-0.321387,0.046854,-0.568239,-0.066016,1.085022,-0.025929,-0.315536,-0.046837,-0.947757,-0.026169,-0.004875,0.022632,39.007622,42.637356,-25.854801,,,,,,
1465825923.52,-0.310455,0.046339,-0.568687,-0.060697,1.079713,-0.026955,-0.305164,-0.046323,-0.951172,0.001957,-0.002063,0.011628,39.007622,42.637356,-25.854801,,,,,,
,,,,,,,,,,,,,,,,29.719976,-95.399043,10.520350,-1.000000,-1.000000,1465825923.52
1465825923.53,-0.300551,0.045859,-0.569082,-0.056610,0.949098,-0.021874,-0.295736,-0.045843,-0.954169,0.019048,0.002264,0.006125,39.007622,42.637356,-25.854801,,,,,,
1465825923.54,-0.292258,0.045456,-0.569432,-0.046163,0.789822,-0.020864,-0.287818,-0.045440,-0.956606,0.028586,-0.000656,-0.003049,39.531345,42.689335,-24.958017,,,,,,
1465825923.55,-0.285222,0.045102,-0.569716,-0.039920,0.678321,-0.016965,-0.281084,-0.045087,-0.958623,0.028567,0.002286,0.012502,39.531345,42.689335,-24.958017,,,,,,
1465825923.56,-0.279106,0.044803,-0.569969,-0.035775,0.589124,-0.015337,-0.275220,-0.044788,-0.960338,0.038602,0.002384,0.016642,39.531345,42.689335,-24.958017,,,,,,
1465825923.57,-0.274091,0.044577,-0.570176,-0.024218,0.467008,-0.013496,-0.270403,-0.044562,-0.961715,0.040621,0.002936,0.013366,40.258301,42.765202,-23.630842,,,,,,
1465825923.58,-0.270508,0.044417,-0.570310,-0.016960,0.320461,-0.007247,-0.266958,-0.044402,-0.962685,0.041768,0.004744,0.011086,40.258301,42.765202,-23.630842,,,,,,
1465825923.59,-0.268388,0.044323,-0.570393,-0.009692,0.176046,-0.004205,-0.264917,-0.044308,-0.963253,0.043619,0.003842,0.005809,40.258301,42.765202,-23.630842,,,,,,
1465825923.60,-0.267645,0.044300,-0.570420,-0.001345,0.041190,-0.002287,-0.264202,-0.044286,-0.963450,0.044826,0.003209,0.012049,40.450020,42.785072,-23.264641,,,,,,
1465825923.61,-0.268260,0.044327,-0.570391,0.005926,-0.096859,0.002844,-0.264793,-0.044312,-0.963287,0.050850,0.003220,0.006515,40.450020,42.785072,-23.264641,,,,,,
1465825923.62,-0.270337,0.044449,-0.570298,0.016385,-0.242340,0.006960,-0.266793,-0.044435,-0.962729,0.049370,0.003678,0.007743,40.450020,42.785072,-23.264641,,,,,,
1465825923.63,-0.273797,0.044618,-0.570160,0.021533,-0.379321,0.009953,-0.270120,-0.044604,-0.961793,0.048608,0.004046,0.006288,40.454132,42.784138,-23.259190,,,,,,
1465825923.64,-0.278561,0.044865,-0.569970,0.032019,-0.504625,0.012879,-0.274696,-0.044849,-0.960485,0.045112,0.002262,0.008306,40.454132,42.784138,-23.259190,,,,,,
1465825923.65,-0.284432,0.045179,-0.569717,0.036139,-0.609755,0.016735,-0.280326,-0.045164,-0.958842,0.040748,0.003935,0.007578,40.454132,42.784138,-23.259190,,,,,,
1465825923.66,-0.291273,0.045519,-0.569409,0.043464,-0.707453,0.020549,-0.286874,-0.045504,-0.956887,0.049905,0.004397,0.012337,40.270435,42.764492,-23.611433,,,,,,
1465825923.67,-0.299305,0.045917,-0.569044,0.051810,-0.839130,0.024576,-0.294546,-0.045901,-0.954534,0.070012,0.004336,0.022161,40.270435,42.764492,-23.611433,,,,,,
1465825923.68,-0.309286,0.046395,-0.568592,0.063235,-1.061064,0.030237,-0.304051,-0.046378,-0.951526,0.097447,0.006324,0.023822,40.270435,42.764492,-23.611433,,,,,,
1465825923.69,-0.322400,0.047036,-0.568013,0.085161,-1.399802,0.036641,-0.316493,-0.047019,-0.947429,0.114330,0.007087,0.014552,39.563766,42.684387,-24.915075,,,,,,
1465825923.70,-0.339218,0.047836,-0.567287,0.103856,-1.768268,0.043229,-0.332369,-0.047818,-0.941936,0.108965,0.007092,0.004269,39.563766,42.684387,-24.915075,,,,,,
1465825923.71,-0.359075,0.048779,-0.566428,0.121608,-2.037990,0.050260,-0.350991,-0.048760,-0.935109,0.077950,0.003640,0.000096,39.563766,42.684387,-24.915075,,,,,,
1465825923.72,-0.380131,0.049775,-0.565487,0.127903,-2.110199,0.051784,-0.370582,-0.049754,-0.927466,0.057411,0.004054,0.017401,39.563766,42.684387,-24.915075,,,,,,
1465825923.73,-0.401396,0.050758,-0.564543,0.126821,-2.129302,0.048709,-0.390200,-0.050736,-0.919331,0.039889,0.002686,0.028325,37.774281,42.504040,-27.830196,,,,,,
1465825923.74,-0.422769,0.051726,-0.563575,0.127892,-2.120814,0.050786,-0.409739,-0.051703,-0.910737,-0.022222,0.000647,-0.010711,37.774281,42.504040,-27.830196,,,,,,
1465825923.75,-0.442597,0.052600,-0.562626,0.115373,-1.916938,0.048430,-0.427695,-0.052575,-0.902393,-0.042306,-0.001807,0.003650,36.596474,42.394108,-29.520294,,,,,,
1465825923.76,-0.459739,0.053322,-0.561781,0.097624,-1.641914,0.043495,-0.443083,-0.053297,-0.894895,-0.053438,-0.002276,0.024320,36.596474,42.394108,-29.520294,,,,,,
1465825923.77,-0.474585,0.053940,-0.561070,0.084062,-1.432708,0.033653,-0.456305,-0.053914,-0.888189,-0.064875,-0.005290,0.000646,36.596474,42.394108,-29.520294,,,,,,
1465825923.78,-0.487383,0.054459,-0.560436,0.072620,-1.219277,0.031239,-0.467621,-0.054432,-0.882252,-0.087738,-0.003201,-0.016460,36.596474,42.394108,-29.520294,,,,,,
1465825923.79,-0.497438,0.054873,-0.559947,0.053838,-0.927248,0.020873,-0.476457,-0.054845,-0.877485,-0.083403,-0.006052,0.004042,34.682358,42.218636,-31.980160,,,,,,
1465825923.80,-0.504671,0.055156,-0.559592,0.039283,-0.654346,0.014889,-0.482784,-0.055128,-0.874002,-0.099766,-0.003801,-0.002340,34.682358,42.218636,-31.980160,,,,,,
1465825923.81,-0.508960,0.055329,-0.559384,0.020511,-0.347464,0.008688,-0.486524,-0.055301,-0.871916,-0.107928,-0.007824,-0.013872,34.142712,42.171776,-32.616344,,,,,,
1465825923.82,-0.509964,0.055381,-0.559322,0.002835,-0.019340,0.000226,-0.487397,-0.055353,-0.871424,-0.098616,-0.006293,0.005701,34.142712,42.171776,-32.616344,,,,,,
1465825923.83,-0.508273,0.055316,-0.559394,-0.011759,0.222770,-0.005565,-0.485925,-0.055288,-0.872250,-0.084570,-0.004115,0.006207,34.142712,42.171776,-32.616344,,,,,,
1465825923.84,-0.504761,0.055189,-0.559569,-0.022192,0.390546,-0.008756,-0.482862,-0.055161,-0.873957,-0.082918,-0.004135,-0.006093,33.975368,42.156780,-32.809902,,,,,,
1465825923.85,-0.499562,0.054987,-0.559813,-0.032614,0.564695,-0.013052,-0.478317,-0.054959,-0.876466,-0.073197,-0.003284,-0.002807,33.975368,42.156780,-32.809902,,,,,,
1465825923.86,-0.492685,0.054730,-0.560134,-0.040928,0.723976,-0.016189,-0.472285,-0.054703,-0.879747,-0.053029,-0.002594,0.013505,33.975368,42.156780,-32.809902,,,,,,
1465825923.87,-0.484696,0.054415,-0.560515,-0.046136,0.813176,-0.018882,-0.465249,-0.054389,-0.883507,-0.032218,-0.001138,0.012688,34.518620,42.201607,-32.179169,,,,,,
1465825923.88,-0.476637,0.054096,-0.560900,-0.046161,0.793001,-0.018756,-0.458122,-0.054069,-0.887243,-0.002281,-0.000099,0.015570,34.518620,42.201607,-32.179169,,,,,,
1465825923.89,-0.469467,0.053793,-0.561255,-0.042039,0.685754,-0.017014,-0.451756,-0.053767,-0.890520,0.013371,0.001902,0.011064,34.518620,42.201607,-32.179169,,,,,,
1465825923.90,-0.463555,0.053547,-0.561527,-0.030495,0.556200,-0.012997,-0.446490,-0.053522,-0.893187,0.028811,0.002023,0.006163,40.885399,42.517811,-25.767210,,,,,,
1465825923.91,-0.458967,0.053368,-0.561760,-0.025338,0.423472,-0.012160,-0.442391,-0.053343,-0.895234,0.040154,0.004225,0.018037,40.885399,42.517811,-25.767210,,,,,,
1465825923.92,-0.455853,0.053243,-0.561938,-0.015949,0.270565,-0.010127,-0.439604,-0.053218,-0.896614,0.043913,0.002665,0.010276,41.204754,42.550205,-25.198757,,,,,,
1465825923.93,-0.454162,0.053181,-0.562021,-0.007607,0.141003,-0.002919,-0.438089,-0.053156,-0.897359,0.031870,0.003886,0.002415,41.204754,42.550205,-25.198757,,,,,,
1465825923.94,-0.453270,0.053160,-0.562054,-0.002366,0.076227,-0.001443,-0.437289,-0.053135,-0.897750,0.023990,0.002369,0.007277,41.387077,42.571201,-24.862259,,,,,,
1465825923.95,-0.452140,0.053085,-0.562100,-0.003464,0.051806,-0.000227,-0.436276,-0.053060,-0.898247,0.021527,0.002248,0.010796,41.387077,42.571201,-24.862259,,,,,,
1465825923.96,-0.451940,0.053061,-0.562107,-0.002459,0.006145,0.001125,-0.436097,-0.053036,-0.898335,0.025529,0.003674,0.014912,41.387077,42.571201,-24.862259,,,,,,
1465825923.97,-0.452641,0.053077,-0.562051,0.005922,-0.097924,0.004979,-0.436727,-0.053052,-0.898029,0.035329,0.002072,0.009219,41.387077,42.571201,-24.862259,,,,,,
1465825923.98,-0.454646,0.053147,-0.561942,0.014265,-0.235966,0.006918,-0.438524,-0.053122,-0.897148,0.042757,0.004538,0.009514,41.480751,42.580044,-24.690416,,,,,,
1465825923.99,-0.458148,0.053305,-0.561750,0.024718,-0.385694,0.011061,-0.441659,-0.053280,-0.895599,0.049570,0.002758,0.009125,41.480751,42.580044,-24.690416,,,,,,
1465825924.00,-0.463118,0.053518,-0.561494,0.031986,-0.532229,0.013051,-0.446100,-0.053493,-0.893383,0.056162,0.005122,0.011638,41.418671,42.571796,-24.808571,,,,,,
1465825924.01,-0.469585,0.053786,-0.561163,0.040305,-0.684083,0.018270,-0.451862,-0.053760,-0.890466,0.060505,0.005481,0.012338,41.418671,42.571796,-24.808571,,,,,,
1465825924.02,-0.477756,0.054139,-0.560761,0.051794,-0.858230,0.021502,-0.459114,-0.054113,-0.886728,0.059867,0.002248,0.008585,41.418671,42.571796,-24.808571,,,,,,
1465825924.03,-0.487353,0.054522,-0.560286,0.058020,-0.984594,0.024430,-0.467593,-0.054495,-0.882263,0.047229,0.003744,0.004333,40.861134,42.510956,-25.816967,,,,,,
1465825924.04,-0.497739,0.054935,-0.559765,0.061125,-1.052557,0.026988,-0.476720,-0.054908,-0.877339,0.041203,0.002585,0.007344,40.861134,42.510956,-25.816967,,,,,,
1465825924.05,-0.508632,0.055369,-0.559209,0.065324,-1.098219,0.028343,-0.486236,-0.055341,-0.872073,0.040023,0.003019,0.016391,40.861134,42.510956,-25.816967,,,,,,
1465825924.06,-0.520263,0.055842,-0.558641,0.070547,-1.188457,0.022528,-0.496334,-0.055813,-0.866336,0.056515,0.000789,0.017810,40.359528,42.459736,-26.675997,,,,,,
1465825924.07,-0.533400,0.056308,-0.557958,0.079904,-1.348830,0.036316,-0.507658,-0.056278,-0.859719,0.051817,0.016209,0.005181,40.359528,42.459736,-26.675997,,,,,,
1465825924.08,-0.548089,0.056896,-0.557240,0.087167,-1.503850,0.035167,-0.520214,-0.056865,-0.852141,0.053264,-0.006779,-0.000505,40.359528,42.459736,-26.675997,,,,,,
1465825924.09,-0.563489,0.057482,-0.556439,0.091401,-1.525086,0.034240,-0.533257,-0.057450,-0.844000,-0.000144,0.007569,-0.005655,40.359528,42.459736,-26.675997,,,,,,
1465825924.10,-0.577650,0.058004,-0.555685,0.083084,-1.361570,0.035335,-0.545139,-0.057972,-0.836339,-0.008084,-0.000195,-0.003199,39.017803,42.329807,-28.794571,,,,,,
1465825924.11,-0.589774,0.058446,-0.555006,0.070557,-1.166186,0.031968,-0.555223,-0.058413,-0.829648,-0.012312,0.001635,0.032208,39.017803,42.329807,-28.794571,,,,,,
1465825924.12,-0.601342,0.058808,-0.554367,0.068423,-1.169370,0.031986,-0.564771,-0.058775,-0.823152,0.023542,0.002882,0.027955,39.017803,42.329807,-28.794571,,,,,,
1465825924.14,-0.630422,0.059753,-0.552752,0.095472,-1.665263,0.041510,-0.588433,-0.059717,-0.806337,0.087381,0.004221,0.010332,37.489140,42.182903,-30.959585,,,,,,
1465825924.13,-0.614490,0.059240,-0.553613,0.082002,-1.369013,0.039638,-0.575530,-0.059205,-0.815634,0.055450,0.003892,0.008475,37.489140,42.182903,-30.959585,,,,,,
1465825924.15,-0.649166,0.060362,-0.551670,0.118550,-1.927564,0.051693,-0.603421,-0.060325,-0.795137,0.092694,0.010093,-0.000807,36.607628,42.100651,-32.105232,,,,,,
1465825924.16,-0.670207,0.061012,-0.550462,0.127836,-2.156929,0.057399,-0.619993,-0.060974,-0.782235,0.120847,0.002640,0.029885,36.607628,42.100651,-32.105232,,,,,,
1465825924.17,-0.694226,0.061734,-0.549038,0.150842,-2.480808,0.065840,-0.638572,-0.061695,-0.767085,0.142646,0.014240,0.039622,36.607628,42.100651,-32.105232,,,,,,
1465825924.18,-0.722429,0.062492,-0.547386,0.171551,-2.928932,0.080380,-0.659918,-0.062452,-0.748737,0.183127,0.009610,0.034229,36.607628,42.100651,-32.105232,,,,,,
1465825924.19,-0.756052,0.063378,-0.545364,0.211284,-3.496039,0.095686,-0.684677,-0.063335,-0.726089,0.218567,0.012585,0.043777,33.607235,41.828274,-35.556694,,,,,,
1465825924.20,-0.796189,0.064316,-0.542912,0.247668,-4.185191,0.108560,-0.713218,-0.064271,-0.697989,0.271904,0.024583,0.072943,33.607235,41.828274,-35.556694,,,,,,
1465825924.21,-0.844532,0.065329,-0.539988,0.299809,-5.028341,0.133060,-0.746065,-0.065283,-0.662665,0.312167,0.010870,0.058661,33.607235,41.828274,-35.556694,,,,,,
1465825924.22,-0.901503,0.066376,-0.536407,0.351938,-5.883169,0.156568,-0.782533,-0.066327,-0.619066,0.325914,0.027570,0.094804,30.982273,41.602108,-38.114208,,,,,,
1465825924.23,-0.967369,0.067314,-0.532234,0.406127,-6.808050,0.170939,-0.821531,-0.067263,-0.566182,0.393659,0.032076,0.140157,30.982273,41.602108,-38.114208,,,,,,
1465825924.24,-1.043952,0.068013,-0.527254,0.477082,-7.889127,0.223561,-0.862400,-0.067960,-0.501645,0.400608,0.025892,0.168836,30.982273,41.602108,-38.114208,,,,,,
1465825924.25,-1.132414,0.068431,-0.521551,0.534075,-9.144197,0.228296,-0.903320,-0.068378,-0.423482,0.488968,0.035175,0.242391,20.927671,40.816010,-45.159885,,,,,,
1465825924.27,-1.353087,0.067261,-0.507278,0.713472,-12.024070,0.309339,-0.974187,-0.067210,-0.215505,0.445180,0.032283,0.308614,20.927671,40.816010,-45.159885,,,,,,
1465825924.26,-1.235553,0.068250,-0.514862,0.642835,-10.652124,0.278310,-0.942132,-0.068197,-0.328233,0.491082,0.045110,0.298311,20.927671,40.816010,-45.159885,,,,,,
1465825924.28,-1.482669,0.065142,-0.499219,0.783310,-13.183656,0.339034,-0.994007,-0.065096,-0.087827,0.428104,0.039065,0.449231,12.141571,40.199051,-48.784710,,,,,,
1465825924.29,-1.622950,0.061659,-0.490756,0.852227,-14.225387,0.370119,-0.996743,-0.061620,0.052031,0.262535,0.031515,0.736772,12.141571,40.199051,-48.784710,,,,,,
1465825924.30,-1.772105,0.056657,-0.482494,0.894806,-15.055784,0.392400,-0.978234,-0.056626,0.199631,0.224602,0.041718,0.875656,12.141571,40.199051,-48.784710,,,,,,
1465825924.31,-1.928590,0.050162,-0.474732,0.933244,-15.791680,0.414085,-0.935494,-0.050141,0.349768,0.125450,0.039567,0.928003,-14.210500,38.610828,-49.503483,,,,,,
1465825924.32,-2.092166,0.042166,-0.467776,0.984533,-16.478720,0.429089,-0.866367,-0.042153,0.497625,0.021686,0.040216,0.954554,-14.210500,38.610828,-49.503483,,,,,,
1465825924.33,-2.260119,0.032871,-0.462022,0.998967,-16.838709,0.442006,-0.771260,-0.032866,0.635671,-0.079906,0.020979,0.993815,-14.210500,38.610828,-49.503483,,,,,,
1465825924.34,-2.428684,0.022750,-0.458057,0.995797,-16.800514,0.453472,-0.653868,-0.022748,0.756267,-0.168871,0.036801,1.039113,-30.512691,36.627289,-41.248611,,,,,,
1465825924.35,-2.594618,0.012119,-0.455797,0.986600,-16.497887,0.448372,-0.520067,-0.012118,0.854039,-0.238966,0.011035,0.998225,-30.512691,36.627289,-41.248611,,,,,,
1465825924.36,-2.756926,0.001689,-0.455275,0.950911,-16.132536,0.419434,-0.375250,-0.001689,0.926922,-0.398966,0.000301,0.887104,-42.217457,36.238277,-29.639561,,,,,,
1465825924.37,-2.913675,-0.008545,-0.456409,0.932574,-15.475266,0.413164,-0.225942,0.008545,0.974103,-0.495921,0.011795,0.820971,-42.217457,36.238277,-29.639561,,,,,,
1465825924.38,-3.060128,-0.017849,-0.458869,0.864862,-14.325225,0.379273,-0.081362,0.017848,0.996525,-0.535764,-0.032726,0.696774,-42.217457,36.238277,-29.639561,,,,,,
1465825924.39,3.090529,-0.025758,-0.462328,0.762395,-12.869372,0.344493,0.051025,0.025755,0.998365,-0.600158,-0.001982,0.610018,-42.217457,36.238277,-29.639561,,,,,,
1465825924.40,2.972952,-0.032425,-0.466282,0.684464,-11.371067,0.312665,0.167754,0.032419,0.985296,-0.650024,-0.037974,0.422496,-51.423943,36.460751,-0.471477,,,,,,
1465825924.41,2.871043,-0.037681,-0.470271,0.574757,-9.773940,0.258897,0.267071,0.037672,0.962940,-0.634198,-0.017561,0.304577,-51.423943,36.460751,-0.471477,,,,,,
1465825924.42,2.785105,-0.041867,-0.474129,0.496956,-8.170521,0.227474,0.348679,0.041855,0.936307,-0.668335,-0.032791,0.183825,-51.423943,36.460751,-0.471477,,,,,,
1465825924.43,2.715932,-0.044940,-0.477455,0.383109,-6.470411,0.178378,0.412506,0.044925,0.909846,-0.664352,-0.034305,0.080815,-46.561974,37.317188,20.333225,,,,,,
1465825924.44,2.664576,-0.047017,-0.480116,0.274704,-4.665204,0.135015,0.458624,0.047000,0.887387,-0.630835,-0.027698,0.017597,-46.561974,37.317188,20.333225,,,,,,
1465825924.45,2.631127,-0.048319,-0.481894,0.173713,-2.903514,0.084481,0.488013,0.048300,0.871499,-0.646201,-0.043417,-0.048257,-46.561974,37.317188,20.333225,,,,,,
1465825924.46,2.615043,-0.048889,-0.482792,0.068426,-1.168373,0.036238,0.501953,0.048869,0.863513,-0.612427,-0.028026,-0.092517,-43.675648,37.633877,25.498219,,,,,,
1465825924.47,2.616395,-0.048820,-0.482780,-0.032615,0.565690,-0.006672,0.500787,0.048800,0.864194,-0.582467,-0.035449,-0.075955,-43.675648,37.633877,25.498219,,,,,,
1465825924.48,2.634333,-0.048132,-0.481862,-0.126330,2.186157,-0.056313,0.485221,0.048114,0.873067,-0.551429,-0.036441,-0.087575,-43.675648,37.633877,25.498219,,,,,,
1465825924.49,2.667766,-0.046787,-0.480167,-0.221248,3.706797,-0.098942,0.455795,0.046770,0.888855,-0.512970,-0.021853,-0.052688,-42.849869,37.724758,26.735037,,,,,,
1465825924.50,2.715698,-0.044783,-0.477791,-0.303527,5.128663,-0.133489,0.412721,0.044768,0.909757,-0.483323,-0.028258,-0.004727,-42.849869,37.724758,26.735037,,,,,,
1465825924.51,2.777022,-0.042071,-0.474849,-0.381663,6.445431,-0.175887,0.356233,0.042058,0.933450,-0.466187,-0.028371,0.031241,-42.849869,37.724758,26.735037,,,,,,
1465825924.52,2.851324,-0.038522,-0.471561,-0.461977,7.736694,-0.209612,0.285997,0.038512,0.957456,-0.434755,-0.012404,0.129336,-44.963840,37.510578,23.350361,,,,,,
1465825924.53,2.938271,-0.034086,-0.468043,-0.535958,8.991838,-0.237783,0.201806,0.034079,0.978832,-0.386239,-0.020072,0.213764,-44.963840,37.510578,23.350361,,,,,,
1465825924.54,3.036506,-0.028718,-0.464565,-0.598448,10.061177,-0.271163,0.104850,0.028714,0.994073,-0.338752,-0.005048,0.290549,-44.963840,37.510578,23.350361,,,,,,
1465825924.55,-3.139448,-0.022513,-0.461345,-0.650570,10.922373,-0.293647,-0.002144,0.022511,0.999744,-0.312462,-0.005284,0.356304,-50.454674,36.790424,8.649923,,,,,,
1465825924.56,-3.024018,-0.015440,-0.458661,-0.699571,11.726229,-0.315768,-0.117290,0.015439,0.992978,-0.249073,0.002566,0.462589,-50.454674,36.790424,8.649923,,,,,,
1465825924.57,-2.901617,-0.007669,-0.456809,-0.743454,12.380342,-0.327366,-0.237672,0.007669,0.971315,-0.167937,0.018225,0.550413,-50.454674,36.790424,8.649923,,,,,,
1465825924.58,-2.774657,0.000581,-0.455888,-0.765308,12.767938,-0.339398,-0.358756,-0.000581,0.933431,-0.077843,0.016069,0.595225,-51.391254,36.441006,-2.241164,,,,,,
1465825924.59,-2.646086,0.008941,-0.456016,-0.760934,12.864551,-0.336807,-0.475459,-0.008941,0.879693,-0.006841,0.023009,0.638587,-51.391254,36.441006,-2.241164,,,,,,
1465825924.60,-2.518285,0.017141,-0.457224,-0.762175,12.729693,-0.332769,-0.583638,-0.017140,0.811833,0.091939,0.030903,0.660869,-51.391254,36.441006,-2.241164,,,,,,
1465825924.61,-2.393688,0.024988,-0.459410,-0.736077,12.319816,-0.326979,-0.679892,-0.024986,0.732886,0.193304,0.037498,0.634667,-44.605732,36.224068,-25.926361,,,,,,
1465825924.62,-2.275597,0.032007,-0.462316,-0.685898,11.625293,-0.293833,-0.761351,-0.032002,0.647550,0.221449,0.025425,0.592379,-44.605732,36.224068,-25.926361,,,,,,
1465825924.63,-2.165058,0.038284,-0.465856,-0.648569,10.841638,-0.279301,-0.827955,-0.038274,0.559487,0.310865,0.038274,0.555183,-37.364105,36.406780,-35.390682,,,,,,
1465825924.64,-2.063120,0.043600,-0.469610,-0.582667,9.941131,-0.250169,-0.880399,-0.043586,0.472226,0.358717,0.037467,0.514682,-37.364105,36.406780,-35.390682,,,,,,
1465825924.65,-1.971842,0.048083,-0.473514,-0.528736,8.817680,-0.230296,-0.919589,-0.048064,0.389930,0.397251,0.033904,0.403771,-37.364105,36.406780,-35.390682,,,,,,
1465825924.66,-1.892179,0.051662,-0.477175,-0.449337,7.648520,-0.195209,-0.947534,-0.051639,0.315457,0.427896,0.043933,0.363772,-37.364105,36.406780,-35.390682,,,,,,
1465825924.67,-1.824609,0.054453,-0.480520,-0.382753,6.435855,-0.168377,-0.966527,-0.054427,0.250724,0.479375,0.031050,0.299981,-21.953308,37.046249,-46.039742,,,,,,
1465825924.68,-1.769755,0.056523,-0.483371,-0.300343,5.128646,-0.128163,-0.978707,-0.056493,0.197333,0.515206,0.047369,0.248330,-21.953308,37.046249,-46.039742,,,,,,
1465825924.69,-1.729355,0.057961,-0.485506,-0.217054,3.656884,-0.096496,-0.985798,-0.057929,0.157630,0.530780,0.035514,0.169274,-21.953308,37.046249,-46.039742,,,,,,
1465825924.70,-1.703786,0.058803,-0.486910,-0.126343,2.174477,-0.056240,-0.989457,-0.058769,0.132369,0.544846,0.035866,0.138841,-16.314594,37.327652,-48.109360,,,,,,
1465825924.71,-1.693075,0.059176,-0.487497,-0.041991,0.709073,-0.020354,-0.990796,-0.059141,0.121760,0.525342,0.041838,0.100393,-16.314594,37.327652,-48.109360,,,,,,
1465825924.72,-1.696281,0.059059,-0.487287,0.043556,-0.653336,0.014887,-0.990407,-0.059024,0.124938,0.525426,0.031498,0.095140,-16.314594,37.327652,-48.109360,,,,,,
1465825924.73,-1.712806,0.058534,-0.486371,0.118509,-1.974327,0.048793,-0.988238,-0.058501,0.141290,0.496753,0.041563,0.090231,-12.825893,37.507786,-49.017273,,,,,,
1465825924.74,-1.742214,0.057528,-0.484709,0.196727,-3.242223,0.080241,-0.983714,-0.057496,0.170297,0.473033,0.027909,0.085807,-12.825893,37.507786,-49.017273,,,,,,
1465825924.75,-1.783859,0.056040,-0.482509,0.261183,-4.443225,0.113384,-0.975854,-0.056011,0.211122,0.420586,0.035518,0.103133,-12.825893,37.507786,-49.017273,,,,,,
1465825924.76,-1.836362,0.053980,-0.479798,0.325841,-5.490253,0.141304,-0.963539,-0.053954,0.262073,0.406135,0.030608,0.141858,-15.015732,37.388386,-48.483673,,,,,,
1465825924.77,-1.899062,0.051375,-0.476748,0.384152,-6.510722,0.164794,-0.945354,-0.051352,0.321976,0.349178,0.036322,0.173980,-15.015732,37.388386,-48.483673,,,,,,
1465825924.78,-1.971440,0.048077,-0.473371,0.445761,-7.435654,0.196203,-0.919746,-0.048058,0.389560,0.281731,0.020119,0.170056,-15.015732,37.388386,-48.483673,,,,,,
1465825924.79,-2.051502,0.044225,-0.469968,0.481046,-8.158772,0.205031,-0.885802,-0.044211,0.461953,0.244155,0.033255,0.238029,-25.454065,36.875931,-44.342834,,,,,,
1465825924.80,-2.137457,0.039717,-0.466641,0.520778,-8.703557,0.230841,-0.843033,-0.039706,0.536394,0.178772,0.015719,0.260099,-25.454065,36.875931,-44.342834,,,,,,
1465825924.81,-2.228360,0.034772,-0.463663,0.533996,-9.197309,0.236079,-0.791005,-0.034765,0.610821,0.129552,0.024313,0.284764,-25.454065,36.875931,-44.342834,,,,,,
1465825924.82,-2.323471,0.029210,-0.460922,0.578200,-9.585988,0.252399,-0.729551,-0.029206,0.683302,0.029036,0.015198,0.284731,-32.293758,36.583839,-39.909473,,,,,,
1465825924.83,-2.420778,0.023338,-0.458743,0.571611,-9.763277,0.242860,-0.659817,-0.023336,0.751064,0.006680,0.020040,0.317311,-32.293758,36.583839,-39.909473,,,,,,
1465825924.84,-2.518304,0.017194,-0.457140,0.582280,-9.721913,0.257513,-0.583622,-0.017193,0.811843,-0.078564,0.005627,0.316239,-32.293758,36.583839,-39.909473,,,,,,
1465825924.85,-2.614319,0.011029,-0.456176,0.566536,-9.559418,0.244770,-0.503148,-0.011028,0.864130,-0.101679,0.024105,0.329413,-44.609787,36.219501,-25.925758,,,,,,
1465825924.86,-2.708582,0.004990,-0.455725,0.547620,-9.366151,0.240345,-0.419600,-0.004990,0.907695,-0.213655,-0.015503,0.246418,-44.609787,36.219501,-25.925758,,,,,,
1465825924.87,-2.798704,-0.000871,-0.455944,0.532289,-8.860716,0.233967,-0.336208,0.000871,0.941787,-0.268314,0.003875,0.267716,-44.609787,36.219501,-25.925758,,,,,,
1465825924.88,-2.881809,-0.006254,-0.456527,0.478961,-8.109951,0.213238,-0.256867,0.006254,0.966427,-0.303314,-0.012876,0.204380,-48.568848,36.204960,-17.444139,,,,,,
1465825924.89,-2.956268,-0.011014,-0.457511,0.432191,-7.219039,0.194831,-0.184254,0.011013,0.982817,-0.360363,-0.012219,0.200792,-48.568848,36.204960,-17.444139,,,,,,
1465825924.90,-3.021652,-0.015118,-0.458576,0.373771,-6.300477,0.162400,-0.119639,0.015117,0.992702,-0.385762,-0.013896,0.085880,-48.568848,36.204960,-17.444139,,,,,,
1465825924.91,-3.076788,-0.018522,-0.459777,0.309114,-5.236489,0.145018,-0.064748,0.018521,0.997730,-0.418803,-0.023282,0.093991,-51.390297,36.435413,-2.351370,,,,,,
1465825924.92,-3.120894,-0.021208,-0.460822,0.250940,-4.124673,0.109247,-0.020692,0.021207,0.999561,-0.422515,-0.022717,-0.007312,-51.390297,36.435413,-2.351370,,,,,,
1465825924.93,3.130156,-0.023116,-0.461704,0.169470,-2.901374,0.079141,0.011434,0.023114,0.999667,-0.432500,-0.010205,0.019711,-51.283932,36.573093,2.529222,,,,,,
1465825924.94,3.110293,-0.024320,-0.462320,0.101828,-1.685520,0.051223,0.031286,0.024318,0.999215,-0.389501,-0.037380,-0.041619,-51.283932,36.573093,2.529222,,,,,,
1465825924.95,3.101760,-0.024766,-0.462583,0.032984,-0.588570,0.017664,0.039810,0.024763,0.998900,-0.367935,-0.005461,-0.031112,-51.283932,36.573093,2.529222,,,,,,
1465825924.96,3.103085,-0.024684,-0.462588,-0.024334,0.371382,-0.007574,0.038487,0.024681,0.998954,-0.350804,-0.020867,-0.073158,-51.032093,36.660755,5.073917,,,,,,
1465825924.97,3.114066,-0.024060,-0.462302,-0.075258,1.337698,-0.031781,0.027516,0.024057,0.999332,-0.322376,-0.019571,-0.060642,-51.032093,36.660755,5.073917,,,,,,
1465825924.98,3.134607,-0.022831,-0.461731,-0.136836,2.288110,-0.062285,0.006984,0.022829,0.999715,-0.299800,-0.005251,-0.029699,-51.032093,36.660755,5.073917,,,,,,
1465825924.99,-3.118974,-0.021092,-0.460962,-0.186793,3.180093,-0.083896,-0.022612,0.021090,0.999522,-0.288439,-0.021396,-0.038066,-51.161518,36.625393,3.887187,,,,,,
1465825925.00,-3.080574,-0.018776,-0.460022,-0.237832,4.047673,-0.111742,-0.060970,0.018774,0.997963,-0.269230,-0.010168,0.006096,-51.161518,36.625393,3.887187,,,,,,
1465825925.01,-3.033535,-0.015919,-0.459043,-0.291015,4.925835,-0.125818,-0.107834,0.015918,0.994041,-0.256988,-0.014423,0.028343,-51.161518,36.625393,3.887187,,,,,,
1465825925.02,-2.978124,-0.012414,-0.458056,-0.345343,5.721208,-0.151085,-0.162729,0.012413,0.986593,-0.190481,0.001030,0.098795,-51.378788,36.523285,0.547704,,,,,,
1465825925.03,-2.916266,-0.008469,-0.457187,-0.378636,6.328599,-0.163443,-0.223417,0.008469,0.974686,-0.176897,-0.010849,0.092361,-51.378788,36.523285,0.547704,,,,,,
1465825925.04,-2.848980,-0.004149,-0.456521,-0.406703,6.852114,-0.178463,-0.288452,0.004149,0.957485,-0.125229,0.006578,0.159885,-51.378788,36.523285,0.547704,,,,,,
1465825925.05,-2.777491,0.000512,-0.456097,-0.433881,7.239712,-0.190501,-0.356110,-0.000512,0.934444,-0.079758,0.003274,0.171254,-50.408863,36.285896,-10.784740,,,,,,
1465825925.06,-2.703073,0.005309,-0.456043,-0.439938,7.504105,-0.192165,-0.424594,-0.005309,0.905368,-0.046323,0.009520,0.218121,-50.408863,36.285896,-10.784740,,,,,,
1465825925.07,-2.626920,0.010246,-0.456344,-0.454670,7.634728,-0.198321,-0.492224,-0.010246,0.870408,0.028494,0.014610,0.243682,-50.408863,36.285896,-10.784740,,,,,,
1465825925.08,-2.550617,0.015117,-0.457058,-0.452574,7.612421,-0.194986,-0.557108,-0.015116,0.830303,0.068231,0.008372,0.262028,-48.466511,36.219856,-17.696037,,,,,,
1465825925.09,-2.475792,0.019896,-0.458137,-0.444305,7.418100,-0.191630,-0.617567,-0.019895,0.786267,0.154631,0.024945,0.274494,-48.466511,36.219856,-17.696037,,,,,,
1465825925.10,-2.405126,0.024280,-0.459409,-0.408739,6.926442,-0.178931,-0.671477,-0.024278,0.740628,0.184569,0.023622,0.245410,-48.466511,36.219856,-17.696037,,,,,,
1465825925.11,-2.340058,0.028196,-0.460850,-0.374323,6.368948,-0.164756,-0.718139,-0.028192,0.695328,0.181854,0.022119,0.210784,-41.509506,36.299603,-30.550455,,,,,,
1465825925.12,-2.279366,0.031745,-0.462479,-0.354630,5.954812,-0.153624,-0.758911,-0.031740,0.650420,0.253357,0.027132,0.256486,-41.509506,36.299603,-30.550455,,,,,,
1465825925.13,-2.224266,0.034939,-0.464067,-0.311764,5.328324,-0.148587,-0.793494,-0.034931,0.607574,0.284476,0.026738,0.215866,-41.509506,36.299603,-30.550455,,,,,,
1465825925.14,-2.176182,0.037560,-0.465689,-0.277568,4.630611,-0.111179,-0.821703,-0.037551,0.568678,0.275743,0.024307,0.172380,-37.486301,36.416573,-35.251106,,,,,,
1465825925.15,-2.135906,0.039761,-0.467029,-0.217909,3.810866,-0.104914,-0.843862,-0.039750,0.535085,0.332418,0.028611,0.155985,-37.486301,36.416573,-35.251106,,,,,,
1465825925.16,-2.103739,0.041402,-0.468296,-0.185975,3.011216,-0.064741,-0.860577,-0.041390,0.507635,0.321454,0.022302,0.127207,-37.486301,36.416573,-35.251106,,,,,,
1465825925.17,-2.080350,0.042642,-0.469156,-0.117903,2.096984,-0.064261,-0.872169,-0.042630,0.487345,0.394095,0.033596,0.126379,-30.955151,36.658276,-40.889847,,,,,,
1465825925.18,-2.067017,0.043310,-0.469679,-0.066023,1.076460,-0.019489,-0.878564,-0.043296,0.475659,0.328454,0.024818,0.056857,-30.955151,36.658276,-40.889847,,,,,,
1465825925.19,-2.062686,0.043570,-0.469814,-0.011702,0.239738,-0.016316,-0.880606,-0.043556,0.471844,0.335562,0.023628,0.053714,-30.955151,36.658276,-40.889847,,,,,,
1465825925.20,-2.065648,0.043384,-0.469668,0.028884,-0.467587,0.019031,-0.879211,-0.043371,0.474454,0.303726,0.025976,0.066241,-29.472923,36.717327,-41.919147,,,,,,
1465825925.21,-2.075551,0.042923,-0.469289,0.067407,-1.163088,0.023431,-0.874487,-0.042910,0.483147,0.313345,0.023180,0.065284,-29.472923,36.717327,-41.919147,,,,,,
1465825925.22,-2.092827,0.042003,-0.468595,0.115388,-1.916003,0.054812,-0.866044,-0.041990,0.498201,0.278443,0.021299,0.045271,-29.472923,36.717327,-41.919147,,,,,,
1465825925.24,-2.149114,0.039066,-0.466496,0.197671,-3.345284,0.083018,-0.836744,-0.039056,0.546199,0.266325,0.021172,0.062657,-30.521233,36.669968,-41.204350,,,,,,
1465825925.23,-2.117472,0.040741,-0.467680,0.154938,-2.632755,0.064669,-0.853549,-0.040730,0.519419,0.278460,0.022145,0.047506,-30.521233,36.669968,-41.204350,,,,,,
1465825925.25,-2.187728,0.037001,-0.465156,0.239416,-3.998349,0.099929,-0.815099,-0.036993,0.578139,0.188832,0.019765,0.023759,-30.521233,36.669968,-41.204350,,,,,,
1465825925.26,-2.230605,0.034566,-0.463786,0.257026,-4.365782,0.117153,-0.789638,-0.034559,0.612599,0.169536,0.010161,0.070308,-32.739517,36.580242,-39.547943,,,,,,
1465825925.27,-2.276915,0.031946,-0.462381,0.286409,-4.709818,0.118276,-0.760498,-0.031941,0.648554,0.147217,0.026142,0.083624,-32.739517,36.580242,-39.547943,,,,,,
1465825925.28,-2.326181,0.028988,-0.461103,0.289218,-4.991241,0.136010,-0.727702,-0.028984,0.685280,0.094203,-0.001976,0.089012,-32.739517,36.580242,-39.547943,,,,,,
1465825925.30,-2.433532,0.022506,-0.458720,0.322545,-5.556188,0.157682,-0.650197,-0.022504,0.759432,-0.008342,0.001859,0.046522,-39.054775,36.361286,-33.565041,,,,,,
1465825925.29,-2.378363,0.025879,-0.459808,0.322937,-5.295955,0.123053,-0.691027,-0.025876,0.722365,0.118884,0.024854,0.089768,-39.054775,36.361286,-33.565041,,,,,,
1465825925.31,-2.488992,0.019008,-0.457759,0.332213,-5.524276,0.135138,-0.607145,-0.019007,0.794364,0.016782,0.005915,0.096612,-39.054775,36.361286,-33.565041,,,,,,
1465825925.32,-2.543552,0.015556,-0.457066,0.317377,-5.440434,0.151629,-0.562956,-0.015555,0.826340,-0.006075,0.009879,0.109954,-39.054775,36.361286,-33.565041,,,,,,
1465825925.33,-2.598368,0.012043,-0.456484,0.332244,-5.500914,0.133927,-0.516862,-0.012043,0.855984,-0.045089,0.008488,0.107807,-45.218876,36.223789,-24.841923,,,,,,
1465825925.34,-2.652973,0.008564,-0.456076,0.313164,-5.429769,0.135591,-0.469390,-0.008564,0.882949,-0.089692,-0.012585,0.024476,-45.218876,36.223789,-24.841923,,,,,,
1465825925.36,-2.751305,0.002231,-0.455935,0.263219,-4.519750,0.119189,-0.380454,-0.002231,0.924797,-0.147638,-0.005002,0.046303,-47.573776,36.206543,-19.996307,,,,,,
1465825925.35,-2.704712,0.005213,-0.455950,0.302985,-5.054951,0.134295,-0.423109,-0.005213,0.906064,-0.169542,0.008310,0.074069,-47.573776,36.206543,-19.996307,,,,,,
1465825925.37,-2.792529,-0.000445,-0.456070,0.238348,-3.994113,0.104159,-0.342018,0.000445,0.939693,-0.208320,-0.008898,0.079319,-47.573776,36.206543,-19.996307,,,,,,
1465825925.38,-2.828490,-0.002792,-0.456270,0.204970,-3.453618,0.093285,-0.308011,0.002792,0.951379,-0.211841,-0.008682,-0.009576,-47.573776,36.206543,-19.996307,,,,,,
1465825925.39,-2.858594,-0.004616,-0.456512,0.159967,-2.859998,0.071421,-0.279233,0.004616,0.960212,-0.217135,0.001289,0.000863,-50.201149,36.267246,-11.771215,,,,,,
1465825925.40,-2.882029,-0.006145,-0.456728,0.129985,-2.158110,0.059538,-0.256654,0.006145,0.966484,-0.244109,-0.021922,-0.028358,-50.201149,36.267246,-11.771215,,,,,,
1465825925.41,-2.898040,-0.007185,-0.456956,0.088345,-1.421163,0.042101,-0.241146,0.007185,0.970462,-0.244251,0.002825,0.041470,-50.711845,36.304852,-9.181339,,,,,,
1465825925.42,-2.907207,-0.007734,-0.457029,0.043370,-0.810543,0.016938,-0.232239,0.007734,0.972628,-0.199677,-0.024930,-0.047839,-50.711845,36.304852,-9.181339,,,,,,
1465825925.43,-2.910631,-0.007969,-0.457107,0.013292,-0.179806,0.008694,-0.228906,0.007968,0.973416,-0.241934,-0.005313,-0.034420,-50.711845,36.304852,-9.181339,,,,,,
1465825925.44,-2.907113,-0.007729,-0.457059,-0.033687,0.533802,-0.014988,-0.232330,0.007729,0.972606,-0.211106,-0.005410,-0.039379,-50.902840,36.326885,-7.955418,,,,,,
1465825925.45,-2.896378,-0.007019,-0.456978,-0.078556,1.249503,-0.028037,-0.242759,0.007018,0.970061,-0.204614,-0.014495,-0.021255,-50.902840,36.326885,-7.955418,,,,,,
1465825925.46,-2.879031,-0.005912,-0.456834,-0.111804,1.882396,-0.046942,-0.259551,0.005912,0.965711,-0.167207,-0.001990,0.006685,-50.902840,36.326885,-7.955418,,,,,,
1465825925.47,-2.856851,-0.004466,-0.456630,-0.137860,2.313530,-0.060316,-0.280907,0.004466,0.959725,-0.117287,0.001348,-0.009896,-50.682568,36.309326,-9.324183,,,,,,
1465825925.48,-2.831140,-0.002799,-0.456432,-0.159769,2.662892,-0.068916,-0.305488,0.002799,0.952192,-0.129036,-0.001990,-0.016050,-50.682568,36.309326,-9.324183,,,,,,
1465825925.49,-2.800810,-0.000807,-0.456280,-0.194258,3.161986,-0.082725,-0.334225,0.000807,0.942493,-0.111774,-0.004012,0.000592,-50.682568,36.309326,-9.324183,,,,,,
1465825925.51,-2.727441,0.003949,-0.456115,-0.232669,3.926538,-0.100332,-0.402410,-0.003949,0.915451,-0.071543,-0.006992,0.058670,-50.226490,36.275612,-11.636589,,,,,,
1465825925.50,-2.765917,0.001483,-0.456146,-0.211809,3.586739,-0.093922,-0.366900,-0.001483,0.930259,-0.073941,0.005511,0.060998,-50.226490,36.275612,-11.636589,,,,,,
1465825925.52,-2.686495,0.006574,-0.456145,-0.238776,4.138922,-0.109121,-0.439541,-0.006574,0.898198,-0.020252,0.012449,0.081034,-50.226490,36.275612,-11.636589,,,,,,
1465825925.53,-2.644102,0.009317,-0.456337,-0.256721,4.264221,-0.108860,-0.477201,-0.009317,0.878745,0.001355,-0.002280,0.071069,-50.226490,36.275612,-11.636589,,,,,,
1465825925.54,-2.600891,0.012038,-0.456609,-0.249163,4.345979,-0.110430,-0.514700,-0.012037,0.857286,0.020010,0.018827,0.085311,-48.183331,36.219322,-18.454220,,,,,,
1465825925.55,-2.557103,0.014919,-0.457100,-0.271488,4.370418,-0.112734,-0.551713,-0.014919,0.833901,0.075135,0.003246,0.121025,-48.183331,36.219322,-18.454220,,,,,,
1465825925.56,-2.514390,0.017599,-0.457619,-0.250378,4.225996,-0.109678,-0.586791,-0.017598,0.809547,0.103927,0.013478,0.109444,-46.516621,36.217472,-22.327766,,,,,,
1465825925.57,-2.474388,0.020149,-0.458262,-0.230563,3.910604,-0.098101,-0.618667,-0.020148,0.785395,0.152572,0.028403,0.127477,-46.516621,36.217472,-22.327766,,,,,,
1465825925.58,-2.438714,0.022375,-0.458835,-0.206661,3.447638,-0.091980,-0.646255,-0.022373,0.762793,0.184555,0.004779,0.092737,-46.516621,36.217472,-22.327766,,,,,,
1465825925.59,-2.406887,0.024286,-0.459464,-0.177305,3.105684,-0.075968,-0.670171,-0.024284,0.741809,0.142675,0.026557,0.080990,-42.482803,36.280144,-29.206036,,,,,,
1465825925.60,-2.377891,0.026081,-0.460048,-0.170197,2.825373,-0.077396,-0.691365,-0.026078,0.722035,0.183247,0.009339,0.096797,-42.482803,36.280144,-29.206036,,,,,,
1465825925.61,-2.351723,0.027623,-0.460654,-0.150337,2.552442,-0.061827,-0.709990,-0.027619,0.703670,0.150435,0.017975,0.078954,-42.482803,36.280144,-29.206036,,,,,,
1465825925.62,-2.328343,0.029019,-0.461265,-0.133684,2.251935,-0.056732,-0.726218,-0.029015,0.686852,0.187186,0.018837,0.102409,-40.691143,36.322857,-31.605560,,,,,,
1465825925.63,-2.309772,0.030135,-0.461749,-0.104583,1.698697,-0.044718,-0.738823,-0.030130,0.673225,0.245064,0.017038,0.086815,-40.691143,36.322857,-31.605560,,,,,,
1465825925.64,-2.297797,0.030812,-0.462039,-0.052206,1.032885,-0.027717,-0.746817,-0.030808,0.664316,0.230551,0.012085,0.024084,-40.691143,36.322857,-31.605560,,,,,,
1465825925.66,-2.290883,0.031216,-0.462233,0.004974,-0.033252,0.000316,-0.751382,-0.031211,0.659129,0.231683,0.014381,0.040640,-38.114391,36.399239,-34.589294,,,,,,
1465825925.65,-2.291794,0.031168,-0.462202,-0.032714,0.464776,-0.011361,-0.750783,-0.031163,0.659814,0.226887,0.024846,0.056251,-38.114391,36.399239,-34.589294,,,,,,
1465825925.67,-2.295144,0.030996,-0.462105,0.029855,-0.556757,0.012139,-0.748572,-0.030991,0.662329,0.193442,0.018738,0.045099,-38.114391,36.399239,-34.589294,,,,,,
1465825925.68,-2.303564,0.030361,-0.461956,0.062402,-0.863737,0.051353,-0.742983,-0.030357,0.668621,0.753435,0.041984,0.269565,-37.880962,36.406921,-34.836750,,,,,,
1465825925.69,-2.309862,0.029856,-0.461910,0.025091,-0.987797,-0.003258,-0.738769,-0.029852,0.673298,1.300094,0.073156,0.701183,-37.880962,36.406921,-34.836750,,,,,,
1465825925.70,-2.363650,0.027313,-0.460598,0.412318,-7.010862,0.153057,-0.701554,-0.027310,0.712093,0.105851,0.022473,-0.699642,-37.880962,36.406921,-34.836750,,,,,,
1465825925.71,-2.461568,0.021072,-0.457958,0.622216,-10.237877,0.206503,-0.628673,-0.021070,0.777385,0.452449,-0.085742,-0.069651,-40.254601,36.344440,-32.135323,,,,,,
1465825925.72,-2.560247,0.016634,-0.456913,0.427207,-9.578297,0.164916,-0.549073,-0.016634,0.835609,-0.317031,0.019411,0.320306,-40.254601,36.344440,-32.135323,,,,,,
1465825925.73,-2.646253,0.011752,-0.454888,0.495266,-8.015241,0.112603,-0.475298,-0.011752,0.879747,-2.047728,-0.046811,-0.444123,-40.254601,36.344440,-32.135323,,,,,,
1465825925.74,-2.676183,0.009431,-0.455512,0.027077,-0.873519,0.139728,-0.448769,-0.009431,0.893598,-0.994621,-0.105407,0.732501,-45.653297,36.210606,-24.054085,,,,,,
1465825925.75,-2.627526,0.013138,-0.456583,-0.468126,6.219317,-0.197973,-0.491680,-0.013138,0.870677,0.231640,0.263672,0.788686,-45.653297,36.210606,-24.054085,,,,,,
1465825925.76,-2.566110,0.017360,-0.456682,-0.291128,5.613928,-0.167388,-0.544158,-0.017359,0.838803,-0.354036,-0.096609,-0.424604,-45.653297,36.210606,-24.054085,,,,,,
1465825925.78,-2.515222,0.019796,-0.457280,0.007756,1.248492,-0.062007,-0.586093,-0.019794,0.810002,0.493564,0.006290,-0.013234,-45.814762,36.195118,-23.768694,,,,,,
1465825925.77,-2.531371,0.019079,-0.457399,-0.174560,2.853851,-0.007326,-0.572945,-0.019077,0.819372,0.256279,0.034855,-0.214819,-45.814762,36.195118,-23.768694,,,,,,
1465825925.79,-2.512202,0.019920,-0.456789,-0.007662,0.033724,-0.027793,-0.588535,-0.019919,0.808226,0.117512,-0.039225,-0.064558,-45.814762,36.195118,-23.768694,,,,,,
1465825925.80,-2.513673,0.019824,-0.457002,0.017605,-0.115079,0.023195,-0.587347,-0.019823,0.809092,0.206335,0.020708,0.133993,-44.580879,36.213573,-25.983704,,,,,,
1465825925.81,-2.513351,0.019585,-0.457084,-0.007749,0.041025,0.020062,-0.587610,-0.019583,0.808907,0.292963,-0.009546,0.116462,-44.580879,36.213573,-25.983704,,,,,,
1465825925.82,-2.517006,0.019637,-0.457461,-0.006398,-0.563171,0.034497,-0.584649,-0.019636,0.811049,0.215875,0.040602,0.001482,-44.580879,36.213573,-25.983704,,,,,,
1465825925.83,-2.529715,0.018594,-0.457335,0.114835,-1.505092,0.055427,-0.574306,-0.018593,0.818430,0.122005,0.036217,-0.039453,-44.618599,36.223644,-25.904793,,,,,,
1465825925.84,-2.549216,0.017152,-0.457218,0.127983,-2.030738,0.075768,-0.558252,-0.017151,0.829494,0.010690,-0.000503,-0.048427,-44.618599,36.223644,-25.904793,,,,,,
1465825925.85,-2.567650,0.015663,-0.457079,0.133711,-1.715374,0.069538,-0.542880,-0.015662,0.839664,-0.082745,0.007301,0.056790,-44.618599,36.223644,-25.904793,,,,,,
1465825925.86,-2.579222,0.014455,-0.456959,0.097423,-0.959311,0.049858,-0.533137,-0.014454,0.845905,-0.116704,0.020634,0.080242,-45.386612,36.223717,-24.534222,,,,,,
1465825925.87,-2.583212,0.013669,-0.456774,0.069648,-0.241418,0.009137,-0.529764,-0.013668,0.848035,-0.031058,0.021847,0.062549,-45.386612,36.223717,-24.534222,,,,,,
1465825925.88,-2.583862,0.013151,-0.456464,0.056057,-0.041793,0.007871,-0.529216,-0.013151,0.848385,-0.087239,-0.044130,-0.047680,-45.386612,36.223717,-24.534222,,,,,,
1465825925.89,-2.584333,0.013033,-0.456489,-0.008914,-0.065111,0.004759,-0.528818,-0.013033,0.848635,-0.022727,-0.054045,-0.032290,-46.155441,36.204636,-23.085260,,,,,,
1465825925.91,-2.588530,0.012599,-0.456455,0.024897,-0.260520,0.013470,-0.525254,-0.012599,0.850852,-0.017623,-0.008504,-0.020561,-46.155441,36.204636,-23.085260,,,,,,
1465825925.90,-2.586003,0.012996,-0.456549,0.022849,-0.198929,0.010952,-0.527400,-0.012996,0.849518,-0.055379,0.034938,0.017868,-46.155441,36.204636,-23.085260,,,,,,
1465825925.92,-2.589994,0.012510,-0.456487,0.016608,-0.091666,0.003887,-0.524009,-0.012510,0.851621,0.005881,-0.002993,0.004519,-46.199211,36.209747,-22.989506,,,,,,
1465825925.93,-2.589307,0.012418,-0.456458,-0.002299,0.115392,0.003634,-0.524594,-0.012418,0.851262,-0.032672,0.018369,0.048900,-46.199211,36.209747,-22.989506,,,,,,
1465825925.94,-2.587133,0.012443,-0.456509,-0.002132,0.241758,-0.001416,-0.526443,-0.012443,0.850119,0.010589,-0.015130,-0.013373,-46.283257,36.208904,-22.821171,,,,,,
1465825925.95,-2.584247,0.012502,-0.456525,-0.005255,0.302277,0.000330,-0.528894,-0.012501,0.848596,-0.014441,0.015843,0.020407,-46.283257,36.208904,-22.821171,,,,,,
1465825925.96,-2.580809,0.012538,-0.456555,-0.008380,0.355372,-0.001071,-0.531808,-0.012538,0.846772,0.013894,-0.006200,0.001296,-46.283257,36.208904,-22.821171,,,,,,
1465825925.97,-2.576824,0.012645,-0.456581,-0.007238,0.411655,-0.004616,-0.535177,-0.012645,0.844645,0.010412,0.002299,0.010534,-46.070190,36.212250,-23.243076,,,,,,
1465825925.98,-2.572383,0.012746,-0.456607,-0.014639,0.458370,-0.001723,-0.538923,-0.012745,0.842259,-0.003146,0.007283,-0.000477,-46.070190,36.212250,-23.243076,,,,,,
1465825925.99,-2.566958,0.012886,-0.456677,-0.016627,0.567742,-0.004540,-0.543483,-0.012886,0.839321,0.040492,0.004478,0.024387,-46.070190,36.212250,-23.243076,,,,,,
1465825926.00,-2.561104,0.013108,-0.456747,-0.021935,0.578366,-0.005676,-0.548386,-0.013108,0.836123,0.061417,0.015137,0.026487,-46.070190,36.212250,-23.243076,,,,,,
1465825926.01,-2.556370,0.013283,-0.456777,-0.014670,0.423348,-0.007890,-0.552336,-0.013283,0.833515,0.065688,0.010124,-0.010990,-45.608818,36.219379,-24.125145,,,,,,
1465825926.02,-2.553538,0.013383,-0.456702,0.001089,0.237554,-0.017354,-0.554694,-0.013383,0.831947,0.019888,0.005631,-0.032814,-45.608818,36.219379,-24.125145,,,,,,
1465825926.03,-2.551057,0.013440,-0.456626,-0.004182,0.303347,-0.002869,-0.556756,-0.013440,0.830568,-0.106956,-0.000049,-0.062257,-45.431870,36.215717,-24.462156,,,,,,
1465825926.04,-2.543260,0.013812,-0.456614,-0.041633,0.972357,-0.027327,-0.563212,-0.013812,0.826197,-0.126165,-0.005353,0.014364,-45.431870,36.215717,-24.462156,,,,,,
1465825926.05,-2.527080,0.014853,-0.456707,-0.104386,1.834640,-0.057280,-0.576497,-0.014853,0.816965,-0.185375,-0.007761,-0.011087,-45.431870,36.215717,-24.462156,,,,,,
1465825926.06,-2.501690,0.016627,-0.456903,-0.180846,2.788274,-0.098464,-0.597035,-0.016627,0.802043,-0.235164,-0.051626,-0.068233,-45.189381,36.209129,-24.916838,,,,,,
1465825926.07,-2.464902,0.019317,-0.457788,-0.293288,4.005098,-0.084918,-0.626100,-0.019316,0.779504,-0.096084,-0.023363,0.174766,-45.189381,36.209129,-24.916838,,,,,,
1465825926.08,-2.417888,0.022571,-0.459502,-0.365824,4.744155,-0.091755,-0.661997,-0.022569,0.749167,0.859140,0.103272,0.550943,-45.189381,36.209129,-24.916838,,,,,,
1465825926.09,-2.390261,0.024864,-0.460098,-0.126766,1.748765,-0.100406,-0.682401,-0.024861,0.730555,0.814878,0.094762,-0.008463,-45.189381,36.209129,-24.916838,,,,,,
1465825926.10,-2.407549,0.024142,-0.459245,0.166617,-2.746228,0.013234,-0.669682,-0.024140,0.742255,0.193791,0.001908,-0.584464,-41.852451,36.313278,-30.062405,,,,,,
1465825926.11,-2.445501,0.022335,-0.458277,0.202516,-3.798557,0.043287,-0.641064,-0.022333,0.767163,0.050579,0.029124,-0.104244,-41.852451,36.313278,-30.062405,,,,,,
1465825926.12,-2.471088,0.020949,-0.457311,0.143041,-2.019940,0.007591,-0.621245,-0.020947,0.783336,-0.220994,-0.009601,0.217014,-41.584347,36.291931,-30.457640,,,,,,
1465825926.13,-2.473386,0.020870,-0.457274,-0.036049,0.360703,-0.004325,-0.619444,-0.020868,0.784763,-0.305651,-0.013312,0.185177,-41.584347,36.291931,-30.457640,,,,,,
1465825926.14,-2.456823,0.022011,-0.457695,-0.131927,1.963106,-0.048533,-0.632342,-0.022009,0.774377,-0.057554,0.008200,0.198203,-41.584347,36.291931,-30.457640,,,,,,
1465825926.15,-2.436635,0.023387,-0.458171,-0.126676,1.906824,-0.047110,-0.647824,-0.023384,0.761431,0.076490,0.012337,0.030668,-43.027645,36.223545,-28.469408,,,,,,
1465825926.16,-2.425040,0.024094,-0.458425,-0.052415,0.874659,-0.020338,-0.656599,-0.024092,0.753855,0.192655,0.002653,-0.076945,-43.027645,36.223545,-28.469408,,,,,,
1465825926.17,-2.424500,0.024198,-0.458455,0.005835,-0.202073,-0.000754,-0.657003,-0.024195,0.753499,0.253897,0.014185,-0.028188,-43.027645,36.223545,-28.469408,,,,,,
1465825926.18,-2.432357,0.023877,-0.458259,0.042159,-0.944306,0.009260,-0.651068,-0.023875,0.758644,0.205878,0.001628,-0.020255,-42.131378,36.250130,-29.747358,,,,,,
1465825926.19,-2.444318,0.023329,-0.458069,0.056671,-1.238468,0.023892,-0.641956,-0.023327,0.766387,0.104373,0.003277,0.010713,-42.131378,36.250130,-29.747358,,,,,,
1465825926.20,-2.456311,0.022705,-0.457908,0.056770,-1.162097,0.027672,-0.632728,-0.022703,0.774042,0.038810,0.013533,0.039267,-42.131378,36.250130,-29.747358,,,,,,
1465825926.21,-2.466191,0.022127,-0.457776,0.050684,-0.924244,0.024046,-0.625058,-0.022126,0.780265,0.017209,0.016541,0.039178,-42.131378,36.250130,-29.747358,,,,,,
1465825926.22,-2.473897,0.021659,-0.457658,0.042422,-0.726733,0.018541,-0.619033,-0.021658,0.785067,0.004729,0.010290,0.026854,-43.023174,36.230881,-28.466820,,,,,,
1465825926.24,-2.485099,0.020976,-0.457433,0.025735,-0.464433,0.007299,-0.610209,-0.020974,0.791963,0.017939,0.004083,0.007338,-43.023174,36.230881,-28.466820,,,,,,
1465825926.23,-2.480133,0.021261,-0.457546,0.037275,-0.590810,0.014490,-0.614130,-0.021259,0.788918,0.006449,0.002994,0.001838,-43.023174,36.230881,-28.466820,,,,,,
1465825926.25,-2.489067,0.020766,-0.457326,0.022659,-0.376290,0.002486,-0.607064,-0.020765,0.794382,0.015405,0.009656,0.004187,-43.799843,36.215412,-27.277245,,,,,,
1465825926.26,-2.492238,0.020625,-0.457224,0.015314,-0.295580,-0.001221,-0.604544,-0.020623,0.796305,0.019995,0.007287,-0.001703,-43.799843,36.215412,-27.277245,,,,,,
1465825926.27,-2.494431,0.020624,-0.457155,0.000548,-0.193622,-0.008262,-0.602796,-0.020622,0.797629,0.037656,0.008812,0.002008,-43.991676,36.206470,-26.978775,,,,,,
1465825926.28,-2.495817,0.020734,-0.457077,-0.007871,-0.123524,-0.014032,-0.601689,-0.020733,0.798461,0.040394,0.013500,0.003800,-43.991676,36.206470,-26.978775,,,,,,
1465825926.29,-2.496772,0.020926,-0.457024,-0.014211,-0.088476,-0.016388,-0.600923,-0.020925,0.799033,0.046328,0.008382,-0.001227,-43.991676,36.206470,-26.978775,,,,,,
1465825926.30,-2.497546,0.021212,-0.456986,-0.021635,-0.073592,-0.021811,-0.600301,-0.021210,0.799493,0.058492,0.007691,0.000800,-44.094501,36.198380,-26.821316,,,,,,
1465825926.31,-2.498336,0.021565,-0.456938,-0.024837,-0.085261,-0.024934,-0.599665,-0.021563,0.799961,0.061411,0.010165,0.004147,-44.094501,36.198380,-26.821316,,,,,,
1465825926.32,-2.499402,0.021929,-0.456894,-0.028061,-0.110740,-0.025842,-0.598807,-0.021927,0.800593,0.053977,0.006225,-0.000468,-44.094501,36.198380,-26.821316,,,,,,
1465825926.33,-2.500399,0.022339,-0.456857,-0.030164,-0.092683,-0.028086,-0.598003,-0.022337,0.801183,0.055187,0.009337,0.004924,-44.221466,36.182835,-26.632584,,,,,,
1465825926.34,-2.500939,0.022786,-0.456824,-0.035423,-0.041713,-0.028411,-0.597564,-0.022784,0.801497,0.050354,0.007053,0.015168,-44.221466,36.182835,-26.632584,,,,,,
1465825926.35,-2.501049,0.023257,-0.456812,-0.037499,-0.000299,-0.029737,-0.597470,-0.023255,0.801554,0.041501,0.007554,0.015615,-44.221466,36.182835,-26.632584,,,,,,
1465825926.36,-2.500713,0.023731,-0.456785,-0.037438,0.046423,-0.031095,-0.597733,-0.023729,0.801344,0.043030,0.005785,0.014208,-44.282887,36.174805,-26.541286,,,,,,
1465825926.37,-2.499898,0.024231,-0.456767,-0.038444,0.093143,-0.031389,-0.598378,-0.024229,0.800847,0.042088,0.008771,0.027430,-44.282887,36.174805,-26.541286,,,,,,
1465825926.38,-2.498777,0.024678,-0.456721,-0.030964,0.116496,-0.030463,-0.599269,-0.024676,0.800167,0.041912,0.004733,0.021229,-44.282887,36.174805,-26.541286,,,,,,
1465825926.39,-2.497267,0.025112,-0.456676,-0.031975,0.158968,-0.030731,-0.600470,-0.025109,0.799253,0.056936,0.008325,0.028567,-44.269310,36.159641,-26.584558,,,,,,
1465825926.40,-2.495653,0.025465,-0.456597,-0.021336,0.158951,-0.026462,-0.601754,-0.025463,0.798276,0.057046,0.009639,0.027149,-44.269310,36.159641,-26.584558,,,,,,
1465825926.41,-2.499699,0.025434,-0.456407,-0.021352,0.153601,-0.021106,-0.598520,-0.025431,0.800704,0.054620,0.004038,0.015946,-44.269310,36.159641,-26.584558,,,,,,
1465825926.42,-2.498158,0.025763,-0.456376,-0.024548,0.150420,-0.022154,-0.599748,-0.025760,0.799774,0.074250,0.006046,0.023788,-44.206676,36.149120,-26.702829,,,,,,
1465825926.43,-2.504153,0.025635,-0.456167,-0.023552,0.095169,-0.020741,-0.594944,-0.025632,0.803358,0.080143,0.005827,0.014284,-44.206676,36.149120,-26.702829,,,,,,
1465825926.44,-2.509942,0.025295,-0.455990,-0.018342,0.008061,-0.016995,-0.590289,-0.025292,0.806796,0.075793,0.008080,0.010404,-44.206676,36.149120,-26.702829,,,,,,
1465825926.45,-2.515842,0.024922,-0.455828,-0.008911,-0.103476,-0.009899,-0.585524,-0.024919,0.810272,0.067351,0.007372,0.010559,-44.597351,36.118843,-26.087072,,,,,,
1465825926.46,-2.521267,0.025059,-0.455722,-0.010091,-0.192690,-0.007212,-0.581118,-0.025056,0.813434,0.058290,0.000779,-0.003360,-44.597351,36.118843,-26.087072,,,,,,
1465825926.47,-2.527495,0.025003,-0.455645,-0.012265,-0.227750,-0.005929,-0.576042,-0.025001,0.817038,0.065894,0.003684,-0.001334,-44.597351,36.118843,-26.087072,,,,,,
1465825926.48,-2.533692,0.024683,-0.455594,-0.012323,-0.273428,-0.004578,-0.570971,-0.024680,0.820599,0.058902,0.007697,0.004932,-44.892693,36.106293,-25.593199,,,,,,
1465825926.49,-2.538379,0.024589,-0.455586,-0.004954,-0.330794,0.002176,-0.567121,-0.024586,0.823268,0.029737,0.003087,-0.007456,-44.892693,36.106293,-25.593199,,,,,,
1465825926.50,-2.544132,0.023877,-0.455549,-0.005989,-0.318046,-0.004290,-0.562384,-0.023875,0.826531,0.040229,0.013575,0.012306,-44.892693,36.106293,-25.593199,,,,,,
1465825926.51,-2.548337,0.023821,-0.455496,-0.004835,-0.257513,-0.011055,-0.558905,-0.023819,0.828889,0.038809,0.002564,-0.016542,-45.447159,36.103603,-24.599092,,,,,,
1465825926.52,-2.551883,0.023613,-0.455476,-0.015472,-0.236301,-0.002682,-0.555964,-0.023611,0.830871,0.013026,0.007284,0.013719,-45.447159,36.103603,-24.599092,,,,,,
1465825926.53,-2.554544,0.023389,-0.455411,-0.003713,-0.209746,-0.009223,-0.553755,-0.023387,0.832351,0.018065,0.006190,-0.014144,-45.447159,36.103603,-24.599092,,,,,,
1465825926.54,-2.558698,0.023137,-0.455305,-0.023810,-0.131129,-0.026766,-0.550296,-0.023135,0.834649,0.053378,0.011447,0.015021,-45.633301,36.101250,-24.255558,,,,,,
1465825926.55,-2.561109,0.022742,-0.455110,-0.003632,-0.171495,-0.025427,-0.548287,-0.022740,0.835981,0.028359,0.013081,-0.014845,-45.633301,36.101250,-24.255558,,,,,,
1465825926.56,-2.563065,0.023156,-0.455021,-0.021760,-0.185304,-0.020037,-0.546645,-0.023154,0.837044,0.008483,-0.002542,-0.013466,-45.633301,36.101250,-24.255558,,,,,,
1465825926.57,-2.565942,0.023131,-0.454895,-0.014237,-0.135401,-0.023535,-0.544235,-0.023129,0.838614,0.033828,0.007001,0.003183,-45.906147,36.080212,-23.767084,,,,,,
1465825926.58,-2.569098,0.023366,-0.454743,-0.024906,-0.159813,-0.027650,-0.541582,-0.023364,0.840323,0.042330,0.003452,0.004694,-45.906147,36.080212,-23.767084,,,,,,
1465825926.59,-2.571669,0.023609,-0.454628,-0.011166,-0.232040,-0.021862,-0.539418,-0.023607,0.841707,0.015354,0.000947,-0.009615,-45.906147,36.080212,-23.767084,,,,,,
1465825926.60,-2.574627,0.023781,-0.454511,-0.017547,-0.226730,-0.021901,-0.536923,-0.023778,0.843296,0.016552,0.002157,-0.001408,-46.061077,36.064850,-23.489017,,,,,,
1465825926.61,-2.577810,0.023975,-0.454354,-0.015370,-0.195933,-0.026350,-0.534234,-0.023973,0.844997,0.027047,0.002763,0.009770,-46.061077,36.064850,-23.489017,,,,,,
1465825926.62,-2.580570,0.024615,-0.454221,-0.021751,-0.189563,-0.026397,-0.531891,-0.024612,0.846455,0.021210,-0.007630,0.006664,-46.061077,36.064850,-23.489017,,,,,,
1465825926.63,-2.583455,0.024993,-0.454087,-0.018582,-0.209743,-0.026267,-0.529442,-0.024991,0.847978,0.021782,-0.000934,0.005553,-46.367081,36.031460,-22.931585,,,,,,
1465825926.64,-2.586577,0.024967,-0.453925,-0.007986,-0.245862,-0.022836,-0.526792,-0.024964,0.849628,0.014081,0.006745,0.014096,-46.367081,36.031460,-22.931585,,,,,,
1465825926.65,-2.589975,0.025061,-0.453765,-0.005892,-0.271356,-0.020545,-0.523901,-0.025059,0.851411,0.016058,0.001911,0.009246,-46.367081,36.031460,-22.931585,,,,,,
1465825926.66,-2.593514,0.024750,-0.453588,0.004728,-0.288362,-0.017234,-0.520889,-0.024748,0.853266,0.014129,0.011152,0.011053,-46.519577,36.014389,-22.647799,,,,,,
1465825926.67,-2.597237,0.024707,-0.453363,-0.003775,-0.292583,-0.026796,-0.517709,-0.024704,0.855200,0.031091,0.005570,-0.008368,-46.519577,36.014389,-22.647799,,,,,,
1465825926.68,-2.600989,0.024629,-0.453176,-0.002757,-0.323390,-0.022343,-0.514498,-0.024626,0.857138,0.016680,0.007674,0.002130,-46.519577,36.014389,-22.647799,,,,,,
1465825926.69,-2.604757,0.024406,-0.452967,0.007854,-0.345706,-0.017934,-0.511267,-0.024403,0.859075,0.006964,0.007848,0.002650,-46.857578,35.977592,-22.000238,,,,,,
1465825926.70,-2.609223,0.024481,-0.452745,0.003571,-0.370121,-0.020979,-0.507424,-0.024479,0.861349,0.018380,0.000599,0.016673,-46.857578,35.977592,-22.000238,,,,,,
1465825926.71,-2.613646,0.024510,-0.452524,0.014133,-0.429603,-0.015273,-0.503609,-0.024508,0.863584,0.001244,-0.001585,0.007403,-46.857578,35.977592,-22.000238,,,,,,
1465825926.72,-2.618144,0.024584,-0.452338,0.010905,-0.455088,-0.014052,-0.499719,-0.024581,0.865839,-0.005438,-0.003357,-0.001962,-47.047562,35.956188,-21.626591,,,,,,
1465825926.73,-2.622835,0.024510,-0.452116,0.013072,-0.433839,-0.019506,-0.495653,-0.024508,0.868175,0.003343,0.001955,0.006520,-47.047562,35.956188,-21.626591,,,,,,
1465825926.74,-2.627215,0.024494,-0.451885,0.012016,-0.426407,-0.019553,-0.491845,-0.024492,0.870338,-0.006568,0.000017,0.010079,-47.047562,35.956188,-21.626591,,,,,,
1465825926.75,-2.631012,0.024274,-0.451660,0.017364,-0.404116,-0.017559,-0.488540,-0.024271,0.872204,-0.023042,0.005381,0.005314,-47.455746,35.911797,-20.792437,,,,,,
1465825926.76,-2.634565,0.024286,-0.451430,0.007850,-0.354197,-0.021074,-0.485438,-0.024283,0.873934,-0.015325,-0.001214,0.010298,-47.455746,35.911797,-20.792437,,,,,,
1465825926.77,-2.637945,0.024672,-0.451206,0.000421,-0.340381,-0.024362,-0.482477,-0.024670,0.875561,-0.007468,-0.010014,0.004703,-47.455746,35.911797,-20.792437,,,,,,
1465825926.78,-2.641040,0.024843,-0.451001,-0.000663,-0.355243,-0.024270,-0.479763,-0.024840,0.877047,-0.021427,-0.002305,-0.003267,-47.617661,35.889469,-20.458109,,,,,,
1465825926.80,-2.647452,0.025728,-0.450584,-0.020855,-0.341398,-0.035023,-0.474119,-0.025725,0.880085,-0.009753,-0.007600,-0.004185,-47.617661,35.889469,-20.458109,,,,,,
1465825926.79,-2.644208,0.025174,-0.450793,-0.011288,-0.347786,-0.030715,-0.476978,-0.025171,0.878555,-0.015668,-0.004751,-0.007446,-47.617661,35.889469,-20.458109,,,,,,
1465825926.81,-2.650131,0.026129,-0.450398,-0.026158,-0.326524,-0.036186,-0.471754,-0.026126,0.881343,-0.027620,-0.000409,-0.010783,-47.928169,35.838234,-19.812662,,,,,,
1465825926.82,-2.652324,0.026587,-0.450227,-0.033534,-0.270232,-0.039739,-0.469814,-0.026584,0.882365,-0.033528,0.000186,-0.003230,-47.928169,35.838234,-19.812662,,,,,,
1465825926.83,-2.654049,0.026963,-0.449996,-0.033430,-0.198010,-0.046579,-0.468287,-0.026960,0.883165,-0.027822,0.004911,0.008620,-47.928169,35.838234,-19.812662,,,,,,
1465825926.84,-2.655121,0.027590,-0.449770,-0.040824,-0.152343,-0.047937,-0.467332,-0.027587,0.883651,-0.032637,-0.002656,0.007660,-48.049721,35.815258,-19.558176,,,,,,
1465825926.85,-2.655669,0.028348,-0.449558,-0.045045,-0.123666,-0.049186,-0.466838,-0.028344,0.883889,-0.037175,-0.005546,-0.003075,-48.049721,35.815258,-19.558176,,,,,,
1465825926.86,-2.656084,0.029132,-0.449341,-0.050325,-0.097100,-0.054680,-0.466460,-0.029128,0.884062,-0.033219,-0.004289,0.003160,-48.049721,35.815258,-19.558176,,,,,,
1465825926.87,-2.656544,0.030117,-0.449089,-0.058808,-0.079026,-0.061189,-0.466040,-0.030112,0.884251,-0.017603,-0.008599,-0.001408,-48.192951,35.755920,-19.312803,,,,,,
1465825926.88,-2.657456,0.030976,-0.448842,-0.056758,-0.138492,-0.058685,-0.465221,-0.030971,0.884652,-0.017094,-0.001561,0.002875,-48.192951,35.755920,-19.312803,,,,,,
1465825926.89,-2.657761,0.031805,-0.448647,-0.056771,-0.143804,-0.055459,-0.464939,-0.031799,0.884771,-0.051906,-0.003143,-0.019827,-48.192951,35.755920,-19.312803,,,,,,
1465825926.90,-2.658350,0.032973,-0.448418,-0.075830,-0.078988,-0.068658,-0.464400,-0.032967,0.885012,-0.019517,-0.009559,0.003996,-49.203491,35.270096,-19.382765,,,,,,
1465825926.91,-2.658739,0.034008,-0.448198,-0.070555,-0.107674,-0.062086,-0.464040,-0.034001,0.885161,-0.032710,-0.002986,0.000886,-49.203491,35.270096,-19.382765,,,,,,
1465825926.92,-2.658086,0.034700,-0.447998,-0.068346,-0.049260,-0.065643,-0.464607,-0.034693,0.884837,-0.063744,0.008372,-0.014659,-49.203491,35.270096,-19.382765,,,,,,
1465825926.93,-2.658057,0.035679,-0.447719,-0.076791,-0.004636,-0.074447,-0.464616,-0.035672,0.884793,-0.016570,0.001828,0.020816,-49.302479,35.204098,-19.250763,,,,,,
1465825926.94,-2.657939,0.036387,-0.447395,-0.056679,-0.099143,-0.073834,-0.464709,-0.036378,0.884716,-0.044111,0.007860,-0.000561,-49.302479,35.204098,-19.250763,,,,,,
1465825926.95,-2.657293,0.037519,-0.447072,-0.057889,-0.221225,-0.077327,-0.465261,-0.037510,0.884379,-0.106684,-0.011288,-0.060663,-49.345612,35.162422,-19.216375,,,,,,
1465825926.96,-2.659542,0.038376,-0.446697,-0.058955,-0.211686,-0.071002,-0.463256,-0.038366,0.885394,-0.199143,-0.024531,-0.107897,-49.345612,35.162422,-19.216375,,,,,,
1465825926.98,-2.659346,0.040888,-0.446031,-0.125523,0.167458,-0.090477,-0.463383,-0.040876,0.885215,-0.292995,-0.043246,-0.173179,-49.815506,35.845459,-19.074432,,,,,,
1465825926.97,-2.660474,0.039442,-0.446293,-0.085321,-0.045970,-0.094421,-0.462411,-0.039431,0.885788,-0.264029,-0.030744,-0.137635,-49.815506,35.845459,-19.074432,,,,,,
1465825926.99,-2.657006,0.042492,-0.445811,-0.132875,0.250279,-0.089939,-0.465422,-0.042480,0.884069,-0.315782,-0.024384,-0.166738,-49.815506,35.845459,-19.074432,,,,,,
1465825927.00,-2.654094,0.044199,-0.445686,-0.151963,0.306573,-0.093505,-0.467960,-0.044185,0.882644,-0.346172,-0.040501,-0.231979,-49.874092,35.794571,-19.016813,,,,,,
1465825927.01,-2.650547,0.046180,-0.445731,-0.181710,0.372397,-0.085432,-0.471045,-0.046163,0.880900,-0.339257,-0.019037,-0.213420,-49.874092,35.794571,-19.016813,,,,,,
1465825927.02,-2.645366,0.048198,-0.445994,-0.193187,0.573060,-0.078186,-0.475558,-0.048179,0.878364,-0.211118,-0.018471,-0.109565,-49.874092,35.794571,-19.016813,,,,,,
1465825927.03,-2.638618,0.050434,-0.446249,-0.207945,0.693048,-0.077889,-0.481421,-0.050412,0.875038,-0.168542,0.000928,-0.069008,-50.034416,36.479488,-19.464775,,,,,,
1465825927.04,-2.631676,0.052434,-0.446560,-0.184547,0.682401,-0.071412,-0.487434,-0.052410,0.871586,-0.080666,-0.002446,-0.040073,-50.034416,36.479488,-19.464775,,,,,,
1465825927.05,-2.625669,0.054284,-0.446843,-0.170869,0.568751,-0.060041,-0.492612,-0.054257,0.868556,-0.029834,0.005749,-0.015727,-50.034416,36.479488,-19.464775,,,,,,
1465825927.06,-2.620790,0.055880,-0.447100,-0.146521,0.461488,-0.056151,-0.496800,-0.055851,0.866066,0.023183,0.015140,0.020302,-49.821259,36.480858,-20.001572,,,,,,
1465825927.07,-2.616697,0.057279,-0.447342,-0.131711,0.393511,-0.050388,-0.500301,-0.057248,0.863957,0.078945,0.011609,0.050808,-49.821259,36.480858,-20.001572,,,,,,
1465825927.08,-2.613296,0.058578,-0.447550,-0.117965,0.322354,-0.046734,-0.503199,-0.058545,0.862185,0.113642,-0.001010,0.067166,-49.821259,36.480858,-20.001572,,,,,,
1465825927.09,-2.610570,0.059880,-0.447737,-0.118051,0.244858,-0.051571,-0.505508,-0.059844,0.860744,0.129913,0.034911,0.068272,-49.821259,36.480858,-20.001572,,,,,,
1465825927.10,-2.608914,0.060806,-0.447801,-0.079865,0.150303,-0.038166,-0.506904,-0.060769,0.859858,0.172538,0.025155,0.077764,-49.528229,36.490635,-20.699318,,,,,,
1465825927.11,-2.608137,0.061888,-0.447729,-0.087408,0.041005,-0.060906,-0.507539,-0.061848,0.859406,0.138169,0.015599,0.045623,-49.528229,36.490635,-20.699318,,,,,,
1465825927.13,-2.609736,0.063881,-0.447335,-0.072785,-0.188346,-0.061582,-0.506100,-0.063838,0.860109,0.007428,0.005076,-0.017976,-49.470760,36.488098,-20.840715,,,,,,
1465825927.12,-2.608260,0.062831,-0.447601,-0.074690,-0.022680,-0.071138,-0.507402,-0.062790,0.859419,0.156908,0.009704,0.062350,-49.470760,36.488098,-20.840715,,,,,,
1465825927.14,-2.611084,0.064793,-0.447071,-0.069436,-0.100156,-0.084485,-0.504910,-0.064747,0.860740,0.045819,-0.006832,0.030572,-49.470760,36.488098,-20.840715,,,,,,
1465825927.15,-2.611048,0.065929,-0.446947,-0.093793,0.045253,-0.059875,-0.504904,-0.065881,0.860658,0.037130,0.011071,0.026793,-49.611370,36.420460,-20.623669,,,,,,
1465825927.16,-2.609698,0.067135,-0.446701,-0.092552,0.147253,-0.084995,-0.506024,-0.067084,0.859906,0.052396,0.008734,0.028964,-49.611370,36.420460,-20.623669,,,,,,
1465825927.17,-2.608618,0.068255,-0.446550,-0.082006,0.093049,-0.067614,-0.506914,-0.068202,0.859294,0.055239,0.020809,0.023717,-49.611370,36.420460,-20.623669,,,,,,
1465825927.18,-2.608613,0.069158,-0.446217,-0.059792,-0.031179,-0.072135,-0.506887,-0.069103,0.859238,0.049993,0.008861,0.003189,-49.637062,36.383556,-20.626976,,,,,,
1465825927.19,-2.609746,0.069947,-0.445942,-0.047152,-0.136386,-0.062946,-0.505885,-0.069890,0.859765,0.019283,0.019444,0.006690,-49.637062,36.383556,-20.626976,,,,,,
1465825927.20,-2.611436,0.070472,-0.445621,-0.026988,-0.167227,-0.048894,-0.504413,-0.070414,0.860587,-0.006497,0.032893,0.016077,-49.637062,36.383556,-20.626976,,,,,,
1465825927.21,-2.612753,0.070925,-0.445316,-0.024795,-0.115202,-0.048154,-0.503263,-0.070866,0.861223,-0.003680,-0.011470,-0.012376,-49.766426,36.301300,-20.459517,,,,,,
1465825927.22,-2.613671,0.071581,-0.445095,-0.049244,-0.094995,-0.055756,-0.502449,-0.071520,0.861644,-0.050469,0.012072,-0.024669,-49.766426,36.301300,-20.459517,,,,,,
1465825927.23,-2.614996,0.071932,-0.444922,-0.011019,-0.133319,-0.026738,-0.501294,-0.071870,0.862287,-0.114627,0.019105,-0.057248,-49.766426,36.301300,-20.459517,,,,,,
1465825927.24,-2.615746,0.072234,-0.444758,-0.029010,-0.049421,-0.029411,-0.500636,-0.072171,0.862644,-0.097874,-0.024570,-0.049930,-49.766426,36.301300,-20.459517,,,,,,
1465825927.25,-2.615256,0.072752,-0.444792,-0.046954,0.083298,-0.024939,-0.501040,-0.072688,0.862366,-0.079770,-0.009298,-0.036164,-49.911972,36.242149,-20.208298,,,,,,
1465825927.26,-2.614115,0.073178,-0.444792,-0.033091,0.114060,-0.016602,-0.502008,-0.073112,0.861767,-0.091452,0.003105,-0.049694,-49.911972,36.242149,-20.208298,,,,,,
1465825927.27,-2.613184,0.073508,-0.444831,-0.028878,0.081136,-0.014263,-0.502798,-0.073442,0.861278,-0.058740,0.001924,-0.048610,-49.895157,36.236771,-20.259407,,,,,,
1465825927.28,-2.612942,0.073735,-0.444889,-0.018343,0.001478,-0.007366,-0.502998,-0.073668,0.861142,-0.054222,-0.020204,-0.068341,-49.895157,36.236771,-20.259407,,,,,,
1465825927.29,-2.613154,0.073939,-0.445054,-0.026915,-0.019792,0.006597,-0.502808,-0.073871,0.861236,-0.026580,0.010059,-0.010314,-49.895157,36.236771,-20.259407,,,,,,
1465825927.30,-2.613357,0.074038,-0.445121,-0.006681,-0.019796,0.004488,-0.502629,-0.073971,0.861332,-0.008174,0.005123,-0.028690,-49.895157,36.236771,-20.259407,,,,,,
1465825927.31,-2.613400,0.074230,-0.445210,-0.027940,-0.010197,-0.007302,-0.502585,-0.074162,0.861341,0.043006,-0.008007,-0.005399,-49.885719,36.247723,-20.263039,,,,,,
1465825927.32,-2.614015,0.074495,-0.445303,-0.021656,-0.084541,-0.001507,-0.502045,-0.074426,0.861633,0.023652,0.021936,0.003845,-49.885719,36.247723,-20.263039,,,,,,
1465825927.33,-2.615757,0.074415,-0.445332,0.012252,-0.200321,0.008833,-0.500547,-0.074347,0.862511,0.010740,0.010489,-0.000405,-49.885719,36.247723,-20.263039,,,,,,
1465825927.35,-2.621097,0.074227,-0.445320,0.015301,-0.316059,0.009561,-0.495941,-0.074159,0.865184,-0.023011,0.011705,-0.022853,-49.901985,36.253860,-20.211952,,,,,,
1465825927.34,-2.618085,0.074330,-0.445320,0.004764,-0.244883,-0.001540,-0.498541,-0.074262,0.863679,0.031103,-0.006152,0.001173,-49.901985,36.253860,-20.211952,,,,,,
1465825927.36,-2.624203,0.073936,-0.445350,0.022755,-0.303341,0.016940,-0.493262,-0.073869,0.866739,-0.018137,0.000001,-0.007623,-49.980339,36.256027,-20.013494,,,,,,
1465825927.37,-2.626807,0.073772,-0.445424,0.006864,-0.245984,0.012307,-0.491009,-0.073705,0.868031,0.003552,-0.009074,-0.010075,-49.980339,36.256027,-20.013494,,,,,,
1465825927.38,-2.628980,0.073687,-0.445424,0.009053,-0.214105,0.002529,-0.489124,-0.073620,0.869101,0.014530,0.002163,0.001382,-49.980339,36.256027,-20.013494,,,,,,
1465825927.39,-2.631385,0.073501,-0.445387,0.022831,-0.254478,0.009183,-0.487040,-0.073434,0.870287,0.003916,0.011713,0.000654,-49.980339,36.256027,-20.013494,,,,,,
1465825927.40,-2.634328,0.073267,-0.445315,0.021718,-0.306482,0.000992,-0.484485,-0.073201,0.871732,0.048495,-0.016825,-0.008786,-50.180851,36.266472,-19.485857,,,,,,
1465825927.41,-2.638153,0.073177,-0.445240,0.014134,-0.412656,0.000586,-0.481150,-0.073112,0.873584,0.014567,0.003166,-0.018070,-50.180851,36.266472,-19.485857,,,,,,
1465825927.42,-2.642890,0.072909,-0.445115,0.031087,-0.483796,-0.002144,-0.477016,-0.072844,0.875871,0.012157,-0.016206,-0.026643,-50.180851,36.266472,-19.485857,,,,,,
1465825927.43,-2.647861,0.072814,-0.445052,0.005502,-0.500787,0.003259,-0.472660,-0.072749,0.878237,0.005008,-0.007817,-0.008959,-50.442890,36.256012,-18.817272,,,,,,
1465825927.44,-2.653302,0.072618,-0.444951,0.030990,-0.564487,-0.003767,-0.467881,-0.072554,0.880808,-0.030196,0.013549,-0.028864,-50.442890,36.256012,-18.817272,,,,,,
1465825927.45,-2.659295,0.072174,-0.444857,0.043687,-0.593224,0.018779,-0.462609,-0.072111,0.883625,-0.065910,-0.002138,-0.028416,-50.442890,36.256012,-18.817272,,,,,,
1465825927.46,-2.664325,0.071974,-0.444856,0.006605,-0.469995,0.003067,-0.458164,-0.071912,0.885954,0.034367,-0.027301,-0.012983,-50.636154,36.249500,-18.303743,,,,,,
1465825927.47,-2.669366,0.072118,-0.444769,-0.007287,-0.535776,-0.012501,-0.453688,-0.072056,0.888243,-0.032091,-0.004849,-0.048353,-50.636154,36.249500,-18.303743,,,,,,
1465825927.48,-2.675212,0.071982,-0.444575,0.025607,-0.629225,-0.014011,-0.448492,-0.071920,0.890889,-0.018167,0.023779,-0.006489,-50.636154,36.249500,-18.303743,,,,,,
1465825927.49,-2.681955,0.071837,-0.444689,0.002118,-0.645202,0.008419,-0.442480,-0.071775,0.893902,-0.034114,-0.008150,-0.037624,-51.026321,36.234329,-17.218071,,,,,,
1465825927.50,-2.688072,0.072005,-0.444696,-0.019103,-0.592093,0.004872,-0.436997,-0.071943,0.896581,-0.081100,-0.022128,-0.077916,-51.026321,36.234329,-17.218071,,,,,,
1465825927.51,-2.690662,0.072430,-0.444947,-0.036978,-0.433827,-0.009977,-0.434661,-0.072367,0.897682,-0.085725,-0.005148,-0.022270,-51.026321,36.234329,-17.218071,,,,,,
1465825927.52,-2.693361,0.072838,-0.445010,-0.042004,-0.211881,-0.020954,-0.432224,-0.072773,0.898825,-0.014264,-0.016582,-0.006339,-63.671864,20.656059,-18.188782,,,,,,
1465825927.53,-2.694818,0.073474,-0.444984,-0.058955,-0.140738,-0.019288,-0.430893,-0.073408,0.899412,0.002320,-0.002886,0.015352,-63.671864,20.656059,-18.188782,,,,,,
1465825927.54,-2.696287,0.073932,-0.444800,-0.022714,-0.157659,-0.050015,-0.429558,-0.073865,0.900014,0.076957,0.038312,0.022212,-63.769196,20.666819,-17.832058,,,,,,
1465825927.55,-2.698871,0.074091,-0.444688,-0.011214,-0.266075,-0.011003,-0.427225,-0.074024,0.901110,0.027277,-0.008664,0.000105,-63.769196,20.666819,-17.832058,,,,,,
1465825927.56,-2.701741,0.074328,-0.444437,-0.003769,-0.294709,-0.024654,-0.424629,-0.074259,0.902317,0.028969,0.023325,0.026058,-63.769196,20.666819,-17.832058,,,,,,
1465825927.57,-2.704280,0.074346,-0.444158,0.010183,-0.220366,-0.033622,-0.422337,-0.074278,0.903390,-0.010158,-0.005877,0.003775,-63.939430,20.612341,-17.276897,,,,,,
1465825927.58,-2.705651,0.074470,-0.443938,-0.002511,-0.121668,-0.014029,-0.421094,-0.074401,0.903960,-0.025363,-0.003251,0.012650,-63.939430,20.612341,-17.276897,,,,,,
1465825927.59,-2.705851,0.074752,-0.443601,-0.012951,-0.011141,-0.048795,-0.420904,-0.074683,0.904026,0.021551,0.018027,0.017590,-63.939430,20.612341,-17.276897,,,,,,
1465825927.60,-2.706109,0.075059,-0.443211,-0.015156,-0.074843,-0.050526,-0.420661,-0.074988,0.904113,0.037422,-0.019799,0.000031,-63.939430,20.612341,-17.276897,,,,,,
1465825927.61,-2.708454,0.075437,-0.443104,-0.030369,-0.278772,-0.023716,-0.418528,-0.075365,0.905071,-0.070546,0.022890,-0.070126,-64.041862,20.524120,-17.000320,,,,,,
1465825927.62,-2.711505,0.075501,-0.443068,-0.008038,-0.278821,-0.009855,-0.415762,-0.075429,0.906340,-0.133783,-0.030482,-0.104704,-64.041862,20.524120,-17.000320,,,,,,
1465825927.63,-2.712185,0.076184,-0.443363,-0.093932,0.005774,-0.007468,-0.415125,-0.076110,0.906575,-0.071386,-0.026017,-0.025853,-64.138947,20.509665,-16.648121,,,,,,
1465825927.64,-2.710860,0.077002,-0.443537,-0.069240,0.162917,-0.011622,-0.416299,-0.076926,0.905968,-0.124610,0.013098,-0.038139,-64.138947,20.509665,-16.648121,,,,,,
1465825927.65,-2.707971,0.077607,-0.443697,-0.064773,0.325376,-0.014766,-0.418896,-0.077529,0.904719,-0.047764,0.013579,0.002691,-64.138947,20.509665,-16.648121,,,,,,
1465825927.66,-2.704187,0.078551,-0.443947,-0.100898,0.389097,-0.013073,-0.422285,-0.078470,0.903060,0.036283,0.002665,0.004258,-64.138947,20.509665,-16.648121,,,,,,
1465825927.67,-2.700820,0.079210,-0.444093,-0.053098,0.298820,-0.012459,-0.425301,-0.079127,0.901587,0.069786,0.034923,0.044077,-64.026756,20.531345,-17.048429,,,,,,
1465825927.68,-2.698421,0.079558,-0.444154,-0.030792,0.244677,-0.019548,-0.427450,-0.079474,0.900539,0.093954,0.022009,0.040928,-64.026756,20.531345,-17.048429,,,,,,
1465825927.69,-2.696747,0.079946,-0.443707,-0.010639,0.122665,-0.057083,-0.428944,-0.079861,0.899794,0.134114,-0.007267,0.041048,-63.932728,20.533016,-17.395760,,,,,,
1465825927.70,-2.696435,0.080083,-0.443435,0.003025,0.024896,-0.028780,-0.429220,-0.079998,0.899650,0.054404,0.025859,0.028985,-63.932728,20.533016,-17.395760,,,,,,
1465825927.71,-2.696081,0.080076,-0.443081,0.014761,0.044003,-0.028889,-0.429539,-0.079990,0.899499,0.084797,0.012959,0.048347,-63.932728,20.533016,-17.395760,,,,,,
1465825927.72,-2.695989,0.080240,-0.442840,-0.008735,-0.016502,-0.030661,-0.429616,-0.080154,0.899448,0.079106,-0.000550,0.018063,-63.914940,20.480104,-17.523020,,,,,,
1465825927.73,-2.697723,0.080315,-0.442617,0.009081,-0.228898,-0.019732,-0.428053,-0.080229,0.900186,-0.013018,-0.000292,-0.042794,-63.914940,20.480104,-17.523020,,,,,,
1465825927.74,-2.701549,0.080179,-0.442398,0.021613,-0.413676,-0.012174,-0.424610,-0.080093,0.901827,-0.133968,-0.010422,-0.105272,-63.914940,20.480104,-17.523020,,,,,,
1465825927.75,-2.705421,0.080004,-0.442273,0.019535,-0.348946,0.002321,-0.421122,-0.079919,0.903476,-0.227972,-0.019523,-0.125400,-63.914940,20.480104,-17.523020,,,,,,
1465825927.76,-2.705698,0.080091,-0.442346,-0.025678,0.092810,-0.009011,-0.420868,-0.080006,0.903587,-0.151580,-0.034115,-0.046592,-64.022255,20.411539,-17.208441,,,,,,
1465825927.77,-2.702700,0.080673,-0.442393,-0.057301,0.343417,-0.012743,-0.423556,-0.080586,0.902279,-0.084287,-0.010692,-0.023433,-64.022255,20.411539,-17.208441,,,,,,
1465825927.78,-2.699157,0.081139,-0.442412,-0.037056,0.340248,-0.022283,-0.426733,-0.081050,0.900738,-0.032388,0.009852,-0.015912,-64.093216,20.409218,-16.945026,,,,,,
1465825927.79,-2.696571,0.081504,-0.442421,-0.034014,0.234040,-0.012033,-0.429048,-0.081414,0.899605,0.031252,0.008126,-0.003563,-64.093216,20.409218,-16.945026,,,,,,
1465825927.80,-2.694942,0.081872,-0.442344,-0.026659,0.135324,-0.024180,-0.430500,-0.081780,0.898878,0.100117,0.010232,0.037783,-64.093216,20.409218,-16.945026,,,,,,
1465825927.81,-2.694318,0.082022,-0.442194,-0.001233,0.035499,-0.022465,-0.431056,-0.081930,0.898598,0.102976,0.021902,0.048622,-63.922985,20.388231,-17.600643,,,,,,
1465825927.82,-2.694826,0.081971,-0.441837,0.029527,-0.077036,-0.033437,-0.430601,-0.081879,0.898821,0.065336,0.030503,0.039229,-63.922985,20.388231,-17.600643,,,,,,
1465825927.83,-2.695594,0.081610,-0.441487,0.047619,-0.046317,-0.010194,-0.429924,-0.081520,0.899178,-0.007241,0.016151,-0.003212,-63.922985,20.388231,-17.600643,,,,,,
1465825927.84,-2.695038,0.081544,-0.441145,0.013751,0.083296,-0.031265,-0.430425,-0.081454,0.898943,0.047567,-0.007932,0.023466,-63.930370,20.354057,-17.613365,,,,,,
1465825927.85,-2.694111,0.081346,-0.440808,0.040359,0.095989,-0.018545,-0.431266,-0.081257,0.898558,-0.024178,0.009434,-0.000670,-63.930370,20.354057,-17.613365,,,,,,
1465825927.86,-2.693127,0.081094,-0.440449,0.032920,0.106611,-0.018619,-0.432159,-0.081005,0.898152,-0.016404,0.000316,-0.024373,-63.930370,20.354057,-17.613365,,,,,,
1465825927.87,-2.692094,0.081023,-0.440155,0.018013,0.096018,-0.024954,-0.433088,-0.080935,0.897711,0.001173,-0.011457,-0.017736,-63.915928,20.274073,-17.757446,,,,,,
1465825927.88,-2.691536,0.080821,-0.439853,0.034968,0.045019,-0.016102,-0.433597,-0.080733,0.897483,-0.032330,0.006850,-0.030326,-63.915928,20.274073,-17.757446,,,,,,
1465825927.89,-2.691521,0.080593,-0.439583,0.031702,-0.007016,-0.012585,-0.433618,-0.080506,0.897493,-0.051597,-0.001449,-0.039370,-63.915928,20.274073,-17.757446,,,,,,
1465825927.90,-2.691444,0.080180,-0.439514,0.040200,0.031111,0.021247,-0.433702,-0.080094,0.897490,-0.088469,-0.014892,-0.025572,-63.895187,20.238415,-17.872387,,,,,,
1465825927.91,-2.690156,0.079914,-0.439443,0.024423,0.152223,-0.000818,-0.434867,-0.079829,0.896949,0.007407,0.017176,-0.003868,-63.895187,20.238415,-17.872387,,,,,,
1465825927.92,-2.689191,0.079599,-0.439374,0.034934,0.064053,0.012519,-0.435743,-0.079515,0.896552,-0.021014,-0.002729,-0.017814,-63.895187,20.238415,-17.872387,,,,,,
1465825927.93,-2.689048,0.079217,-0.439253,0.038080,0.001446,-0.001987,-0.435884,-0.079134,0.896517,-0.034758,0.001406,-0.050570,-63.850288,20.221531,-18.051056,,,,,,
1465825927.94,-2.688706,0.078971,-0.439239,0.021099,0.067248,0.011421,-0.436199,-0.078889,0.896385,-0.044803,-0.006453,-0.051415,-63.850288,20.221531,-18.051056,,,,,,
1465825927.95,-2.686936,0.078749,-0.439149,0.023414,0.211658,0.008389,-0.437793,-0.078668,0.895627,-0.020047,-0.010459,0.023074,-63.850288,20.221531,-18.051056,,,,,,
1465825927.96,-2.683661,0.078496,-0.439081,0.027869,0.356081,0.000036,-0.440732,-0.078416,0.894207,0.025388,0.017518,0.043842,-63.838211,20.220106,-18.095314,,,,,,
1465825927.97,-2.680381,0.078296,-0.438942,0.024605,0.288148,-0.006992,-0.443670,-0.078216,0.892771,0.092657,-0.002091,0.052023,-63.838211,20.220106,-18.095314,,,,,,
1465825927.98,-2.679707,0.077736,-0.438695,0.074249,-0.003917,0.010856,-0.444292,-0.077658,0.892510,0.023073,0.017782,-0.027566,-63.838211,20.220106,-18.095314,,,,,,
1465825927.99,-2.680595,0.077055,-0.438567,0.058157,-0.095232,0.014606,-0.443522,-0.076979,0.892952,-0.001958,-0.001696,-0.044258,-63.670677,20.199062,-18.699032,,,,,,
1465825928.00,-2.681645,0.076400,-0.438542,0.066623,-0.102728,0.035950,-0.442606,-0.076326,0.893462,-0.020651,-0.000197,0.001085,-63.670677,20.199062,-18.699032,,,,,,
1465825928.01,-2.682109,0.075447,-0.438557,0.083749,-0.024175,0.039732,-0.442224,-0.075375,0.893732,-0.041358,0.013730,0.005758,-63.670677,20.199062,-18.699032,,,,,,
1465825928.03,-2.684218,0.074136,-0.438611,0.062240,-0.200414,0.037623,-0.440381,-0.074068,0.894750,-0.051455,-0.010954,-0.060522,-63.697372,20.204611,-18.601860,,,,,,
1465825928.02,-2.682553,0.074812,-0.438539,0.051782,-0.064472,0.027180,-0.441848,-0.074743,0.893971,0.006865,-0.020976,-0.021550,-63.697372,20.204611,-18.601860,,,,,,
1465825928.04,-2.686858,0.073422,-0.438702,0.055745,-0.280055,0.041309,-0.438040,-0.073356,0.895957,-0.089624,0.000679,-0.080680,-63.697372,20.204611,-18.601860,,,,,,
1465825928.05,-2.689222,0.072815,-0.438881,0.045187,-0.208909,0.040852,-0.435941,-0.072751,0.897030,-0.131442,-0.014178,-0.096371,-63.764339,20.249517,-18.321476,,,,,,
1465825928.06,-2.690154,0.072367,-0.439022,0.028364,-0.052792,0.031341,-0.435119,-0.072304,0.897465,-0.129838,-0.023155,-0.064122,-63.764339,20.249517,-18.321476,,,,,,
1465825928.07,-2.689645,0.072013,-0.439185,0.024271,0.080994,0.031562,-0.435587,-0.071951,0.897267,-0.125494,-0.015314,-0.050434,-63.764339,20.249517,-18.321476,,,,,,
1465825928.08,-2.687890,0.071699,-0.439407,0.015899,0.198855,0.031879,-0.437171,-0.071638,0.896521,-0.080224,-0.000674,-0.032782,-63.809654,20.282492,-18.126190,,,,,,
1465825928.09,-2.685305,0.071529,-0.439646,0.002155,0.270015,0.027161,-0.439492,-0.071468,0.895399,0.005654,-0.005024,-0.012952,-63.809654,20.282492,-18.126190,,,,,,
1465825928.10,-2.682653,0.071468,-0.439855,-0.003174,0.255170,0.020862,-0.441867,-0.071407,0.894234,0.084491,0.000332,0.029319,-63.809654,20.282492,-18.126190,,,,,,
1465825928.11,-2.680832,0.071355,-0.440025,0.004146,0.148986,0.021536,-0.443498,-0.071294,0.893435,0.141664,0.006597,0.052137,-63.649792,20.347111,-18.609398,,,,,,
1465825928.12,-2.680715,0.071138,-0.440132,0.018825,-0.036828,0.019522,-0.443610,-0.071078,0.893397,0.158805,0.013675,0.059530,-63.649792,20.347111,-18.609398,,,,,,
1465825928.13,-2.682037,0.070836,-0.440154,0.025084,-0.152547,0.012803,-0.442437,-0.070776,0.894002,0.125680,0.005881,0.025645,-63.649792,20.347111,-18.609398,,,,,,
1465825928.14,-2.683611,0.070690,-0.440147,0.011262,-0.153573,0.002151,-0.441035,-0.070631,0.894707,0.099299,0.001722,0.021218,-63.605934,20.369011,-18.734974,,,,,,
1465825928.15,-2.685174,0.070640,-0.440064,0.003820,-0.148254,-0.000018,-0.439637,-0.070582,0.895398,0.031358,-0.005193,-0.006055,-63.605934,20.369011,-18.734974,,,,,,
1465825928.16,-2.686129,0.070945,-0.440091,-0.038655,-0.087658,-0.019601,-0.438773,-0.070886,0.895798,-0.003809,-0.032813,-0.034470,-63.605934,20.369011,-18.734974,,,,,,
1465825928.17,-2.687184,0.071192,-0.440202,-0.021698,-0.107914,0.007154,-0.437819,-0.071132,0.896245,-0.045320,-0.004308,-0.038808,-63.705410,20.368517,-18.394421,,,,,,
1465825928.18,-2.688445,0.071520,-0.440170,-0.030196,-0.144982,-0.025620,-0.436678,-0.071459,0.896775,-0.030515,-0.010588,-0.034532,-63.705410,20.368517,-18.394421,,,,,,
1465825928.19,-2.690390,0.071629,-0.440090,0.001652,-0.198126,-0.011417,-0.434930,-0.071568,0.897616,-0.092658,0.009464,-0.052294,-63.705410,20.368517,-18.394421,,,,,,
1465825928.20,-2.691757,0.071690,-0.439923,-0.002480,-0.103611,-0.016271,-0.433701,-0.071629,0.898206,-0.105026,0.004337,-0.056500,-63.751621,20.367088,-18.235203,,,,,,
1465825928.21,-2.691256,0.071911,-0.439885,-0.021385,0.105570,-0.016538,-0.434144,-0.071849,0.897974,-0.091354,-0.003819,-0.027674,-63.751621,20.367088,-18.235203,,,,,,
1465825928.22,-2.689200,0.072239,-0.439842,-0.029741,0.226546,-0.015174,-0.435978,-0.072177,0.897058,-0.031536,0.001452,-0.001077,-63.751621,20.367088,-18.235203,,,,,,
1465825928.23,-2.686831,0.072514,-0.439800,-0.018021,0.230791,-0.016254,-0.438094,-0.072450,0.896005,0.000456,0.011644,0.009574,-63.777351,20.337381,-18.178307,,,,,,
1465825928.24,-2.684832,0.072749,-0.439718,-0.021255,0.193638,-0.019217,-0.439877,-0.072684,0.895112,0.044217,0.008399,0.010223,-63.777351,20.337381,-18.178307,,,,,,
1465825928.25,-2.683270,0.073198,-0.439662,-0.040477,0.138452,-0.025277,-0.441259,-0.073132,0.894395,0.112051,-0.008273,0.017989,-63.777351,20.337381,-18.178307,,,,,,
1465825928.26,-2.682653,0.073514,-0.439553,-0.016123,0.032256,-0.023522,-0.441801,-0.073448,0.894101,0.113783,0.013694,0.041781,-63.703976,20.323460,-18.449148,,,,,,
1465825928.28,-2.685013,0.073593,-0.439058,0.011374,-0.108989,-0.018351,-0.439688,-0.073526,0.895136,-0.024637,0.004846,-0.027308,-63.703976,20.323460,-18.449148,,,,,,
1465825928.27,-2.683632,0.073635,-0.439252,0.007102,-0.139744,-0.030936,-0.440922,-0.073569,0.894525,0.076969,0.020590,0.025671,-63.703976,20.323460,-18.449148,,,,,,
1465825928.29,-2.684957,0.073699,-0.438820,-0.000145,0.041798,-0.021437,-0.439734,-0.073633,0.895105,0.002814,0.000818,0.011008,-63.725975,20.270700,-18.431206,,,,,,
1465825928.30,-2.683786,0.073714,-0.438659,0.006356,0.138408,-0.017779,-0.440781,-0.073647,0.894588,-0.041366,0.008538,0.009144,-63.725975,20.270700,-18.431206,,,,,,
1465825928.31,-2.682292,0.073634,-0.438569,0.012730,0.155343,0.000217,-0.442120,-0.073567,0.893934,-0.048084,0.011357,-0.014234,-63.725975,20.270700,-18.431206,,,,,,
1465825928.32,-2.680457,0.073526,-0.438498,0.010650,0.191452,-0.002141,-0.443763,-0.073460,0.893128,-0.036202,0.003361,-0.017380,-63.711090,20.243334,-18.512562,,,,,,
1465825928.33,-2.678865,0.073476,-0.438517,0.002053,0.141528,0.006680,-0.445186,-0.073410,0.892424,-0.014057,-0.005524,-0.018477,-63.711090,20.243334,-18.512562,,,,,,
1465825928.34,-2.677690,0.073323,-0.438636,0.011582,0.119190,0.019603,-0.446239,-0.073257,0.891910,-0.044255,-0.004914,-0.042850,-63.711090,20.243334,-18.512562,,,,,,
1465825928.35,-2.676104,0.073172,-0.438652,0.013803,0.173373,0.007556,-0.447659,-0.073107,0.891211,-0.065983,0.006518,-0.024008,-63.593899,20.246334,-18.908003,,,,,,
1465825928.36,-2.673231,0.073024,-0.438684,0.008688,0.336899,0.004396,-0.450222,-0.072959,0.889931,0.007686,-0.021142,-0.004860,-63.593899,20.246334,-18.908003,,,,,,
1465825928.37,-2.668453,0.073262,-0.438689,-0.029390,0.515339,-0.010599,-0.454461,-0.073197,0.887754,0.028100,0.002930,0.017031,-63.593899,20.246334,-18.908003,,,,,,
1465825928.38,-2.662712,0.073527,-0.438582,-0.011169,0.581215,-0.030154,-0.459541,-0.073461,0.885113,0.027672,0.014608,0.024402,-63.505424,20.252911,-19.196131,,,,,,
1465825928.39,-2.657220,0.073574,-0.438400,0.005784,0.552473,-0.006539,-0.464393,-0.073508,0.882573,0.051384,-0.000970,0.029887,-63.505424,20.252911,-19.196131,,,,,,
1465825928.40,-2.651141,0.073732,-0.438261,-0.015384,0.622615,-0.026160,-0.469744,-0.073665,0.879724,0.120577,-0.002400,0.046607,-63.505424,20.252911,-19.196131,,,,,,
1465825928.41,-2.645973,0.073914,-0.438081,0.003566,0.463315,-0.017691,-0.474278,-0.073847,0.877272,-0.003536,0.030603,-0.007888,-63.079563,20.217178,-20.587488,,,,,,
1465825928.42,-2.641847,0.073595,-0.437970,0.033277,0.419702,0.006030,-0.477905,-0.073529,0.875329,0.057785,-0.004016,0.036674,-63.079563,20.217178,-20.587488,,,,,,
1465825928.43,-2.637510,0.073568,-0.437992,-0.006105,0.425039,0.002764,-0.481698,-0.073501,0.873249,0.035501,0.006759,-0.021626,-63.079563,20.217178,-20.587488,,,,,,
1465825928.44,-2.634355,0.073424,-0.437952,0.021359,0.257249,0.008102,-0.484455,-0.073358,0.871735,-0.131069,-0.002936,-0.060715,-62.888874,20.199814,-21.179428,,,,,,
1465825928.45,-2.631846,0.073030,-0.438101,0.028812,0.269963,0.016545,-0.486655,-0.072965,0.870542,-0.063790,0.003217,-0.049222,-62.888874,20.199814,-21.179428,,,,,,
1465825928.46,-2.628877,0.072797,-0.438299,-0.000999,0.312380,0.041796,-0.489246,-0.072732,0.869108,-0.095517,-0.042319,-0.104932,-62.888874,20.199814,-21.179428,,,,,,
1465825928.47,-2.625460,0.072997,-0.438591,-0.038173,0.349623,0.019172,-0.492206,-0.072932,0.867418,-0.088925,-0.024526,-0.089586,-62.595726,20.230423,-22.002621,,,,,,
1465825928.48,-2.621212,0.073369,-0.438977,-0.060378,0.436764,-0.003750,-0.495872,-0.073304,0.865296,0.052177,-0.027114,-0.038148,-62.595726,20.230423,-22.002621,,,,,,
1465825928.49,-2.617932,0.074116,-0.439342,-0.081902,0.265804,0.004752,-0.498681,-0.074049,0.863617,0.039895,-0.010973,-0.039536,-62.595726,20.230423,-22.002621,,,,,,
1465825928.51,-2.619709,0.074815,-0.439915,-0.026175,-0.274717,0.020971,-0.497119,-0.074746,0.864457,0.105075,0.006890,0.028961,-62.420238,20.268009,-22.461792,,,,,,
1465825928.50,-2.617520,0.074651,-0.439612,-0.051384,-0.037858,-0.003958,-0.499016,-0.074582,0.863377,0.057442,0.033200,-0.008794,-62.420238,20.268009,-22.461792,,,,,,
1465825928.52,-2.624173,0.074953,-0.440261,-0.025423,-0.521062,0.024645,-0.493251,-0.074883,0.866658,0.079020,0.014946,0.002894,-62.420238,20.268009,-22.461792,,,,,,
1465825928.53,-2.631941,0.074668,-0.440587,0.023084,-0.866225,0.046019,-0.486514,-0.074599,0.870482,-0.013731,0.039290,-0.029311,-62.481880,20.333361,-22.230164,,,,,,
1465825928.54,-2.642242,0.073848,-0.440862,0.069636,-1.064870,0.070729,-0.477550,-0.073781,0.875501,-0.038105,0.024343,-0.024686,-62.481880,20.333361,-22.230164,,,,,,
1465825928.55,-2.652980,0.072879,-0.441127,0.067493,-1.080787,0.067633,-0.468155,-0.072814,0.880641,-0.038970,-0.002152,-0.025432,-62.481880,20.333361,-22.230164,,,,,,
1465825928.56,-2.664393,0.071782,-0.441460,0.096095,-1.166860,0.087361,-0.458111,-0.071720,0.885997,-0.139149,0.037281,-0.034724,-62.852806,20.385275,-21.108667,,,,,,
1465825928.57,-2.676190,0.070043,-0.441784,0.147144,-1.169085,0.115102,-0.447682,-0.069986,0.891450,-0.133052,0.022226,-0.033692,-62.852806,20.385275,-21.108667,,,,,,
1465825928.58,-2.686772,0.068320,-0.442268,0.129208,-1.027874,0.120585,-0.438276,-0.068267,0.896244,-0.075319,0.006957,-0.009220,-62.852806,20.385275,-21.108667,,,,,,
1465825928.59,-2.696811,0.066556,-0.442791,0.138798,-1.016208,0.123715,-0.429308,-0.066507,0.900706,-0.095518,-0.004950,-0.052195,-63.656517,20.540434,-18.372494,,,,,,
1465825928.60,-2.705912,0.064961,-0.443289,0.104983,-0.908782,0.062334,-0.421138,-0.064916,0.904671,0.098491,-0.052165,-0.003868,-63.656517,20.540434,-18.372494,,,,,,
1465825928.61,-2.718086,0.063723,-0.443547,0.121415,-1.317710,0.110686,-0.410126,-0.063680,0.909803,-0.227890,0.004766,-0.166273,-63.656517,20.540434,-18.372494,,,,,,
1465825928.62,-2.731238,0.062074,-0.443730,0.125823,-1.278288,0.060414,-0.398167,-0.062034,0.915213,-0.110104,-0.085717,-0.099768,-63.949440,20.645281,-17.200369,,,,,,
1465825928.63,-2.741925,0.061457,-0.444254,0.022867,-0.982061,0.082936,-0.388378,-0.061419,0.919451,-0.134129,-0.017637,-0.025897,-63.949440,20.645281,-17.200369,,,,,,
1465825928.64,-2.749197,0.060792,-0.444720,0.044574,-0.669872,0.070355,-0.381697,-0.060755,0.922289,-0.074190,0.015619,0.023589,-64.332771,20.706829,-15.624748,,,,,,
1465825928.65,-2.753062,0.060343,-0.445953,-0.027467,-0.283510,0.129598,-0.378139,-0.060306,0.923782,0.351330,-0.021633,0.159119,-64.332771,20.706829,-15.624748,,,,,,
1465825928.66,-2.757161,0.060680,-0.446361,-0.033965,-0.589990,-0.005800,-0.374342,-0.060642,0.925305,0.323409,0.074955,0.078494,-64.332771,20.706829,-15.624748,,,,,,
1465825928.67,-2.772786,0.059376,-0.446275,0.182586,-1.859128,0.066243,-0.359867,-0.059341,0.931115,-0.315853,0.048507,-0.246712,-64.656891,20.893810,-13.947943,,,,,,
1465825928.68,-2.792565,0.057168,-0.446191,0.193211,-1.882485,0.063206,-0.341425,-0.057137,0.938171,-0.418127,-0.027656,-0.104522,-64.656891,20.893810,-13.947943,,,,,,
1465825928.69,-2.802805,0.055649,-0.446329,0.126570,-0.674137,0.061948,-0.331830,-0.055620,0.941698,-0.445285,-0.030042,0.048612,-64.656891,20.893810,-13.947943,,,,,,
1465825928.70,-2.799101,0.054585,-0.446541,0.081414,0.679676,0.056606,-0.335334,-0.054558,0.940518,-0.328179,0.036049,0.124271,-65.088211,20.922344,-11.721386,,,,,,
1465825928.71,-2.786957,0.053632,-0.446932,0.077924,1.327319,0.073830,-0.346750,-0.053606,0.936425,-0.120154,0.004778,0.054268,-65.088211,20.922344,-11.721386,,,,,,
1465825928.72,-2.772810,0.052977,-0.447315,0.030152,1.403854,0.050948,-0.359974,-0.052953,0.931458,0.245137,-0.039653,0.021804,-65.088211,20.922344,-11.721386,,,,,,
1465825928.73,-2.761057,0.052534,-0.447727,0.040365,1.069360,0.060508,-0.370905,-0.052510,0.927185,0.447932,0.053014,0.120529,-65.088211,20.922344,-11.721386,,,,,,
1465825928.74,-2.753319,0.051237,-0.447939,0.129319,0.681761,0.061963,-0.378094,-0.051214,0.924349,0.686490,0.069647,0.203626,-64.791100,21.042475,-13.074351,,,,,,
1465825928.75,-2.750436,0.049805,-0.447580,0.153215,0.121269,0.010150,-0.380785,-0.049785,0.923322,0.683794,0.076488,0.181979,-64.791100,21.042475,-13.074351,,,,,,
1465825928.76,-2.756640,0.047636,-0.446282,0.287311,-0.905339,-0.064175,-0.375090,-0.047618,0.925765,0.184874,0.046245,-0.048201,-64.791100,21.042475,-13.074351,,,,,,
1465825928.77,-2.771820,0.044303,-0.445261,0.348992,-1.580016,0.085947,-0.361049,-0.044288,0.931495,-0.466008,-0.070763,-0.254325,-64.548409,21.034517,-14.235968,,,,,,
1465825928.78,-2.778389,0.042098,-0.445621,0.123894,-0.222937,0.083598,-0.354956,-0.042085,0.933935,0.080908,-0.113295,0.117838,-64.548409,21.034517,-14.235968,,,,,,
1465825928.79,-2.771870,0.041864,-0.445380,0.032735,0.787168,-0.026079,-0.361040,-0.041852,0.931611,0.130434,0.060086,0.192855,-64.813942,21.052317,-12.944604,,,,,,
1465825928.80,-2.767547,0.040432,-0.445102,0.174604,0.253884,0.045531,-0.365086,-0.040421,0.930096,-0.133052,0.037949,-0.116787,-64.813942,21.052317,-12.944604,,,,,,
1465825928.81,-2.768913,0.038870,-0.445177,0.117553,-0.223928,0.059116,-0.363838,-0.038860,0.930651,0.111244,-0.057484,-0.081607,-64.813942,21.052317,-12.944604,,,,,,
1465825928.82,-2.772825,0.037889,-0.445018,0.105658,-0.451007,0.009434,-0.360208,-0.037879,0.932103,0.149560,0.009071,0.004634,-57.409191,46.654919,-13.900620,,,,,,
1465825928.83,-2.779334,0.036283,-0.444701,0.173441,-0.694270,0.038703,-0.354154,-0.036275,0.934483,-0.068683,0.030431,-0.037633,-57.409191,46.654919,-13.900620,,,,,,
1465825928.84,-2.784775,0.034685,-0.444560,0.141800,-0.451107,0.039276,-0.349084,-0.034678,0.936450,-0.000678,0.004207,0.020078,-57.409191,46.654919,-13.900620,,,,,,
1465825928.85,-2.786545,0.033519,-0.444289,0.113532,-0.112302,0.009447,-0.347440,-0.033513,0.937103,0.048978,-0.005290,0.040268,-57.569912,46.668621,-13.170776,,,,,,
1465825928.86,-2.787957,0.032494,-0.444080,0.100650,-0.179218,0.020498,-0.346128,-0.032488,0.937625,-0.030947,-0.019255,-0.045184,-57.569912,46.668621,-13.170776,,,,,,
1465825928.87,-2.791106,0.031502,-0.444175,0.085485,-0.339622,0.050229,-0.343184,-0.031497,0.938740,-0.016954,-0.014524,-0.057957,-57.569912,46.668621,-13.170776,,,,,,
1465825928.88,-2.794676,0.030593,-0.444250,0.083364,-0.363990,0.031220,-0.339841,-0.030588,0.939985,0.083798,0.013056,0.015703,-57.569912,46.668621,-13.170776,,,,,,
1465825928.89,-2.799229,0.029608,-0.444104,0.101326,-0.499866,0.016123,-0.335568,-0.029603,0.941551,0.040860,0.007493,-0.010002,-57.646011,46.681870,-12.785295,,,,,,
1465825928.90,-2.805260,0.028582,-0.444050,0.094753,-0.617772,0.034952,-0.329892,-0.028578,0.943586,-0.029925,-0.018358,-0.047040,-57.646011,46.681870,-12.785295,,,,,,
1465825928.91,-2.810674,0.027792,-0.444067,0.067240,-0.497748,0.024591,-0.324787,-0.027788,0.945379,0.015094,-0.019178,-0.003927,-57.646011,46.681870,-12.785295,,,,,,
1465825928.92,-2.814688,0.027198,-0.443983,0.059961,-0.384088,0.007904,-0.320995,-0.027195,0.946690,0.012279,0.004276,0.017879,-57.755882,46.685276,-12.266485,,,,,,
1465825928.93,-2.818400,0.026521,-0.443882,0.068492,-0.363935,0.014173,-0.317484,-0.026517,0.947893,-0.012319,-0.000048,-0.011446,-57.755882,46.685276,-12.266485,,,,,,
1465825928.94,-2.821868,0.025984,-0.443728,0.051503,-0.341603,0.004436,-0.314199,-0.025981,0.949002,0.008581,-0.006917,-0.016583,-57.851135,46.691689,-11.783754,,,,,,
1465825928.95,-2.825353,0.025487,-0.443556,0.055751,-0.360700,-0.001826,-0.310894,-0.025484,0.950103,-0.015324,0.003771,-0.010650,-57.851135,46.691689,-11.783754,,,,,,
1465825928.96,-2.828559,0.024910,-0.443492,0.054752,-0.291711,0.008384,-0.307851,-0.024908,0.951109,0.003392,-0.000163,0.009386,-57.851135,46.691689,-11.783754,,,,,,
1465825928.97,-2.830923,0.024428,-0.443320,0.052735,-0.212058,0.001496,-0.305605,-0.024426,0.951845,0.037645,0.007046,0.023298,-57.997803,46.679752,-11.089615,,,,,,
1465825928.98,-2.833703,0.023765,-0.443072,0.079225,-0.290685,0.016918,-0.302963,-0.023762,0.952706,-0.046738,0.020619,-0.028832,-57.997803,46.679752,-11.089615,,,,,,
1465825928.99,-2.836242,0.023002,-0.442906,0.072934,-0.228009,0.006939,-0.300548,-0.023000,0.953489,0.001536,0.010076,-0.008345,-57.997803,46.679752,-11.089615,,,,,,
1465825929.00,-2.837924,0.022388,-0.442619,0.067715,-0.180164,-0.015720,-0.298948,-0.022386,0.954007,0.018171,0.007616,0.029407,-58.056419,46.663517,-10.848592,,,,,,
1465825929.01,-2.840319,0.021549,-0.442503,0.084598,-0.242921,0.021946,-0.296668,-0.021547,0.954737,-0.080117,-0.006895,-0.047313,-58.056419,46.663517,-10.848592,,,,,,
1465825929.02,-2.841666,0.020884,-0.442469,0.057123,-0.092105,0.011393,-0.295386,-0.020882,0.955150,0.028128,-0.006034,0.016652,-58.056419,46.663517,-10.848592,,,,,,
1465825929.03,-2.842360,0.020361,-0.442404,0.055007,-0.083607,0.010273,-0.294726,-0.020360,0.955365,0.058551,0.003774,0.024784,-58.127968,46.648891,-10.523496,,,,,,
1465825929.04,-2.844710,0.019620,-0.442371,0.077075,-0.297073,0.023342,-0.292484,-0.019618,0.956069,0.033161,0.007915,-0.002257,-58.127968,46.648891,-10.523496,,,,,,
1465825929.05,-2.849120,0.018716,-0.442389,0.088558,-0.474408,0.027659,-0.288270,-0.018715,0.957366,0.033051,0.000877,-0.012069,-58.127968,46.648891,-10.523496,,,,,,
1465825929.06,-2.854196,0.017779,-0.442301,0.094920,-0.515787,0.015152,-0.283412,-0.017778,0.958834,0.028834,0.006456,0.008452,-58.127968,46.648891,-10.523496,,,,,,
1465825929.07,-2.859223,0.016809,-0.442274,0.090675,-0.485027,0.027728,-0.278593,-0.016808,0.960262,-0.053927,-0.005897,-0.025783,-58.221725,46.660877,-9.935631,,,,,,
1465825929.08,-2.862432,0.016067,-0.442315,0.061162,-0.254587,0.020931,-0.275513,-0.016066,0.961163,-0.041870,-0.009278,-0.006894,-58.221725,46.660877,-9.935631,,,,,,
1465825929.09,-2.863189,0.015597,-0.442287,0.042305,-0.029440,0.006727,-0.274787,-0.015596,0.961379,-0.006493,-0.001768,0.011323,-58.221725,46.660877,-9.935631,,,,,,
1465825929.10,-2.863071,0.015256,-0.442229,0.032778,0.011981,0.004329,-0.274903,-0.015255,0.961351,-0.000198,-0.001407,-0.009691,-58.278927,46.673595,-9.532364,,,,,,
1465825929.11,-2.864113,0.014988,-0.442115,0.032762,-0.014545,-0.004021,-0.273902,-0.014987,0.961641,0.015219,-0.000683,-0.012056,-58.278927,46.673595,-9.532364,,,,,,
1465825929.12,-2.864415,0.014684,-0.441927,0.034878,-0.036823,-0.011330,-0.273612,-0.014684,0.961728,0.036308,0.007100,0.010913,-58.278446,46.674114,-9.532763,,,,,,
1465825929.13,-2.865169,0.014337,-0.441718,0.040135,-0.088857,-0.009934,-0.272889,-0.014336,0.961939,0.015839,-0.000403,-0.002191,-58.278446,46.674114,-9.532763,,,,,,
1465825929.14,-2.866033,0.014006,-0.441571,0.035877,-0.079314,-0.004676,-0.272058,-0.014005,0.962179,-0.002264,0.001173,0.003825,-58.278446,46.674114,-9.532763,,,,,,
1465825929.15,-2.866478,0.013656,-0.441410,0.037004,-0.033651,-0.007090,-0.271632,-0.013655,0.962304,0.017451,0.004180,0.013846,-58.320015,46.644047,-9.425095,,,,,,
1465825929.16,-2.866748,0.013332,-0.441272,0.035941,-0.028347,-0.004996,-0.271373,-0.013332,0.962382,0.018749,0.006710,0.012914,-58.320015,46.644047,-9.425095,,,,,,
1465825929.17,-2.867272,0.012971,-0.441153,0.039088,-0.061273,-0.001593,-0.270870,-0.012970,0.962528,0.020809,0.003754,0.005626,-58.320015,46.644047,-9.425095,,,,,,
1465825929.18,-2.868067,0.012586,-0.441057,0.041180,-0.085705,0.001756,-0.270107,-0.012586,0.962748,0.025569,0.005918,0.012090,-58.331570,46.631092,-9.417679,,,,,,
1465825929.19,-2.868999,0.012202,-0.440963,0.037976,-0.095256,0.000748,-0.269210,-0.012201,0.963004,0.029006,0.003229,0.013970,-58.331570,46.631092,-9.417679,,,,,,
1465825929.20,-2.870028,0.011789,-0.440889,0.041153,-0.100582,0.006107,-0.268221,-0.011789,0.963285,0.025454,0.004144,0.015917,-58.331570,46.631092,-9.417679,,,,,,
1465825929.21,-2.873095,0.011411,-0.440789,0.043304,-0.086784,0.003893,-0.265266,-0.011410,0.964108,0.022484,-0.001392,0.019596,-58.331570,46.631092,-9.417679,,,,,,
1465825929.23,-2.874277,0.010667,-0.440563,0.038052,-0.053919,-0.002703,-0.264129,-0.010667,0.964428,0.025176,0.000627,0.016696,-58.360001,46.618999,-9.300700,,,,,,
1465825929.24,-2.874631,0.010296,-0.440454,0.038082,-0.024198,0.000304,-0.263788,-0.010296,0.964526,0.016198,0.003323,0.012876,-58.360001,46.618999,-9.300700,,,,,,
1465825929.22,-2.873736,0.011027,-0.440689,0.039109,-0.058170,-0.001611,-0.264649,-0.011027,0.964282,0.034302,-0.001531,0.020719,-58.360001,46.618999,-9.300700,,,,,,
1465825929.25,-2.876985,0.009712,-0.440317,0.032852,0.045878,-0.002270,-0.261518,-0.009712,0.965150,0.028959,0.003090,0.035522,-58.403370,46.603378,-9.104664,,,,,,
1465825929.26,-2.876458,0.009395,-0.440213,0.033920,0.050121,-0.001231,-0.262028,-0.009395,0.965015,0.035618,0.004588,0.026120,-58.403370,46.603378,-9.104664,,,,,,
1465825929.27,-2.876090,0.009117,-0.440125,0.027509,0.032074,-0.001124,-0.262383,-0.009117,0.964921,0.039452,0.001487,0.021224,-58.403370,46.603378,-9.104664,,,,,,
1465825929.28,-2.880022,0.008723,-0.439973,0.031748,0.008705,-0.005232,-0.258589,-0.008723,0.965948,0.053160,0.001124,0.033426,-58.419716,46.595169,-9.041600,,,,,,
1465825929.29,-2.883402,0.008087,-0.439818,0.034889,-0.033786,-0.003898,-0.255323,-0.008087,0.966822,0.042265,0.004638,0.030386,-58.419716,46.595169,-9.041600,,,,,,
1465825929.30,-2.885835,0.007598,-0.439678,0.038091,-0.028488,-0.003928,-0.252971,-0.007598,0.967444,0.026912,0.001586,0.033624,-58.454235,46.585514,-8.866590,,,,,,
1465825929.31,-2.887328,0.006954,-0.439547,0.033912,0.036273,-0.003274,-0.251527,-0.006954,0.967825,0.019441,0.004956,0.043268,-58.454235,46.585514,-8.866590,,,,,,
1465825929.32,-2.888450,0.006554,-0.439380,0.034012,0.110599,-0.006933,-0.250442,-0.006554,0.968109,0.027862,0.001015,0.050934,-58.454235,46.585514,-8.866590,,,,,,
1465825929.33,-2.889666,0.005913,-0.439267,0.034021,0.124376,-0.001698,-0.249266,-0.005913,0.968417,0.037733,0.005974,0.059461,-58.454235,46.585514,-8.866590,,,,,,
1465825929.34,-2.891755,0.005702,-0.439152,0.029672,0.051103,-0.002308,-0.247243,-0.005702,0.968937,0.049275,-0.001790,0.040600,-58.528290,46.564751,-8.478621,,,,,,
1465825929.35,-2.892067,0.005336,-0.439024,0.043371,-0.065696,-0.003690,-0.246941,-0.005336,0.969016,0.080376,0.007548,0.070733,-58.528290,46.564751,-8.478621,,,,,,
1465825929.36,-2.894085,0.004822,-0.438881,0.053791,-0.244090,-0.000432,-0.244986,-0.004822,0.969515,0.068381,0.004502,0.052153,-58.528290,46.564751,-8.478621,,,,,,
1465825929.38,-2.903801,0.003484,-0.438628,0.062156,-0.363034,0.002451,-0.235555,-0.003483,0.971855,0.044897,0.002080,0.063683,-58.577911,46.546474,-8.232727,,,,,,
1465825929.37,-2.897419,0.004238,-0.438763,0.063229,-0.354531,0.003463,-0.241753,-0.004238,0.970329,0.052803,0.006145,0.057015,-58.577911,46.546474,-8.232727,,,,,,
1465825929.39,-2.907348,0.002912,-0.438482,0.060045,-0.355589,-0.001856,-0.232107,-0.002912,0.972686,0.051153,0.006681,0.084886,-58.577911,46.546474,-8.232727,,,,,,
1465825929.40,-2.911064,0.002333,-0.438322,0.057890,-0.378942,-0.003841,-0.228491,-0.002333,0.973543,0.048682,0.003294,0.072874,-58.651882,46.540104,-7.726534,,,,,,
1465825929.41,-2.915418,0.001788,-0.438159,0.056723,-0.458579,-0.002278,-0.224251,-0.001788,0.974530,0.056038,0.009402,0.078205,-58.651882,46.540104,-7.726534,,,,,,
1465825929.42,-2.923683,0.000972,-0.437992,0.062965,-0.578576,-0.002584,-0.216189,-0.000972,0.976351,0.060869,0.005626,0.075895,-58.708088,46.529312,-7.355797,,,,,,
1465825929.43,-2.930426,0.000347,-0.437835,0.064936,-0.704932,-0.001789,-0.209600,-0.000347,0.977787,0.058386,0.006740,0.081829,-58.708088,46.529312,-7.355797,,,,,,
1465825929.44,-2.938178,-0.000336,-0.437699,0.070146,-0.789887,0.001942,-0.202015,0.000336,0.979382,0.042118,0.007079,0.086246,-58.708088,46.529312,-7.355797,,,,,,
1465825929.45,-2.946073,-0.001002,-0.437530,0.065909,-0.784556,-0.005547,-0.194276,0.001002,0.980946,0.037218,0.002401,0.103831,-58.889198,46.509209,-5.888985,,,,,,
1465825929.46,-2.953915,-0.001656,-0.437358,0.069099,-0.784563,-0.003415,-0.186578,0.001656,0.982439,0.027368,0.006812,0.117506,-58.889198,46.509209,-5.888985,,,,,,
1465825929.47,-2.961852,-0.002323,-0.437221,0.068016,-0.796248,-0.001214,-0.178774,0.002323,0.983887,0.018831,0.004849,0.119476,-58.889198,46.509209,-5.888985,,,,,,
1465825929.48,-2.969991,-0.002969,-0.437063,0.067987,-0.825967,-0.005285,-0.170760,0.002969,0.985308,0.035461,0.004630,0.134367,-58.978733,46.497143,-5.024824,,,,,,
1465825929.49,-2.979128,-0.003696,-0.436908,0.076344,-0.947029,-0.000260,-0.161750,0.003696,0.986825,0.031318,0.008236,0.133857,-58.978733,46.497143,-5.024824,,,,,,
1465825929.50,-2.989449,-0.004461,-0.436795,0.076207,-1.055335,0.001484,-0.151556,0.004461,0.988439,0.024557,0.004114,0.126246,-58.978733,46.497143,-5.024824,,,,,,
1465825929.51,-3.000429,-0.005229,-0.436667,0.080402,-1.112663,-0.002410,-0.140694,0.005229,0.990039,0.035057,0.006277,0.158032,-59.126099,46.480854,-3.059076,,,,,,
1465825929.52,-3.012284,-0.006092,-0.436498,0.090928,-1.216713,-0.006005,-0.128946,0.006091,0.991633,0.032312,0.006055,0.175695,-59.126099,46.480854,-3.059076,,,,,,
1465825929.53,-3.025255,-0.007038,-0.436363,0.098242,-1.318665,-0.000036,-0.116073,0.007038,0.993216,-0.001496,0.006176,0.162271,-59.126099,46.480854,-3.059076,,,,,,
1465825929.54,-3.038310,-0.008067,-0.436238,0.102545,-1.283627,-0.000251,-0.103096,0.008067,0.994639,-0.042931,0.003576,0.163732,-61.685013,44.540649,0.398576,,,,,,
1465825929.55,-3.049608,-0.009010,-0.436091,0.093246,-1.068059,-0.007999,-0.091852,0.009010,0.995732,-0.061301,0.000756,0.189784,-61.685013,44.540649,0.398576,,,,,,
1465825929.56,-3.058854,-0.009878,-0.435840,0.088165,-0.891768,-0.019755,-0.082640,0.009878,0.996530,-0.058504,-0.001196,0.224295,-61.685013,44.540649,0.398576,,,,,,
1465825929.57,-3.067150,-0.010737,-0.435645,0.086124,-0.802608,-0.008607,-0.074369,0.010737,0.997173,-0.096697,-0.002940,0.178654,-61.614838,44.531708,3.099608,,,,,,
1465825929.58,-3.073869,-0.011464,-0.435413,0.072517,-0.636922,-0.023497,-0.067667,0.011463,0.997642,-0.067525,0.000652,0.218956,-61.614838,44.531708,3.099608,,,,,,
1465825929.59,-3.080591,-0.012170,-0.435097,0.074571,-0.699566,-0.024167,-0.060959,0.012169,0.998066,-0.039505,-0.004784,0.226452,-61.614838,44.531708,3.099608,,,,,,
1465825929.60,-3.088276,-0.012978,-0.434888,0.082965,-0.787718,-0.017219,-0.053287,0.012978,0.998495,-0.059720,0.005317,0.201136,-61.575508,44.518532,3.952937,,,,,,
1465825929.61,-3.097340,-0.013835,-0.434574,0.089165,-0.958636,-0.028914,-0.044234,0.013835,0.998925,-0.020830,0.000096,0.261298,-61.575508,44.518532,3.952937,,,,,,
1465825929.62,-3.108715,-0.014835,-0.434375,0.104811,-1.190163,-0.010415,-0.032868,0.014834,0.999350,-0.054672,-0.003222,0.212534,-61.575508,44.518532,3.952937,,,,,,
1465825929.63,-3.121329,-0.015969,-0.434234,0.116425,-1.277223,-0.015180,-0.020260,0.015969,0.999667,-0.078144,0.001274,0.246106,-61.872486,43.653122,6.724973,,,,,,
1465825929.64,-3.135104,-0.017130,-0.434036,0.117310,-1.420566,-0.014280,-0.006488,0.017129,0.999832,-0.074033,-0.009118,0.270660,-61.872486,43.653122,6.724973,,,,,,
1465825929.65,3.133911,-0.018367,-0.433974,0.124789,-1.395096,-0.011239,0.007680,0.018366,0.999802,-0.161184,-0.000987,0.227371,-61.872486,43.653122,6.724973,,,,,,
1465825929.66,3.120343,-0.019555,-0.433796,0.117396,-1.356849,-0.017873,0.021244,0.019554,0.999583,-0.138401,-0.007240,0.310582,-61.687603,43.652225,8.255202,,,,,,
1465825929.67,3.106869,-0.020727,-0.433713,0.117412,-1.335628,-0.012684,0.034709,0.020725,0.999183,-0.207973,-0.004444,0.234384,-61.687603,43.652225,8.255202,,,,,,
1465825929.68,3.094787,-0.021881,-0.433609,0.112325,-1.147686,-0.013868,0.046778,0.021879,0.998666,-0.261377,-0.007124,0.245368,-61.687603,43.652225,8.255202,,,,,,
,,,,,,,,,,,,,,,,29.719972,-95.399058,10.496043,-1.000000,-1.000000,1465825929.69
1465825929.69,3.085764,-0.022808,-0.433486,0.086127,-0.820623,-0.021267,0.055785,0.022806,0.998182,-0.268218,-0.004373,0.270845,-61.188473,43.666569,11.323725,,,,,,
1465825929.70,3.078729,-0.023684,-0.433281,0.086302,-0.684707,-0.024249,0.062805,0.023682,0.997745,-0.255279,-0.011338,0.312344,-61.188473,43.666569,11.323725,,,,,,
1465825929.71,3.072208,-0.024597,-0.433128,0.092744,-0.642238,-0.024508,0.069308,0.024595,0.997292,-0.294818,-0.005964,0.245445,-61.188473,43.666569,11.323725,,,,,,
1465825929.72,3.066310,-0.025506,-0.432913,0.086456,-0.566838,-0.028181,0.075187,0.025504,0.996843,-0.305686,-0.013922,0.257231,-61.188473,43.666569,11.323725,,,,,,
1465825929.73,3.061518,-0.026336,-0.432657,0.081287,-0.455325,-0.036337,0.079961,0.026333,0.996450,-0.322896,-0.024395,0.251093,-61.291615,42.790852,13.843059,,,,,,
1465825929.74,3.057422,-0.027189,-0.432403,0.082414,-0.392703,-0.028213,0.084040,0.027186,0.996091,-0.332453,-0.008051,0.249911,-61.291615,42.790852,13.843059,,,,,,
1465825929.75,3.053375,-0.028099,-0.432135,0.088782,-0.420293,-0.035484,0.088069,0.028095,0.995718,-0.378032,-0.037784,0.189737,-61.193771,42.774548,14.318178,,,,,,
1465825929.76,3.049226,-0.029002,-0.431886,0.088800,-0.401189,-0.032411,0.092197,0.028998,0.995318,-0.414859,-0.026862,0.210385,-61.193771,42.774548,14.318178,,,,,,
1465825929.77,3.046424,-0.029910,-0.431676,0.083679,-0.236613,-0.031319,0.094982,0.029905,0.995030,-0.402859,-0.015577,0.213070,-61.193771,42.774548,14.318178,,,,,,
1465825929.78,3.044632,-0.030713,-0.431462,0.081616,-0.169742,-0.023225,0.096763,0.030708,0.994834,-0.464271,-0.023430,0.160943,-61.193771,42.774548,14.318178,,,,,,
1465825929.79,3.043556,-0.031573,-0.431282,0.080661,-0.089032,-0.027990,0.097831,0.031568,0.994702,-0.480582,-0.032392,0.148929,-61.059849,42.747932,14.955218,,,,,,
1465825929.80,3.043658,-0.032315,-0.431126,0.071243,0.052174,-0.022498,0.097727,0.032309,0.994689,-0.479319,-0.029730,0.167192,-61.059849,42.747932,14.955218,,,,,,
1465825929.81,3.045012,-0.033181,-0.431017,0.091582,0.149833,-0.016704,0.096378,0.033175,0.994792,-0.528415,-0.063632,0.128026,-61.066063,42.741364,14.948606,,,,,,
1465825929.82,3.047099,-0.034073,-0.430882,0.082117,0.232676,-0.023620,0.094298,0.034066,0.994961,-0.540511,-0.036034,0.077350,-61.066063,42.741364,14.948606,,,,,,
1465825929.83,3.050406,-0.035023,-0.430808,0.097191,0.380235,-0.016014,0.091005,0.035016,0.995235,-0.562196,-0.038220,0.067372,-61.066063,42.741364,14.948606,,,,,,
1465825929.84,3.055651,-0.035954,-0.430731,0.089963,0.568163,-0.011878,0.085781,0.035947,0.995665,-0.592784,-0.053586,0.001603,-61.134472,42.741802,14.665070,,,,,,
1465825929.85,3.063212,-0.036702,-0.430635,0.071118,0.816646,-0.017713,0.078248,0.036694,0.996258,-0.573396,-0.049694,-0.006634,-61.134472,42.741802,14.665070,,,,,,
1465825929.86,3.072673,-0.037396,-0.430554,0.067059,0.984399,-0.013447,0.068817,0.037387,0.996929,-0.581207,-0.061878,-0.036250,-61.134472,42.741802,14.665070,,,,,,
1465825929.87,3.083331,-0.038037,-0.430556,0.068225,1.090534,0.001855,0.058187,0.038028,0.997581,-0.549901,-0.072406,-0.114784,-61.513103,42.750492,12.956982,,,,,,
1465825929.88,3.094745,-0.038664,-0.430519,0.057679,1.159577,-0.006039,0.046796,0.038655,0.998156,-0.563718,-0.072727,-0.110675,-61.513103,42.750492,12.956982,,,,,,
1465825929.89,3.106828,-0.039250,-0.430597,0.060919,1.217937,0.007436,0.034731,0.039239,0.998626,-0.567202,-0.072061,-0.150054,-61.513103,42.750492,12.956982,,,,,,
1465825929.90,3.119333,-0.039892,-0.430746,0.064175,1.274199,0.011344,0.022240,0.039882,0.998957,-0.543908,-0.083949,-0.209223,-61.788086,42.759323,11.542220,,,,,,
1465825929.91,3.133030,-0.040412,-0.430835,0.050491,1.399499,0.010544,0.008556,0.040401,0.999147,-0.542201,-0.067256,-0.237260,-61.788086,42.759323,11.542220,,,,,,
1465825929.92,-3.135429,-0.040981,-0.431060,0.058035,1.502437,0.029066,-0.006158,0.040970,0.999141,-0.537619,-0.066803,-0.289913,-61.788086,42.759323,11.542220,,,,,,
1465825929.93,-3.119358,-0.041434,-0.431370,0.039043,1.645781,0.031342,-0.022214,0.041422,0.998895,-0.448520,-0.079920,-0.326593,-62.289337,42.812820,8.151724,,,,,,
1465825929.94,-3.102568,-0.041786,-0.431644,0.034825,1.678699,0.031131,-0.038980,0.041774,0.998366,-0.438559,-0.067638,-0.383681,-62.289337,42.812820,8.151724,,,,,,
1465825929.95,-3.085998,-0.042187,-0.432082,0.037951,1.651044,0.048339,-0.055516,0.042175,0.997567,-0.381633,-0.065475,-0.414330,-62.289337,42.812820,8.151724,,,,,,
1465825929.96,-3.069883,-0.042543,-0.432461,0.031511,1.597977,0.041214,-0.071584,0.042530,0.996527,-0.341029,-0.040272,-0.480307,-62.497345,42.855999,6.065827,,,,,,
1465825929.98,-3.038265,-0.043219,-0.433623,0.021796,1.538442,0.070318,-0.103047,0.043206,0.993738,-0.229426,-0.030175,-0.525705,-62.497345,42.855999,6.065827,,,,,,
1465825929.97,-3.053854,-0.042918,-0.433000,0.032558,1.609613,0.057109,-0.087545,0.042905,0.995236,-0.265269,-0.032377,-0.476483,-62.497345,42.855999,6.065827,,,,,,
1465825929.99,-3.023595,-0.043430,-0.434377,0.008901,1.455607,0.078276,-0.117613,0.043416,0.992110,-0.144198,-0.023504,-0.532622,-62.497345,42.855999,6.065827,,,,,,
1465825930.00,-3.010192,-0.043646,-0.435184,0.014004,1.295246,0.088867,-0.130898,0.043633,0.990435,-0.141990,-0.019859,-0.560534,-62.667358,42.991085,1.979591,,,,,,
1465825930.01,-2.998394,-0.043911,-0.436128,0.008486,1.151885,0.097211,-0.142572,0.043897,0.988810,-0.117117,-0.018583,-0.569011,-62.667358,42.991085,1.979591,,,,,,
1465825930.02,-2.986882,-0.044057,-0.437176,-0.005342,1.173110,0.103451,-0.153945,0.044043,0.987097,-0.027390,-0.008414,-0.561194,-62.629295,43.091511,0.206087,,,,,,
1465825930.03,-2.974819,-0.044036,-0.438140,-0.020167,1.221987,0.093550,-0.165841,0.044021,0.985169,0.010873,0.003327,-0.569612,-62.629295,43.091511,0.206087,,,,,,
1465825930.04,-2.962766,-0.043863,-0.439100,-0.037239,1.198627,0.096873,-0.177704,0.043849,0.983107,0.022202,0.018315,-0.574034,-62.629295,43.091511,0.206087,,,,,,
1465825930.05,-2.951208,-0.043502,-0.440097,-0.060704,1.155123,0.090735,-0.189057,0.043488,0.981003,0.045762,0.015975,-0.587875,-62.400131,43.335823,-2.753153,,,,,,
1465825930.06,-2.939309,-0.042801,-0.441074,-0.095751,1.206142,0.077607,-0.200723,0.042788,0.978713,0.099145,0.027525,-0.549819,-62.400131,43.335823,-2.753153,,,,,,
1465825930.07,-2.926929,-0.041789,-0.442025,-0.124431,1.249708,0.070919,-0.212833,0.041777,0.976195,0.121082,0.025209,-0.535079,-62.400131,43.335823,-2.753153,,,,,,
1465825930.08,-2.914586,-0.040564,-0.443002,-0.146795,1.244413,0.069865,-0.224876,0.040552,0.973543,0.102028,0.004461,-0.530794,-62.243488,43.448826,-4.158957,,,,,,
1465825930.09,-2.901582,-0.039163,-0.443940,-0.161572,1.324096,0.054448,-0.237531,0.039153,0.970591,0.131543,0.006028,-0.492472,-62.243488,43.448826,-4.158957,,,,,,
1465825930.10,-2.887404,-0.037600,-0.444913,-0.181631,1.462138,0.054627,-0.251282,0.037591,0.967184,0.159974,0.002219,-0.471441,-62.243488,43.448826,-4.158957,,,,,,
1465825930.11,-2.871500,-0.035835,-0.445789,-0.194159,1.627841,0.033351,-0.266649,0.035827,0.963127,0.208590,0.009995,-0.429543,-61.838055,43.641190,-7.130999,,,,,,
1465825930.12,-2.854670,-0.033977,-0.446664,-0.206833,1.706427,0.030716,-0.282839,0.033971,0.958566,0.223558,-0.002125,-0.432550,-61.838055,43.641190,-7.130999,,,,,,
1465825930.13,-2.836856,-0.032070,-0.447556,-0.207764,1.811549,0.028992,-0.299887,0.032065,0.953436,0.274115,0.007776,-0.376333,-61.838055,43.641190,-7.130999,,,,,,
1465825930.14,-2.818119,-0.030070,-0.448362,-0.217220,1.884865,0.011491,-0.317718,0.030065,0.947709,0.324981,0.002238,-0.331604,-61.838055,43.641190,-7.130999,,,,,,
1465825930.15,-2.799465,-0.028027,-0.449152,-0.218307,1.855155,0.004225,-0.335360,0.028023,0.941673,0.338717,-0.005364,-0.323326,-61.156471,43.787094,-11.042010,,,,,,
1465825930.16,-2.781281,-0.025972,-0.449907,-0.219412,1.814822,-0.000845,-0.352447,0.025969,0.935471,0.368133,-0.003416,-0.287690,-61.156471,43.787094,-11.042010,,,,,,
1465825930.17,-2.763514,-0.023959,-0.450656,-0.212027,1.760666,-0.000498,-0.369030,0.023957,0.929109,0.384655,0.002807,-0.254335,-60.707699,43.844902,-13.097686,,,,,,
1465825930.18,-2.746362,-0.022018,-0.451416,-0.205695,1.708647,-0.004423,-0.384928,0.022017,0.922684,0.391611,-0.001799,-0.228775,-60.707699,43.844902,-13.097686,,,,,,
1465825930.19,-2.729522,-0.020130,-0.452193,-0.205737,1.678910,-0.002108,-0.400426,0.020129,0.916108,0.403295,-0.004916,-0.197785,-60.707699,43.844902,-13.097686,,,,,,
1465825930.20,-2.713206,-0.018184,-0.452961,-0.208992,1.618410,-0.009183,-0.415335,0.018183,0.909487,0.407065,-0.001093,-0.199922,-60.218586,43.901005,-15.025751,,,,,,
1465825930.21,-2.697319,-0.016326,-0.453735,-0.200527,1.572754,-0.011017,-0.429745,0.016325,0.902803,0.428463,0.008775,-0.152497,-60.218586,43.901005,-15.025751,,,,,,
1465825930.22,-2.682376,-0.014456,-0.454513,-0.201697,1.472879,-0.011454,-0.443200,0.014455,0.896306,0.433343,0.006022,-0.159444,-60.218586,43.901005,-15.025751,,,,,,
1465825930.23,-2.668461,-0.012637,-0.455282,-0.197566,1.367764,-0.012919,-0.455639,0.012637,0.890075,0.446911,0.009275,-0.133361,-59.158825,44.019142,-18.490501,,,,,,
1465825930.24,-2.655517,-0.010851,-0.456041,-0.191296,1.264781,-0.017589,-0.467132,0.010851,0.884121,0.457763,0.011061,-0.090023,-59.158825,44.019142,-18.490501,,,,,,
1465825930.26,-2.633278,-0.007445,-0.457494,-0.177758,1.020562,-0.017109,-0.486692,0.007445,0.873542,0.449735,0.010530,-0.071036,-59.158825,44.019142,-18.490501,,,,,,
1465825930.25,-2.643756,-0.009109,-0.456775,-0.187181,1.147983,-0.017917,-0.477506,0.009109,0.878581,0.463956,0.015122,-0.065044,-59.158825,44.019142,-18.490501,,,,,,
1465825930.27,-2.623542,-0.005818,-0.458175,-0.174630,0.955811,-0.024151,-0.495179,0.005818,0.868771,0.465836,0.017772,-0.010922,-58.215019,44.132702,-21.039635,,,,,,
1465825930.28,-2.614622,-0.004182,-0.458837,-0.174735,0.874049,-0.022574,-0.502912,0.004182,0.864327,0.451078,0.009657,-0.010873,-58.215019,44.132702,-21.039635,,,,,,
1465825930.29,-2.606408,-0.002584,-0.459462,-0.167362,0.799737,-0.028487,-0.509998,0.002584,0.860172,0.455036,0.024378,0.022259,-57.833427,44.181995,-21.968048,,,,,,
1465825930.30,-2.599010,-0.000991,-0.460050,-0.166387,0.717995,-0.034360,-0.516349,0.000991,0.856378,0.444023,0.018205,0.063529,-57.833427,44.181995,-21.968048,,,,,,
1465825930.31,-2.592264,0.000611,-0.460599,-0.165382,0.670214,-0.034059,-0.522115,-0.000611,0.852875,0.425679,0.020173,0.080078,-57.833427,44.181995,-21.968048,,,,,,
1465825930.32,-2.585671,0.002269,-0.461041,-0.165358,0.655407,-0.055255,-0.527725,-0.002269,0.849412,0.428970,0.021618,0.097380,-57.510269,44.223576,-22.719915,,,,,,
1465825930.33,-2.579247,0.004016,-0.461458,-0.171761,0.638430,-0.058349,-0.533168,-0.004016,0.846000,0.408641,0.011142,0.122796,-57.510269,44.223576,-22.719915,,,,,,
1465825930.34,-2.572955,0.005856,-0.461866,-0.176021,0.625711,-0.065724,-0.538475,-0.005855,0.842621,0.414757,0.018413,0.145081,-57.510269,44.223576,-22.719915,,,,,,
1465825930.35,-2.567146,0.007659,-0.462140,-0.165439,0.558839,-0.074874,-0.543355,-0.007659,0.839468,0.414586,0.007552,0.159387,-56.994366,44.263084,-23.911739,,,,,,
1465825930.36,-2.562361,0.009323,-0.462463,-0.152820,0.451558,-0.062480,-0.547357,-0.009323,0.836847,0.377313,0.004120,0.205160,-56.994366,44.263084,-23.911739,,,,,,
