timestamp,attitude_roll,attitude_pitch,attitude_yaw,rotation_rate_x,rotation_rate_y,rotation_rate_z,gravity_x,gravity_y,gravity_z,user_acc_x,user_acc_y,user_acc_z,magnetic_field_x,magnetic_field_y,magnetic_field_z,latitude(degree),longitude(degree),altitude(meter),speed(m/s),course(degree),timestamp
1465846417.19,-0.101067,-0.006620,-1.491783,0.005931,-0.021555,0.001467,-0.100893,0.006620,-0.994875,-0.000242,0.005267,0.005221,-44.767128,230.991028,-111.278297,,,,,,
1465846417.20,-0.101451,-0.006616,-1.491764,-0.004711,-0.015183,0.002481,-0.101275,0.006615,-0.994836,-0.009763,-0.000054,0.003656,-44.767128,230.991028,-111.278297,,,,,,
1465846417.21,-0.101409,-0.006666,-1.491751,0.000678,0.036841,0.002160,-0.101233,0.006666,-0.994840,-0.009653,0.000994,0.003889,-44.833755,231.061142,-111.105820,,,,,,
1465846417.22,-0.100830,-0.006660,-1.491738,-0.001401,0.077190,0.001905,-0.100657,0.006660,-0.994899,-0.005803,-0.000373,0.006053,-44.833755,231.061142,-111.105820,,,,,,
1465846417.23,-0.099953,-0.006656,-1.491735,-0.004574,0.092060,0.000744,-0.099785,0.006655,-0.994987,-0.001564,-0.002810,-0.004372,-44.833755,231.061142,-111.105820,,,,,,
1465846417.24,-0.098904,-0.006661,-1.491728,-0.001372,0.098430,0.000707,-0.098740,0.006661,-0.995091,0.002885,-0.000511,-0.002651,-44.757679,231.067078,-111.124092,,,,,,
1465846417.25,-0.097990,-0.006678,-1.491724,-0.003521,0.082504,0.000805,-0.097831,0.006677,-0.995181,0.001243,-0.001032,-0.006772,-44.757679,231.067078,-111.124092,,,,,,
1465846417.26,-0.097201,-0.006699,-1.491717,-0.001410,0.067638,0.000900,-0.097046,0.006699,-0.995257,0.003098,0.000076,-0.004926,-44.757679,231.067078,-111.124092,,,,,,
1465846417.27,-0.096620,-0.006743,-1.491708,-0.000375,0.044278,0.001048,-0.096468,0.006743,-0.995313,0.003175,0.001680,-0.005373,-44.348442,231.072266,-111.277290,,,,,,
,,,,,,,,,,,,,,,,29.719946,-95.399075,10.301153,-1.000000,-1.000000,1465846412.30
,,,,,,,,,,,,,,,,29.719946,-95.399076,10.301153,-1.000000,-1.000000,1465846411.79
,,,,,,,,,,,,,,,,29.719946,-95.399075,10.301153,-1.000000,-1.000000,1465846412.30
1465846417.28,-0.096177,-0.006784,-1.491717,-0.000386,0.031543,-0.001001,-0.096026,0.006784,-0.995356,0.005603,0.002158,-0.002859,-44.348442,231.072266,-111.277290,,,,,,
1465846417.29,-0.095881,-0.006795,-1.491738,0.000688,0.038975,-0.001047,-0.095732,0.006795,-0.995384,-0.004030,0.001429,-0.000008,-44.232662,231.082077,-111.303001,,,,,,
1465846417.31,-0.094789,-0.006771,-1.491750,-0.001415,0.060212,-0.001182,-0.094645,0.006771,-0.995488,-0.000402,0.000172,-0.001018,-44.232662,231.082077,-111.303001,,,,,,
1465846417.30,-0.095397,-0.006766,-1.491738,0.000706,0.054899,-0.000082,-0.095250,0.006766,-0.995430,-0.001750,-0.001547,-0.002357,-44.232662,231.082077,-111.303001,,,,,,
1465846417.32,-0.094228,-0.006739,-1.491768,-0.000353,0.058087,-0.001168,-0.094086,0.006739,-0.995541,-0.002212,-0.001917,-0.005481,-44.232662,231.082077,-111.303001,,,,,,
1465846417.33,-0.093595,-0.006756,-1.491781,-0.001406,0.067644,-0.001229,-0.093457,0.006756,-0.995600,-0.001651,0.000233,0.000071,-44.028164,231.075165,-111.398384,,,,,,
1465846417.34,-0.092949,-0.006753,-1.491795,-0.001393,0.077200,-0.001289,-0.092814,0.006753,-0.995661,-0.006308,-0.000573,-0.002539,-44.028164,231.075165,-111.398384,,,,,,
1465846417.35,-0.092080,-0.006765,-1.491821,-0.000308,0.092067,-0.002445,-0.091948,0.006765,-0.995741,-0.001451,0.000055,0.001448,-44.028164,231.075165,-111.398384,,,,,,
1465846417.36,-0.091077,-0.006787,-1.491841,-0.001365,0.098439,-0.002486,-0.090949,0.006787,-0.995832,0.000739,0.000873,-0.001924,-43.891796,231.075882,-111.450706,,,,,,
1465846417.37,-0.090040,-0.006815,-1.491860,0.000755,0.091006,-0.002438,-0.089916,0.006815,-0.995926,0.005032,0.001212,-0.002533,-43.891796,231.075882,-111.450706,,,,,,
1465846417.38,-0.089168,-0.006829,-1.491873,-0.001399,0.072954,-0.001262,-0.089048,0.006829,-0.996004,0.004621,0.000724,-0.005064,-43.891796,231.075882,-111.450706,,,,,,
,,,,,,,,,,,,,,,,29.720868,-95.401412,10.301153,-1.000000,-1.000000,1465846473.26
1465846417.39,-0.088409,-0.006831,-1.491884,-0.000355,0.054906,-0.002212,-0.088292,0.006831,-0.996071,0.008458,0.000035,-0.006675,-43.486229,231.082062,-111.596779,,,,,,
1465846417.40,-0.087851,-0.006802,-1.491889,-0.000375,0.040039,-0.001055,-0.087736,0.006802,-0.996121,0.006636,-0.001828,-0.004902,-43.486229,231.082062,-111.596779,,,,,,
,,,,,,,,,,,,,,,,29.720896,-95.401484,10.301153,-1.000000,-1.000000,1465846473.30
1465846417.41,-0.087406,-0.006784,-1.491888,-0.000389,0.030480,0.000070,-0.087293,0.006784,-0.996160,0.005811,-0.001260,-0.006785,-43.486229,231.082062,-111.596779,,,,,,
1465846417.42,-0.087089,-0.006771,-1.491892,-0.001462,0.021990,-0.000943,-0.086977,0.006771,-0.996187,0.003725,-0.001202,-0.005430,-43.343376,231.078461,-111.659782,,,,,,
1465846417.43,-0.086849,-0.006767,-1.491890,-0.000404,0.019860,0.001201,-0.086738,0.006767,-0.996208,0.001960,-0.000190,-0.002953,-43.343376,231.078461,-111.659782,,,,,,
1465846417.44,-0.086596,-0.006795,-1.491890,-0.001458,0.027296,0.000089,-0.086486,0.006795,-0.996230,-0.000459,0.001139,-0.003343,-43.343376,231.078461,-111.659782,,,,,,
1465846417.45,-0.086252,-0.006793,-1.491891,-0.002514,0.033668,0.000048,-0.086143,0.006793,-0.996260,0.000373,-0.001315,-0.000292,-43.203674,231.077621,-111.715683,,,,,,
1465846417.46,-0.085951,-0.006775,-1.491901,0.001747,0.033668,-0.001013,-0.085844,0.006775,-0.996286,-0.003527,-0.000550,-0.001349,-43.203674,231.077621,-111.715683,,,,,,
1465846417.47,-0.085654,-0.006777,-1.491913,-0.000369,0.044287,-0.001081,-0.085547,0.006777,-0.996311,-0.007272,-0.000353,-0.002438,-43.134628,231.074936,-111.747879,,,,,,
1465846417.48,-0.085139,-0.006789,-1.491920,0.000727,0.070827,-0.000182,-0.085034,0.006789,-0.996355,-0.007587,0.001145,0.003252,-43.134628,231.074936,-111.747879,,,,,,
1465846417.49,-0.084369,-0.006799,-1.491932,-0.002425,0.104806,-0.000399,-0.084267,0.006799,-0.996420,-0.012504,-0.000818,0.004294,-43.134628,231.074936,-111.747879,,,,,,
1465846417.50,-0.083236,-0.006821,-1.491950,-0.000253,0.136661,-0.001661,-0.083138,0.006820,-0.996515,-0.010367,0.000824,0.003030,-43.047886,231.075897,-111.779320,,,,,,
1465846417.51,-0.081766,-0.006851,-1.491981,-0.001283,0.163209,-0.002893,-0.081673,0.006851,-0.996636,-0.007377,0.000519,0.002831,-43.047886,231.075897,-111.779320,,,,,,
1465846417.52,-0.080058,-0.006869,-1.492007,-0.001261,0.180197,-0.002999,-0.079971,0.006869,-0.996774,-0.004654,0.000394,0.001900,-43.047886,231.075897,-111.779320,,,,,,
1465846417.53,-0.078216,-0.006896,-1.492041,-0.003373,0.194001,-0.003088,-0.078135,0.006896,-0.996919,-0.005682,-0.000304,0.001298,-43.047886,231.075897,-111.779320,,,,,,
1465846417.54,-0.076197,-0.006949,-1.492070,-0.004429,0.201434,-0.003136,-0.076121,0.006949,-0.997074,-0.000554,0.000955,-0.001308,-42.497959,231.082153,-111.976639,,,,,,
1465846417.55,-0.074116,-0.006998,-1.492097,-0.003367,0.200370,-0.002063,-0.074046,0.006998,-0.997230,0.001903,0.000998,-0.003746,-42.497959,231.082153,-111.976639,,,,,,
1465846417.56,-0.072156,-0.007037,-1.492131,-0.003375,0.192940,-0.003081,-0.072091,0.007037,-0.997373,-0.001624,0.000455,-0.002962,-42.497959,231.082153,-111.976639,,,,,,
1465846417.57,-0.070196,-0.007077,-1.492164,-0.003371,0.196125,-0.003101,-0.070136,0.007077,-0.997512,-0.001504,0.000126,-0.001313,-41.637310,231.097412,-112.268150,,,,,,
1465846417.58,-0.068109,-0.007086,-1.492199,-0.003345,0.216300,-0.003228,-0.068054,0.007086,-0.997656,-0.003449,-0.001318,0.000128,-41.637310,231.097412,-112.268150,,,,,,
1465846417.59,-0.065890,-0.007148,-1.492245,-0.003326,0.230106,-0.004379,-0.065841,0.007148,-0.997805,-0.005250,0.001489,0.000154,-41.637310,231.097412,-112.268150,,,,,,
1465846417.60,-0.063547,-0.007179,-1.492292,-0.004378,0.239662,-0.004440,-0.063503,0.007179,-0.997956,-0.004323,-0.000282,-0.000411,-41.197433,231.100708,-112.423492,,,,,,
1465846417.61,-0.061094,-0.007189,-1.492340,-0.004356,0.257712,-0.004553,-0.061054,0.007189,-0.998109,-0.006222,-0.001833,0.001969,-41.197433,231.100708,-112.423492,,,,,,
1465846417.62,-0.058447,-0.007204,-1.492384,-0.003258,0.285315,-0.003661,-0.058412,0.007204,-0.998267,-0.009703,-0.000918,0.003424,-40.704300,231.108261,-112.587471,,,,,,
1465846417.63,-0.055515,-0.007245,-1.492452,-0.004281,0.313992,-0.007035,-0.055485,0.007245,-0.998433,-0.010647,0.000324,0.004018,-40.704300,231.108261,-112.587471,,,,,,
1465846417.64,-0.052306,-0.007324,-1.492523,-0.005302,0.350090,-0.006198,-0.052280,0.007324,-0.998606,-0.014706,0.001679,0.004450,-40.704300,231.108261,-112.587471,,,,,,
,,,,,,,,,,,,,,,,29.719981,-95.399026,10.543806,-1.000000,-1.000000,1465846473.54
1465846417.65,-0.048720,-0.007392,-1.492597,-0.006307,0.397870,-0.006498,-0.048700,0.007392,-0.998786,-0.018805,0.000710,0.007636,-39.487457,231.117233,-113.001656,,,,,,
1465846417.66,-0.044577,-0.007456,-1.492681,-0.007290,0.461580,-0.007963,-0.044561,0.007456,-0.998979,-0.021967,-0.000483,0.012071,-39.487457,231.117233,-113.001656,,,,,,
1465846417.67,-0.039765,-0.007538,-1.492771,-0.008259,0.538028,-0.008444,-0.039753,0.007538,-0.999181,-0.027401,-0.000015,0.015905,-39.487457,231.117233,-113.001656,,,,,,
1465846417.68,-0.034118,-0.007647,-1.492881,-0.010277,0.622977,-0.011108,-0.034110,0.007647,-0.999389,-0.030724,0.000867,0.017303,-39.487457,231.117233,-113.001656,,,,,,
1465846417.69,-0.027496,-0.007743,-1.492991,-0.011240,0.705794,-0.010564,-0.027491,0.007743,-0.999592,-0.028524,-0.000968,0.015812,-37.505722,231.142334,-113.623756,,,,,,
1465846417.70,-0.020146,-0.007847,-1.493118,-0.012245,0.750395,-0.012973,-0.020144,0.007847,-0.999766,-0.014829,-0.000126,0.006114,-37.505722,231.142334,-113.623756,,,,,,
1465846417.71,-0.012577,-0.008025,-1.493228,-0.012259,0.741912,-0.009744,-0.012577,0.008025,-0.999889,-0.000622,0.002977,0.001521,-35.968147,231.157288,-114.089493,,,,,,
1465846417.72,-0.005784,-0.008142,-1.493365,-0.011298,0.650611,-0.014493,-0.005784,0.008142,-0.999950,0.028947,-0.000680,-0.022633,-35.968147,231.157288,-114.089493,,,,,,
1465846417.73,0.000042,-0.008250,-1.493464,-0.009284,0.565654,-0.009700,0.000042,0.008250,-0.999966,0.009891,0.001348,-0.013080,-35.968147,231.157288,-114.089493,,,,,,
1465846417.74,0.005736,-0.008343,-1.493566,-0.010329,0.579461,-0.010852,0.005736,0.008343,-0.999949,-0.003325,-0.000348,-0.004080,-34.382477,231.182816,-114.525833,,,,,,
1465846417.75,0.011921,-0.008469,-1.493684,-0.010234,0.654848,-0.011325,0.011921,0.008468,-0.999893,-0.017627,0.000916,0.008667,-34.382477,231.182816,-114.525833,,,,,,
1465846417.76,0.019150,-0.008609,-1.493799,-0.015445,0.745104,-0.011896,0.019148,0.008609,-0.999780,-0.028456,-0.001865,0.014199,-34.382477,231.182816,-114.525833,,,,,,
1465846417.77,0.027100,-0.008745,-1.493923,-0.013231,0.811996,-0.012314,0.027096,0.008745,-0.999595,-0.028286,0.000258,0.012763,-34.382477,231.182816,-114.525833,,,,,,
1465846417.78,0.035693,-0.008880,-1.494051,-0.014216,0.875705,-0.012714,0.035684,0.008880,-0.999324,-0.029840,0.001114,0.015681,-31.618441,231.221725,-115.241455,,,,,,
1465846417.79,0.044786,-0.009032,-1.494200,-0.017345,0.922434,-0.016204,0.044769,0.009032,-0.998957,-0.018142,-0.004408,0.005014,-31.618441,231.221725,-115.241455,,,,,,
1465846417.80,0.054292,-0.009186,-1.494346,-0.013042,0.959592,-0.015368,0.054263,0.009186,-0.998484,-0.023715,0.003998,0.012400,-29.767799,231.244293,-115.688210,,,,,,
1465846417.81,0.064313,-0.009367,-1.494487,-0.019355,1.019057,-0.015747,0.064266,0.009367,-0.997889,-0.029461,-0.003706,0.008036,-29.767799,231.244293,-115.688210,,,,,,
1465846417.82,0.075099,-0.009573,-1.494666,-0.019247,1.098703,-0.020505,0.075025,0.009573,-0.997136,-0.026502,0.000864,0.016240,-29.767799,231.244293,-115.688210,,,,,,
1465846417.83,0.086740,-0.009791,-1.494848,-0.021265,1.188955,-0.020008,0.086627,0.009790,-0.996193,-0.046237,0.000753,0.023521,-25.340374,231.302689,-116.622231,,,,,,
1465846417.84,0.099708,-0.010037,-1.495038,-0.023209,1.335487,-0.021994,0.099538,0.010037,-0.994983,-0.050633,-0.000057,0.028980,-25.340374,231.302689,-116.622231,,,,,,
1465846417.85,0.114077,-0.010308,-1.495252,-0.025168,1.469279,-0.023899,0.113824,0.010308,-0.993447,-0.053704,0.000434,0.033319,-25.340374,231.302689,-116.622231,,,,,,
1465846417.86,0.129764,-0.010608,-1.495468,-0.027125,1.605193,-0.025818,0.129393,0.010608,-0.991537,-0.062742,0.000928,0.032766,-22.558882,231.343063,-117.112328,,,,,,
1465846417.87,0.146958,-0.010923,-1.495692,-0.029068,1.755967,-0.025701,0.146421,0.010922,-0.989162,-0.065015,0.001666,0.042659,-22.558882,231.343063,-117.112328,,,,,,
1465846417.88,0.165416,-0.011247,-1.495923,-0.028918,1.871710,-0.028556,0.164653,0.011246,-0.986288,-0.046717,-0.001969,0.023733,-22.558882,231.343063,-117.112328,,,,,,
1465846417.90,0.202938,-0.011956,-1.496400,-0.032142,1.846231,-0.029464,0.201533,0.011956,-0.979409,-0.002787,-0.002419,-0.002784,-15.067549,231.450882,-118.098557,,,,,,
1465846417.89,0.184363,-0.011594,-1.496170,-0.029957,1.890826,-0.029741,0.183308,0.011594,-0.982987,-0.013783,0.000079,0.016328,-15.067549,231.450882,-118.098557,,,,,,
1465846417.91,0.221024,-0.012304,-1.496613,-0.026885,1.793138,-0.029125,0.219212,0.012304,-0.975600,-0.002415,-0.000219,-0.001268,-15.067549,231.450882,-118.098557,,,,,,
1465846417.92,0.238468,-0.012640,-1.496820,-0.028033,1.728366,-0.027656,0.236195,0.012640,-0.971623,0.004283,0.000544,-0.013438,-15.067549,231.450882,-118.098557,,,,,,
1465846417.94,0.271911,-0.013319,-1.497234,-0.029166,1.668914,-0.030477,0.268549,0.013318,-0.963174,-0.019434,-0.001920,-0.000647,-6.684292,231.578690,-118.618881,,,,,,
1465846417.93,0.255285,-0.012971,-1.497024,-0.027041,1.668907,-0.028346,0.252500,0.012970,-0.967510,0.001620,0.002197,-0.005802,-6.684292,231.578690,-118.618881,,,,,,
1465846417.95,0.289349,-0.013682,-1.497424,-0.029036,1.777209,-0.027963,0.285302,0.013681,-0.958340,-0.051949,-0.000711,0.019390,-6.684292,231.578690,-118.618881,,,,,,
1465846417.96,0.308259,-0.014057,-1.497625,-0.030976,1.924807,-0.031020,0.303370,0.014057,-0.952769,-0.052943,-0.000934,0.026240,-2.848394,231.641418,-118.650536,,,,,,
1465846417.97,0.328102,-0.014474,-1.497836,-0.033015,1.995951,-0.032532,0.322214,0.014473,-0.946556,-0.036142,-0.002221,0.021294,-2.848394,231.641418,-118.650536,,,,,,
1465846417.99,0.368735,-0.015310,-1.498252,-0.033973,2.078776,-0.034117,0.360393,0.015309,-0.932675,-0.043316,-0.001301,0.020687,1.327637,231.711624,-118.540161,,,,,,
1465846417.98,0.348164,-0.014877,-1.498051,-0.030863,2.009760,-0.034746,0.341134,0.014876,-0.939897,-0.032998,0.000306,0.011201,1.327637,231.711624,-118.540161,,,,,,
1465846418.00,0.390400,-0.015793,-1.498449,-0.038076,2.199829,-0.037009,0.380511,0.015793,-0.924642,-0.048602,-0.003067,0.016637,1.327637,231.711624,-118.540161,,,,,,
1465846418.01,0.413445,-0.016299,-1.498655,-0.037901,2.337866,-0.038939,0.401713,0.016298,-0.915620,-0.060283,-0.000872,0.034471,10.720982,231.879425,-117.731903,,,,,,
1465846418.02,0.437962,-0.016855,-1.498839,-0.044096,2.491831,-0.039911,0.424035,0.016854,-0.905489,-0.070260,-0.002862,0.031725,10.720982,231.879425,-117.731903,,,,,,
1465846418.03,0.464332,-0.017438,-1.499034,-0.043844,2.687211,-0.044330,0.447757,0.017437,-0.893985,-0.085056,0.000874,0.046420,10.720982,231.879425,-117.731903,,,,,,
1465846418.05,0.523459,-0.018746,-1.499393,-0.051838,3.100265,-0.050122,0.499792,0.018745,-0.865943,-0.072667,0.000176,0.045997,16.120853,231.985657,-116.904190,,,,,,
1465846418.04,0.492879,-0.018060,-1.499216,-0.048890,2.912310,-0.043618,0.473087,0.018059,-0.880831,-0.092090,-0.000328,0.054934,16.120853,231.985657,-116.904190,,,,,,
1465846418.06,0.555495,-0.019483,-1.499555,-0.056994,3.235114,-0.049908,0.527264,0.019482,-0.849478,-0.069790,-0.001706,0.046896,16.120853,231.985657,-116.904190,,,,,,
1465846418.07,0.588964,-0.020217,-1.499692,-0.053612,3.383768,-0.051901,0.555387,0.020215,-0.831347,-0.071500,0.000964,0.042574,29.256569,232.255936,-113.776299,,,,,,
1465846418.08,0.623265,-0.020974,-1.499796,-0.056754,3.425179,-0.052164,0.583561,0.020972,-0.811798,-0.016926,-0.000266,0.025086,29.256569,232.255936,-113.776299,,,,,,
1465846418.09,0.656309,-0.021713,-1.499898,-0.053781,3.246798,-0.052107,0.610053,0.021711,-0.792063,0.039941,-0.001478,-0.016119,29.256569,232.255936,-113.776299,,,,,,
1465846418.10,0.686635,-0.022368,-1.499965,-0.045645,2.950536,-0.044919,0.633780,0.022367,-0.773190,0.070612,0.002917,-0.035419,36.647228,232.414291,-111.285187,,,,,,
1465846418.11,0.713437,-0.022957,-1.499999,-0.041856,2.581018,-0.039404,0.654264,0.022955,-0.755917,0.116976,-0.003149,-0.069812,36.647228,232.414291,-111.285187,,,,,,
1465846418.12,0.736120,-0.023458,-1.499999,-0.034945,2.159461,-0.030367,0.671233,0.023455,-0.740876,0.138155,-0.004794,-0.089874,36.647228,232.414291,-111.285187,,,,,,
1465846418.13,0.753927,-0.023849,-1.500011,-0.027076,1.643419,-0.026058,0.684312,0.023847,-0.728799,0.186827,0.000170,-0.113440,48.524075,232.684006,-106.053688,,,,,,
1465846418.14,0.765756,-0.024130,-1.499990,-0.018282,1.026486,-0.014729,0.692880,0.024128,-0.720649,0.192679,-0.003452,-0.123650,48.524075,232.684006,-106.053688,,,,,,
1465846418.15,0.771875,-0.024277,-1.500010,-0.008313,0.487082,-0.010271,0.697274,0.024275,-0.716393,0.148413,-0.001616,-0.089713,48.524075,232.684006,-106.053688,,,,,,
1465846418.16,0.774007,-0.024361,-1.500002,-0.004494,0.140924,-0.004903,0.698799,0.024359,-0.714904,0.091179,-0.001166,-0.062120,51.538223,232.759033,-104.455009,,,,,,
1465846418.18,0.774006,-0.024398,-1.499997,0.000606,-0.030041,0.000432,0.698798,0.024395,-0.714903,0.019052,0.001209,-0.013185,51.538223,232.759033,-104.455009,,,,,,
1465846418.17,0.774253,-0.024386,-1.499999,-0.000416,0.000758,-0.001891,0.698975,0.024384,-0.714731,0.050629,0.001541,-0.027731,51.538223,232.759033,-104.455009,,,,,,
1465846418.19,0.773711,-0.024387,-1.499994,0.000608,-0.026858,0.001476,0.698587,0.024384,-0.715110,0.007422,0.000197,-0.004953,52.353634,232.788498,-103.982803,,,,,,
1465846418.21,0.773343,-0.024358,-1.500005,0.001682,-0.021547,0.000380,0.698324,0.024355,-0.715367,0.008936,-0.000674,-0.007106,52.353634,232.788498,-103.982803,,,,,,
1465846418.20,0.773538,-0.024376,-1.500000,0.001690,-0.015176,0.000340,0.698463,0.024374,-0.715231,0.006691,0.000056,-0.008722,52.353634,232.788498,-103.982803,,,,,,
1465846418.22,0.773016,-0.024347,-1.500010,0.001663,-0.036412,0.000473,0.698090,0.024344,-0.715596,-0.000428,-0.001883,-0.002971,52.353634,232.788498,-103.982803,,,,,,
1465846418.23,0.772668,-0.024320,-1.500022,0.002731,-0.032168,0.001512,0.697841,0.024318,-0.715839,-0.014675,-0.002299,0.002140,52.353634,232.788498,-103.982803,,,,,,
1465846418.24,0.772803,-0.024326,-1.500014,-0.001442,0.032610,-0.001028,0.697938,0.024323,-0.715745,-0.024797,-0.000886,0.011262,52.353634,232.788498,-103.982803,,,,,,
1465846418.25,0.773872,-0.024361,-1.500016,-0.002378,0.133484,-0.002726,0.698703,0.024358,-0.714997,-0.037127,-0.001623,0.018357,52.237389,232.779877,-104.060547,,,,,,
1465846418.26,0.776211,-0.024412,-1.500028,-0.003269,0.270460,-0.004650,0.700372,0.024409,-0.713361,-0.046044,0.000188,0.025662,52.237389,232.779877,-104.060547,,,,,,
1465846418.27,0.779972,-0.024483,-1.500040,-0.006282,0.412746,-0.006610,0.703049,0.024480,-0.710720,-0.051804,-0.003835,0.024258,52.237389,232.779877,-104.060547,,,,,,
1465846418.29,0.792541,-0.024786,-1.500045,-0.010081,0.772711,-0.013129,0.711921,0.024783,-0.701823,-0.053962,-0.002902,0.031687,52.575493,232.788940,-103.869827,,,,,,
1465846418.28,0.785301,-0.024638,-1.500034,-0.014590,0.577336,-0.009779,0.706823,0.024636,-0.706961,-0.066992,0.003440,0.036200,52.575493,232.788940,-103.869827,,,,,,
1465846418.30,0.801518,-0.025003,-1.500037,-0.016266,0.933049,-0.015205,0.718188,0.025000,-0.695400,-0.054934,0.000054,0.025707,52.575493,232.788940,-103.869827,,,,,,
1465846418.31,0.811864,-0.025233,-1.500049,-0.016094,1.066842,-0.018173,0.725340,0.025231,-0.687928,-0.045256,-0.001564,0.023774,55.086620,232.854202,-102.411896,,,,,,
1465846418.32,0.823416,-0.025520,-1.500040,-0.021269,1.182587,-0.021033,0.733233,0.025517,-0.679498,-0.048495,-0.000142,0.022470,55.086620,232.854202,-102.411896,,,,,,
1465846418.33,0.836216,-0.025838,-1.500037,-0.021095,1.317442,-0.024008,0.741865,0.025835,-0.670052,-0.070142,-0.000963,0.039299,55.086620,232.854202,-102.411896,,,,,,
1465846418.34,0.850928,-0.026205,-1.500048,-0.025079,1.529816,-0.029601,0.751634,0.026202,-0.659059,-0.095689,-0.002124,0.058672,57.227112,232.911346,-101.099815,,,,,,
1465846418.35,0.868490,-0.026698,-1.500090,-0.032110,1.844152,-0.045418,0.763083,0.026695,-0.645750,-0.200384,-0.008201,0.112684,57.227112,232.911346,-101.099815,,,,,,
1465846418.36,0.891397,-0.027238,-1.500044,-0.035605,2.470588,-0.038705,0.777662,0.027235,-0.628093,-0.253492,-0.003385,0.170863,57.227112,232.911346,-101.099815,,,,,,
1465846418.37,0.922683,-0.027986,-1.499998,-0.055765,3.351935,-0.059155,0.796912,0.027983,-0.603447,-0.248038,0.000383,0.189079,63.650528,233.101059,-96.728050,,,,,,
1465846418.39,1.009881,-0.030004,-1.499674,-0.078239,4.936195,-0.082951,0.846388,0.029999,-0.531722,-0.245512,-0.000519,0.230132,63.650528,233.101059,-96.728050,,,,,,
1465846418.38,0.962357,-0.028931,-1.499861,-0.067507,4.168482,-0.069610,0.820198,0.028927,-0.571348,-0.270988,-0.003964,0.218794,63.650528,233.101059,-96.728050,,,,,,
1465846418.40,1.064775,-0.031250,-1.499368,-0.092212,5.673105,-0.091845,0.874253,0.031245,-0.484465,-0.231568,0.001119,0.240400,70.048355,233.293930,-91.711418,,,,,,
1465846418.42,1.196279,-0.034120,-1.498336,-0.113884,7.045009,-0.116437,0.930143,0.034113,-0.365610,-0.107023,-0.001078,0.247584,70.048355,233.293930,-91.711418,,,,,,
1465846418.41,1.127213,-0.032634,-1.498924,-0.107223,6.423833,-0.106148,0.902739,0.032629,-0.428950,-0.169096,0.003550,0.263301,70.048355,233.293930,-91.711418,,,,,,
1465846418.43,1.270354,-0.035661,-1.497591,-0.125004,7.520696,-0.117303,0.954598,0.035654,-0.295755,-0.065011,0.007605,0.267648,88.397446,233.914383,-72.206398,,,,,,
1465846418.44,1.348279,-0.037183,-1.496712,-0.124565,7.858370,-0.126871,0.974671,0.037175,-0.220533,0.074661,0.006893,0.215238,88.397446,233.914383,-72.206398,,,,,,
1465846418.45,1.427193,-0.038627,-1.495686,-0.126709,7.857292,-0.120480,0.988969,0.038617,-0.143003,0.194244,0.005984,0.136488,88.397446,233.914383,-72.206398,,,,,,
1465846418.46,1.502888,-0.040052,-1.494601,-0.122941,7.443225,-0.131717,0.996895,0.040042,-0.067801,0.235817,0.002973,0.082358,97.692444,234.302475,-57.466072,,,,,,
1465846418.47,1.573573,-0.041303,-1.493491,-0.109754,6.936712,-0.118947,0.999143,0.041291,0.002774,0.222689,0.004592,0.069003,97.692444,234.302475,-57.466072,,,,,,
1465846418.48,1.640358,-0.042344,-1.492334,-0.112323,6.597978,-0.109374,0.996687,0.042332,0.069443,0.263521,0.005901,0.050689,97.692444,234.302475,-57.466072,,,,,,
1465846418.49,1.703638,-0.043289,-1.491191,-0.102169,6.213585,-0.101631,0.990261,0.043275,0.132328,0.308232,0.011046,-0.004367,108.817802,235.005234,-25.981461,,,,,,
1465846418.51,1.810947,-0.044627,-1.489136,-0.075315,4.747146,-0.064732,0.970335,0.044612,0.237613,0.415178,0.013722,-0.125613,108.817802,235.005234,-25.981461,,,,,,
1465846418.50,1.761209,-0.044079,-1.490101,-0.095517,5.584977,-0.091295,0.980972,0.044064,0.189080,0.340759,0.003818,-0.051294,108.817802,235.005234,-25.981461,,,,,,
1465846418.52,1.850032,-0.045017,-1.488456,-0.052302,3.573836,-0.055221,0.960293,0.045002,0.275341,0.595005,0.001476,-0.272854,108.817802,235.005234,-25.981461,,,,,,
1465846418.53,1.873446,-0.045284,-1.487896,-0.040576,1.900405,-0.036199,0.953572,0.045269,0.297745,0.596782,0.002171,-0.346298,110.986389,235.417740,-2.079132,,,,,,
1465846418.54,1.880344,-0.045469,-1.487709,-0.004240,0.321465,-0.018809,0.951487,0.045453,0.304313,0.441045,-0.000180,-0.244560,110.986389,235.417740,-2.079132,,,,,,
1465846418.55,1.876462,-0.045512,-1.487758,0.008480,-0.550319,0.000509,0.952659,0.045497,0.300617,0.229699,0.000585,-0.130176,110.986389,235.417740,-2.079132,,,,,,
1465846418.56,1.869919,-0.045499,-1.487844,0.007297,-0.639519,0.004261,0.954607,0.045483,0.294377,0.076705,0.000034,-0.023548,110.986389,235.417740,-2.079132,,,,,,
1465846418.57,1.864936,-0.045520,-1.487938,0.009679,-0.445198,-0.001213,0.956061,0.045505,0.289616,-0.026526,0.001874,0.013668,110.986389,235.417740,-2.079132,,,,,,
1465846418.58,1.862585,-0.045549,-1.487945,0.000463,-0.154257,-0.004112,0.956737,0.045533,0.287368,-0.119030,0.001922,0.072022,110.855003,235.488708,0.229340,,,,,,
1465846418.59,1.864167,-0.045607,-1.487908,-0.003254,0.275778,-0.007877,0.956279,0.045591,0.288879,-0.186122,-0.000517,0.097549,110.855003,235.488708,0.229340,,,,,,
1465846418.60,1.871618,-0.045704,-1.487711,-0.020538,0.918192,-0.017245,0.954096,0.045688,0.295995,-0.224955,-0.002292,0.127070,110.855003,235.488708,0.229340,,,,,,
1465846418.61,1.886477,-0.045889,-1.487377,-0.027023,1.676346,-0.030522,0.949584,0.045873,0.310137,-0.251281,-0.000280,0.147977,110.799011,235.514771,0.432552,,,,,,
1465846418.62,1.908959,-0.046137,-1.486897,-0.042034,2.433434,-0.040608,0.942362,0.046121,0.331401,-0.242502,-0.000222,0.153752,110.799011,235.514771,0.432552,,,,,,
1465846418.63,1.938542,-0.046406,-1.486265,-0.051821,3.113004,-0.049137,0.932136,0.046390,0.359126,-0.181449,-0.000186,0.139379,110.799011,235.514771,0.432552,,,,,,
1465846418.64,1.973467,-0.046755,-1.485480,-0.063966,3.598287,-0.063902,0.919012,0.046738,0.391449,-0.168616,-0.001130,0.123032,110.546059,235.586899,4.711529,,,,,,
1465846418.65,2.013189,-0.047098,-1.484600,-0.064403,4.092037,-0.071257,0.902728,0.047080,0.427628,-0.150546,-0.000007,0.153564,110.546059,235.586899,4.711529,,,,,,
1465846418.66,2.058031,-0.047493,-1.483590,-0.078635,4.617657,-0.082019,0.882634,0.047476,0.467656,-0.162954,-0.000402,0.154948,109.748535,235.697632,12.070324,,,,,,
1465846418.67,2.109113,-0.047865,-1.482362,-0.089516,5.261148,-0.097774,0.857589,0.047846,0.512105,-0.164428,0.005697,0.203288,109.748535,235.697632,12.070324,,,,,,
1465846418.68,2.167254,-0.048202,-1.481008,-0.100344,5.968313,-0.101156,0.826370,0.048183,0.561063,-0.170700,0.006962,0.236804,109.748535,235.697632,12.070324,,,,,,
1465846418.69,2.232693,-0.048428,-1.479393,-0.120671,6.727532,-0.113389,0.787903,0.048409,0.613894,-0.167420,0.005561,0.283476,104.502769,235.990524,33.637070,,,,,,
1465846418.70,2.305725,-0.048589,-1.477697,-0.120781,7.480365,-0.123432,0.741003,0.048570,0.669743,-0.120398,0.000014,0.307461,104.502769,235.990524,33.637070,,,,,,
1465846418.71,2.385672,-0.048587,-1.475754,-0.144410,8.142985,-0.140400,0.685149,0.048567,0.726782,-0.048827,0.007249,0.323542,104.502769,235.990524,33.637070,,,,,,
1465846418.72,2.470807,-0.048479,-1.473708,-0.140637,8.591088,-0.151723,0.620871,0.048460,0.782413,0.055536,0.006838,0.306744,104.502769,235.990524,33.637070,,,,,,
1465846418.73,2.558492,-0.048179,-1.471643,-0.148905,8.788590,-0.154034,0.549976,0.048161,0.833791,0.131283,0.006893,0.289210,88.303658,236.238663,64.323959,,,,,,
1465846418.75,2.736172,-0.046961,-1.467546,-0.143436,8.912804,-0.149485,0.393971,0.046943,0.917923,0.219951,0.015053,0.285308,88.303658,236.238663,64.323959,,,,,,
1465846418.74,2.647027,-0.047614,-1.469541,-0.157343,8.860783,-0.149173,0.474111,0.047596,0.879177,0.160364,0.011501,0.293293,88.303658,236.238663,64.323959,,,,,,
1465846418.76,2.825178,-0.046089,-1.465642,-0.150953,8.868200,-0.144955,0.310831,0.046073,0.949348,0.296118,0.004953,0.257943,74.906944,236.266998,79.439743,,,,,,
1465846418.78,2.990960,-0.044038,-1.462200,-0.129942,7.803184,-0.131868,0.149918,0.044024,0.987718,0.385818,0.003660,0.150115,74.906944,236.266998,79.439743,,,,,,
1465846418.77,2.911163,-0.045100,-1.463799,-0.142932,8.457305,-0.151950,0.228163,0.045084,0.972578,0.402604,0.014822,0.167192,74.906944,236.266998,79.439743,,,,,,
1465846418.79,3.064416,-0.043010,-1.460821,-0.113692,7.178833,-0.126872,0.077029,0.042997,0.996101,0.456769,0.017657,0.068092,42.181740,236.089111,101.125885,,,,,,
1465846418.80,3.130767,-0.041954,-1.459645,-0.108278,6.421730,-0.109345,0.010816,0.041941,0.999062,0.483111,0.002889,0.009468,42.181740,236.089111,101.125885,,,,,,
1465846418.81,-3.095524,-0.040967,-1.458683,-0.091443,5.431026,-0.091406,-0.046013,0.040956,0.998101,0.491326,0.015319,-0.073632,27.092508,235.933990,106.512741,,,,,,
1465846418.82,-3.049281,-0.040174,-1.457925,-0.069398,4.341588,-0.078165,-0.092106,0.040163,0.994939,0.504048,0.006925,-0.126882,27.092508,235.933990,106.512741,,,,,,
1465846418.83,-3.014023,-0.039496,-1.457372,-0.059080,3.252135,-0.057484,-0.127125,0.039485,0.991101,0.490162,0.006612,-0.170712,27.092508,235.933990,106.512741,,,,,,
1465846418.84,-2.989271,-0.039035,-1.456997,-0.033782,2.220014,-0.038212,-0.151618,0.039025,0.987669,0.448630,0.004951,-0.177167,15.548139,235.787781,109.115509,,,,,,
1465846418.85,-2.974618,-0.038745,-1.456748,-0.023342,1.215526,-0.025515,-0.166075,0.038736,0.985352,0.432326,0.010688,-0.220398,15.548139,235.787781,109.115509,,,,,,
1465846418.86,-2.969870,-0.038618,-1.456655,-0.005440,0.226946,-0.007588,-0.170752,0.038608,0.984557,0.394889,0.003063,-0.202895,15.548139,235.787781,109.115509,,,,,,
1465846418.87,-2.974691,-0.038728,-1.456696,0.012531,-0.705361,0.011050,-0.166003,0.038718,0.985365,0.365680,0.003838,-0.207975,15.548139,235.787781,109.115509,,,,,,
1465846418.88,-2.988110,-0.038973,-1.456879,0.025295,-1.550586,0.024879,-0.152765,0.038964,0.987494,0.351801,0.005165,-0.183905,6.491302,235.652847,110.315018,,,,,,
1465846418.90,-3.039171,-0.039953,-1.457602,0.049922,-3.105137,0.055942,-0.102162,0.039942,0.993966,0.295078,0.003103,-0.124764,6.491302,235.652847,110.315018,,,,,,
1465846418.89,-3.009837,-0.039423,-1.457160,0.044474,-2.378819,0.036479,-0.131272,0.039413,0.990563,0.329652,0.004823,-0.171425,6.491302,235.652847,110.315018,,,,,,
1465846418.91,-3.075418,-0.040641,-1.458181,0.067144,-3.800635,0.063515,-0.066071,0.040629,0.996987,0.312211,0.012059,-0.131204,14.364394,235.772263,109.311111,,,,,,
1465846418.93,3.112930,-0.042228,-1.459722,0.087632,-5.267039,0.088699,0.028633,0.042215,0.998698,0.262627,0.010244,-0.053401,14.364394,235.772263,109.311111,,,,,,
1465846418.92,-3.119164,-0.041389,-1.458868,0.074690,-4.565155,0.074704,-0.022408,0.041378,0.998892,0.298516,0.004796,-0.092825,14.364394,235.772263,109.311111,,,,,,
1465846418.94,3.056351,-0.043124,-1.460718,0.096578,-5.771406,0.094000,0.085059,0.043111,0.995443,0.240533,0.006175,0.010233,23.353636,235.893723,107.482903,,,,,,
1465846418.95,2.995803,-0.043986,-1.461869,0.101433,-6.122903,0.110047,0.145133,0.043971,0.988435,0.172952,0.001454,0.066268,23.353636,235.893723,107.482903,,,,,,
1465846418.96,2.932353,-0.044885,-1.463072,0.109619,-6.403197,0.102233,0.207507,0.044870,0.977204,0.159040,0.017829,0.091857,35.160427,236.030853,103.908554,,,,,,
1465846418.97,2.866995,-0.045712,-1.464399,0.112602,-6.559304,0.110666,0.270877,0.045696,0.961529,0.085996,0.003422,0.149799,35.160427,236.030853,103.908554,,,,,,
1465846418.98,2.801407,-0.046437,-1.465841,0.112624,-6.539135,0.112668,0.333302,0.046420,0.941677,0.074458,0.009702,0.172001,35.160427,236.030853,103.908554,,,,,,
1465846418.99,2.736125,-0.047053,-1.467200,0.106288,-6.513620,0.101858,0.394012,0.047036,0.917901,0.025529,0.009880,0.194632,35.160427,236.030853,103.908554,,,,,,
1465846419.00,2.672511,-0.047573,-1.468653,0.108704,-6.270494,0.109915,0.451556,0.047555,0.890975,-0.089084,-0.000085,0.246644,61.086056,236.245407,90.556122,,,,,,
1465846419.02,2.559439,-0.048311,-1.471292,0.088699,-5.263857,0.089744,0.549182,0.048292,0.834306,-0.150165,0.003649,0.242507,61.086056,236.245407,90.556122,,,,,,
1465846419.01,2.613402,-0.048023,-1.470034,0.101894,-5.774600,0.096154,0.503390,0.048005,0.862725,-0.100635,0.005432,0.252235,61.086056,236.245407,90.556122,,,,,,
1465846419.03,2.510641,-0.048561,-1.472470,0.085113,-4.741425,0.077948,0.589218,0.048542,0.806515,-0.182647,0.001782,0.239536,81.817238,236.290741,72.224899,,,,,,
1465846419.05,2.430985,-0.048761,-1.474349,0.057941,-3.503317,0.058447,0.651519,0.048741,0.757065,-0.237731,0.005229,0.212616,81.817238,236.290741,72.224899,,,,,,
1465846419.04,2.467692,-0.048668,-1.473506,0.068840,-4.133004,0.074116,0.623300,0.048649,0.780468,-0.212671,0.002834,0.228733,81.817238,236.290741,72.224899,,,,,,
1465846419.06,2.401557,-0.048788,-1.475123,0.052503,-2.747307,0.052636,0.673512,0.048769,0.737566,-0.267719,-0.003069,0.216703,88.439041,236.264465,64.042603,,,,,,
1465846419.07,2.379433,-0.048812,-1.475637,0.030010,-2.030535,0.032152,0.689663,0.048792,0.722485,-0.251857,0.005010,0.171253,88.439041,236.264465,64.042603,,,,,,
1465846419.08,2.364406,-0.048800,-1.475998,0.025576,-1.324428,0.025590,0.700442,0.048781,0.712041,-0.286929,-0.000426,0.182125,88.439041,236.264465,64.042603,,,,,,
1465846419.09,2.356751,-0.048816,-1.476212,0.010579,-0.566261,0.009111,0.705871,0.048796,0.706657,-0.284546,0.003297,0.160957,94.961418,236.205093,54.159912,,,,,,
1465846419.10,2.357206,-0.048765,-1.476190,-0.008621,0.248163,-0.000274,0.705552,0.048745,0.706980,-0.292069,-0.001184,0.166204,94.961418,236.205093,54.159912,,,,,,
1465846419.11,2.365458,-0.048788,-1.476016,-0.014023,1.012702,-0.018912,0.699693,0.048769,0.712777,-0.266465,0.001890,0.147864,94.961418,236.205093,54.159912,,,,,,
1465846419.13,2.402636,-0.048731,-1.475110,-0.038983,2.314520,-0.039875,0.672717,0.048711,0.738294,-0.203555,0.004694,0.121752,95.386429,236.195663,53.449486,,,,,,
1465846419.12,2.380943,-0.048743,-1.475625,-0.033365,1.713514,-0.027584,0.688574,0.048724,0.723528,-0.249151,-0.003314,0.144850,95.386429,236.195663,53.449486,,,,,,
1465846419.14,2.429720,-0.048697,-1.474478,-0.046857,2.823137,-0.046266,0.652479,0.048678,0.756242,-0.163099,-0.000109,0.118849,95.386429,236.195663,53.449486,,,,,,
1465846419.15,2.461277,-0.048633,-1.473697,-0.056928,3.269122,-0.057588,0.628295,0.048614,0.776455,-0.148833,0.003998,0.106373,90.972939,236.239105,60.488132,,,,,,
1465846419.16,2.497943,-0.048509,-1.472885,-0.060542,3.789396,-0.056597,0.599413,0.048490,0.798970,-0.138613,-0.000028,0.138713,90.972939,236.239105,60.488132,,,,,,
1465846419.17,2.538980,-0.048352,-1.471853,-0.079166,4.190820,-0.078293,0.566134,0.048333,0.822895,-0.055895,0.004279,0.098385,90.972939,236.239105,60.488132,,,,,,
1465846419.18,2.583225,-0.048114,-1.470806,-0.074553,4.481737,-0.074791,0.529189,0.048095,0.847140,-0.060515,-0.002868,0.128126,86.368835,236.265778,66.803558,,,,,,
1465846419.19,2.630237,-0.047853,-1.469702,-0.082701,4.766322,-0.082971,0.488800,0.047835,0.871084,-0.016464,0.006059,0.111765,86.368835,236.265778,66.803558,,,,,,
1465846419.20,2.679531,-0.047480,-1.468552,-0.084585,4.966995,-0.081038,0.445292,0.047462,0.894127,0.014471,0.006112,0.104790,86.368835,236.265778,66.803558,,,,,,
1465846419.22,2.781009,-0.046577,-1.466317,-0.086583,5.075294,-0.079590,0.352438,0.046560,0.934676,0.082804,0.004740,0.084870,72.094711,236.280609,81.961197,,,,,,
1465846419.21,2.730157,-0.047070,-1.467418,-0.087629,5.076380,-0.088114,0.399483,0.047053,0.915532,0.071281,0.007284,0.094966,72.094711,236.280609,81.961197,,,,,,
1465846419.23,2.831466,-0.046084,-1.465241,-0.080247,5.012680,-0.091965,0.304855,0.046068,0.951284,0.166763,0.001219,0.063365,72.094711,236.280609,81.961197,,,,,,
1465846419.25,2.922658,-0.045200,-1.463277,-0.069579,4.197180,-0.076195,0.216968,0.045184,0.975133,0.215833,0.033414,-0.020314,63.011879,236.247238,89.221985,,,,,,
1465846419.24,2.879484,-0.045670,-1.464207,-0.066798,4.701561,-0.088935,0.258848,0.045655,0.964839,0.224810,-0.036759,0.036184,63.011879,236.247238,89.221985,,,,,,
1465846419.26,2.961945,-0.044667,-1.462531,-0.067928,3.839310,-0.059047,0.178505,0.044652,0.982925,0.195885,0.012401,-0.003525,63.011879,236.247238,89.221985,,,,,,
1465846419.28,3.030169,-0.043605,-1.461244,-0.047651,3.033383,-0.050779,0.111088,0.043591,0.992854,0.294537,0.002521,-0.068294,45.146629,236.147125,99.700233,,,,,,
1465846419.27,2.998320,-0.044051,-1.461872,-0.070411,3.564293,-0.053066,0.142645,0.044037,0.988794,0.234217,0.023300,-0.065942,45.146629,236.147125,99.700233,,,,,,
1465846419.29,3.055115,-0.043213,-1.460729,-0.042188,2.301786,-0.041927,0.086289,0.043200,0.995333,0.292220,-0.014193,-0.082583,45.146629,236.147125,99.700233,,,,,,
1465846419.30,3.073202,-0.042971,-1.460405,-0.025957,1.680587,-0.025241,0.068274,0.042958,0.996741,0.255823,0.017147,-0.119666,37.976971,236.068222,102.826836,,,,,,
1465846419.31,3.086143,-0.042664,-1.460216,-0.034063,1.171967,-0.014609,0.055371,0.042651,0.997554,0.266849,0.044324,-0.165249,37.976971,236.068222,102.826836,,,,,,
1465846419.32,3.093220,-0.042448,-1.460056,-0.012517,0.520015,-0.012627,0.048310,0.042436,0.997931,0.314025,0.001678,-0.116095,37.976971,236.068222,102.826836,,,,,,
1465846419.33,3.092335,-0.042517,-1.460067,0.009880,-0.285928,0.000965,0.049193,0.042504,0.997885,0.279222,-0.030602,-0.154928,31.160984,235.976089,105.300003,,,,,,
1465846419.34,3.084017,-0.042747,-1.460177,0.029213,-0.988872,0.012844,0.057491,0.042734,0.997431,0.250309,-0.016748,-0.108729,31.160984,235.976089,105.300003,,,,,,
1465846419.35,3.070372,-0.043084,-1.460415,0.033913,-1.478380,0.021241,0.071094,0.043071,0.996539,0.215298,-0.002192,-0.115375,31.160984,235.976089,105.300003,,,,,,
1465846419.37,3.030726,-0.043666,-1.461132,0.035042,-2.247176,0.044160,0.110534,0.043652,0.992913,0.127061,0.028354,-0.110360,32.152634,236.004822,104.936859,,,,,,
1465846419.36,3.052431,-0.043368,-1.460684,0.028077,-1.882931,0.025902,0.088960,0.043355,0.995091,0.187651,0.035106,-0.106129,32.152634,236.004822,104.936859,,,,,,
1465846419.38,3.006063,-0.044022,-1.461609,0.046384,-2.547663,0.042862,0.134984,0.044007,0.989870,0.154017,-0.009767,-0.028093,32.152634,236.004822,104.936859,,,,,,
1465846419.39,2.976676,-0.044477,-1.462131,0.052103,-3.079633,0.047269,0.164007,0.044462,0.985457,0.163950,-0.006895,-0.052565,40.514610,236.102997,101.773056,,,,,,
1465846419.40,2.943139,-0.044867,-1.462812,0.048505,-3.379098,0.062981,0.196955,0.044852,0.979386,0.090520,0.041162,-0.066788,40.514610,236.102997,101.773056,,,,,,
1465846419.41,2.908716,-0.045381,-1.463476,0.067586,-3.468261,0.049721,0.230539,0.045366,0.972005,0.091848,-0.022676,0.040736,40.514610,236.102997,101.773056,,,,,,
1465846419.43,2.836623,-0.046206,-1.464998,0.069455,-3.662595,0.059457,0.299944,0.046190,0.952838,0.041822,-0.017915,0.042249,47.067829,236.160873,98.774872,,,,,,
1465846419.42,2.873090,-0.045766,-1.464221,0.052504,-3.581913,0.067450,0.265010,0.045750,0.963160,0.038426,0.017025,0.012930,47.067829,236.160873,98.774872,,,,,,
1465846419.44,2.799010,-0.046703,-1.465780,0.071425,-3.793192,0.058150,0.335555,0.046686,0.940863,0.045717,-0.011957,0.067789,47.067829,236.160873,98.774872,,,,,,
1465846419.45,2.760728,-0.047090,-1.466600,0.065012,-3.813364,0.058270,0.371312,0.047073,0.927314,-0.009236,0.008240,0.040673,61.268570,236.275177,90.354935,,,,,,
1465846419.46,2.723562,-0.047491,-1.467408,0.067321,-3.661541,0.062642,0.405503,0.047473,0.912860,-0.047746,0.015439,0.096631,61.268570,236.275177,90.354935,,,,,,
1465846419.47,2.689393,-0.047724,-1.468184,0.049658,-3.316441,0.058331,0.436448,0.047706,0.898464,-0.113633,0.010613,0.106312,61.268570,236.275177,90.354935,,,,,,
1465846419.48,2.659088,-0.047918,-1.468887,0.050140,-2.935248,0.053812,0.463467,0.047900,0.884819,-0.111202,0.023008,0.114830,68.173828,236.313644,85.158669,,,,,,
1465846419.49,2.632011,-0.048076,-1.469514,0.041998,-2.645354,0.045599,0.487248,0.048058,0.871940,-0.121861,-0.008049,0.116768,68.173828,236.313644,85.158669,,,,,,
1465846419.50,2.608143,-0.048200,-1.470074,0.039259,-2.284336,0.042268,0.507916,0.048181,0.860058,-0.152142,-0.000528,0.118503,68.173828,236.313644,85.158669,,,,,,
1465846419.52,2.573741,-0.048444,-1.470871,0.023401,-1.365834,0.023718,0.537191,0.048425,0.842070,-0.174840,-0.001413,0.121477,77.974350,236.313721,76.286591,,,,,,
1465846419.51,2.588619,-0.048352,-1.470530,0.033460,-1.835155,0.026672,0.524606,0.048333,0.849972,-0.153253,-0.012338,0.119648,77.974350,236.313721,76.286591,,,,,,
1465846419.53,2.564545,-0.048534,-1.471103,0.018721,-0.862515,0.014170,0.544910,0.048515,0.837090,-0.192585,0.002327,0.109306,77.974350,236.313721,76.286591,,,,,,
1465846419.55,2.558865,-0.048510,-1.471257,-0.004626,0.038982,0.003171,0.549656,0.048491,0.833982,-0.175694,0.018556,0.078783,80.676804,236.316772,73.412872,,,,,,
1465846419.54,2.559561,-0.048564,-1.471214,0.004423,-0.384685,0.006901,0.549074,0.048545,0.834362,-0.168978,0.006158,0.106220,80.676804,236.316772,73.412872,,,,,,
1465846419.56,2.573874,-0.049067,-1.470620,-0.012604,0.462725,-0.004819,0.537063,0.049048,0.842115,-0.140914,0.008798,0.079379,80.676804,236.316772,73.412872,,,,,,
1465846419.57,2.581404,-0.048967,-1.470459,-0.018500,0.850295,-0.010449,0.530709,0.048948,0.846139,-0.136117,0.002688,0.070868,80.538742,236.389496,73.330276,,,,,,
1465846419.58,2.592975,-0.048873,-1.470186,-0.023302,1.255923,-0.019384,0.520885,0.048854,0.852228,-0.117061,-0.005946,0.070395,80.538742,236.389496,73.330276,,,,,,
1465846419.59,2.608300,-0.048782,-1.469828,-0.027091,1.619082,-0.029117,0.507767,0.048763,0.860113,-0.106781,-0.007381,0.074213,80.538742,236.389496,73.330276,,,,,,
1465846419.60,2.627148,-0.048660,-1.469384,-0.032011,1.937633,-0.033248,0.491469,0.048641,0.869535,-0.077819,-0.008358,0.066393,79.061523,236.381393,74.946129,,,,,,
1465846419.61,2.648235,-0.048556,-1.468892,-0.033854,2.155321,-0.041002,0.473028,0.048537,0.879710,-0.047017,-0.005400,0.053533,79.061523,236.381393,74.946129,,,,,,
1465846419.62,2.671184,-0.048400,-1.468337,-0.041083,2.337949,-0.040026,0.452720,0.048381,0.890339,-0.061789,0.021184,0.036403,79.061523,236.381393,74.946129,,,,,,
1465846419.63,2.696516,-0.048173,-1.467794,-0.047157,2.589596,-0.040546,0.430028,0.048154,0.901531,-0.005498,0.012973,0.048176,72.633308,236.383560,81.185104,,,,,,
1465846419.65,2.751233,-0.047649,-1.466554,-0.044772,2.781802,-0.049200,0.380089,0.047631,0.923723,0.009575,-0.002617,0.041701,72.633308,236.383560,81.185104,,,,,,
1465846419.64,2.723477,-0.047903,-1.467180,-0.051254,2.719138,-0.041362,0.405574,0.047884,0.912807,-0.002436,-0.007082,0.039921,72.633308,236.383560,81.185104,,,,,,
1465846419.67,2.808478,-0.047112,-1.465338,-0.045724,2.876294,-0.046600,0.326625,0.047095,0.943980,0.109013,-0.000754,0.003301,68.093430,236.363342,85.085060,,,,,,
1465846419.66,2.779681,-0.047390,-1.465930,-0.046802,2.859318,-0.050753,0.353665,0.047373,0.934172,0.032673,-0.010782,0.029634,68.093430,236.363342,85.085060,,,,,,
1465846419.68,2.835964,-0.046894,-1.464721,-0.037439,2.684115,-0.049645,0.300562,0.046877,0.952610,0.112402,0.003339,-0.023838,68.093430,236.363342,85.085060,,,,,,
1465846419.70,2.843024,-0.046217,-1.465422,0.001765,-3.573889,-0.112545,0.293838,0.046200,0.954738,2.353455,0.045612,-0.784892,57.641151,236.324249,92.585968,,,,,,
1465846419.69,2.860073,-0.046203,-1.465942,-0.025870,2.236200,0.276769,0.277520,0.046187,0.959609,2.277809,-0.027464,-1.279006,57.641151,236.324249,92.585968,,,,,,
1465846419.71,2.747877,-0.047705,-1.466309,0.247329,-11.277821,0.091426,0.383186,0.047687,0.922439,0.243965,-0.053760,-0.243530,57.641151,236.324249,92.585968,,,,,,
1465846419.72,2.625523,-0.049036,-1.469723,0.242062,-11.832510,0.251374,0.492872,0.049017,0.868720,0.002352,-0.018758,0.553216,57.188187,236.233566,93.096848,,,,,,
1465846419.73,2.533882,-0.049209,-1.471664,0.092440,-8.224101,0.109375,0.570298,0.049190,0.819964,-0.053178,0.010350,0.534880,57.188187,236.233566,93.096848,,,,,,
1465846419.74,2.466798,-0.049575,-1.473227,0.131980,-6.420111,0.093830,0.623970,0.049554,0.779876,-0.161766,-0.022317,0.398805,76.468414,236.411636,77.497925,,,,,,
1465846419.75,2.401384,-0.049843,-1.474616,0.102963,-6.645182,0.088826,0.673604,0.049822,0.737411,-0.196050,-0.033374,0.330018,76.468414,236.411636,77.497925,,,,,,
1465846419.76,2.331215,-0.050180,-1.475538,0.066144,-7.289417,-0.001906,0.723635,0.050159,0.688358,-1.936358,0.191190,0.228131,76.468414,236.411636,77.497925,,,,,,
1465846419.77,2.290357,-0.048588,-1.475827,-0.038206,-1.894871,0.155758,0.751208,0.048569,0.658276,-3.453631,-0.188187,2.753192,76.468414,236.411636,77.497925,,,,,,
1465846419.78,2.354900,-0.046467,-1.478684,0.023674,8.821137,0.356854,0.707257,0.046450,0.705428,2.593478,0.054182,-0.983215,96.396545,236.363632,50.830601,,,,,,
1465846419.79,2.433544,-0.046561,-1.474341,-0.360164,6.409814,-0.341587,0.649648,0.046544,0.758809,0.629863,-0.011113,-0.778981,96.396545,236.363632,50.830601,,,,,,
1465846419.80,2.441063,-0.046433,-1.472978,0.064519,-0.772365,0.064729,0.643928,0.046417,0.763677,-0.455283,-0.148361,0.394816,96.396545,236.363632,50.830601,,,,,,
1465846419.81,2.423380,-0.048385,-1.475255,0.247831,-1.589854,0.000850,0.657270,0.048366,0.752102,0.541949,-0.035121,-0.245892,90.359360,236.044052,62.146637,,,,,,
1465846419.82,2.424780,-0.047933,-1.473448,-0.212352,0.578929,-0.140945,0.656231,0.047914,0.753038,0.040547,-0.066652,-0.043565,90.359360,236.044052,62.146637,,,,,,
1465846419.83,2.436226,-0.048570,-1.473663,0.156581,1.211225,-0.015744,0.647548,0.048551,0.760476,0.106663,0.018878,0.022483,90.359360,236.044052,62.146637,,,,,,
1465846419.85,2.429971,-0.048914,-1.473799,0.073627,-1.165213,0.058686,0.652282,0.048894,0.756398,-0.110473,-0.016896,0.045055,91.208923,236.188690,60.329414,,,,,,
1465846419.84,2.439921,-0.049166,-1.473563,-0.049337,-0.028767,-0.041171,0.644716,0.049146,0.762841,-0.014482,-0.015577,-0.044625,91.208923,236.188690,60.329414,,,,,,
1465846419.86,2.421519,-0.049779,-1.474973,0.112619,-0.691575,0.021692,0.658623,0.049759,0.750826,0.123191,-0.000732,-0.031908,91.208923,236.188690,60.329414,,,,,,
1465846419.87,2.418571,-0.049649,-1.474545,-0.059146,-0.209269,-0.040049,0.660838,0.049629,0.748886,0.037022,0.085060,-0.112365,91.383659,236.338287,59.473152,,,,,,
1465846419.88,2.416827,-0.050007,-1.474759,0.069662,-0.162728,0.001301,0.662132,0.049986,0.747719,-0.118781,0.059908,0.044853,91.383659,236.338287,59.473152,,,,,,
1465846419.89,2.415541,-0.050055,-1.474929,-0.014413,-0.106455,0.016831,0.663091,0.050034,0.746865,0.014018,0.032959,-0.059228,91.383659,236.338287,59.473152,,,,,,
1465846419.90,2.414767,-0.049844,-1.474757,-0.015416,-0.080930,0.001768,0.663676,0.049823,0.746359,-0.020121,0.016827,-0.018973,91.383659,236.338287,59.473152,,,,,,
1465846419.91,2.414277,-0.049863,-1.474938,0.009127,-0.031049,0.005738,0.664041,0.049842,0.746033,-0.069009,-0.035483,0.079177,91.383659,236.338287,59.473152,,,,,,
1465846419.92,2.414963,-0.049641,-1.474973,-0.016273,0.110151,0.016536,0.663536,0.049621,0.746497,-0.012917,-0.039718,0.038705,91.383659,236.338287,59.473152,,,,,,
1465846419.93,2.416934,-0.049596,-1.474997,-0.002267,0.220607,0.003083,0.662065,0.049576,0.747805,0.009139,-0.022690,0.034192,91.793243,236.323807,58.897118,,,,,,
1465846419.94,2.419430,-0.049501,-1.474846,-0.020298,0.255690,-0.009928,0.660199,0.049481,0.749459,-0.027417,-0.033917,0.049415,91.793243,236.323807,58.897118,,,,,,
1465846419.95,2.423088,-0.049542,-1.474712,0.002273,0.413905,-0.017284,0.657452,0.049522,0.751867,-0.029461,-0.050223,0.074656,91.528900,236.312851,59.350700,,,,,,
1465846419.96,2.428766,-0.049733,-1.474537,-0.000653,0.615670,-0.026004,0.653166,0.049713,0.755581,0.014803,-0.046661,0.014805,91.528900,236.312851,59.350700,,,,,,
1465846419.97,2.435459,-0.050034,-1.474251,0.015388,0.649678,-0.040039,0.648085,0.050013,0.759924,0.008669,-0.016245,-0.034613,90.880836,236.346268,60.207367,,,,,,
1465846419.98,2.441446,-0.050440,-1.474166,0.021678,0.581702,-0.033220,0.643510,0.050419,0.763775,0.058562,0.016110,-0.058926,90.880836,236.346268,60.207367,,,,,,
1465846419.99,2.446303,-0.050700,-1.473951,0.004465,0.441549,-0.031294,0.639784,0.050678,0.766882,0.043550,0.044811,-0.065695,90.880836,236.346268,60.207367,,,,,,
1465846420.00,2.449704,-0.050907,-1.473877,0.013858,0.316208,-0.014531,0.637166,0.050886,0.769045,-0.023549,0.059024,-0.018694,90.880836,236.346268,60.207367,,,,,,
1465846420.01,2.447666,-0.057829,-1.474193,0.002073,0.288521,0.006906,0.638491,0.057797,0.767456,0.009061,0.086811,-0.090088,89.305237,236.488724,61.979618,,,,,,
1465846420.02,2.450074,-0.057584,-1.474194,-0.027857,0.217358,0.021160,0.636651,0.057552,0.769002,0.033546,0.104862,-0.137181,89.305237,236.488724,61.979618,,,,,,
1465846420.04,2.448899,-0.061525,-1.474534,-0.047326,0.033556,0.060603,0.637404,0.061486,0.768073,-0.043944,0.028465,-0.010352,88.330688,237.173233,60.748299,,,,,,
1465846420.03,2.448588,-0.062248,-1.474388,-0.040854,0.072886,0.043332,0.637614,0.062207,0.767840,-0.016383,0.066012,-0.072985,88.330688,237.173233,60.748299,,,,,,
1465846420.05,2.452222,-0.059901,-1.474556,-0.056772,0.151418,0.065178,0.634911,0.059865,0.770262,-0.024071,-0.011433,0.019044,88.330688,237.173233,60.748299,,,,,,
1465846420.06,2.454458,-0.059070,-1.474649,-0.057719,0.235318,0.058265,0.633218,0.059035,0.771719,-0.019922,-0.011352,-0.001257,88.330688,237.173233,60.748299,,,,,,
1465846420.07,2.457396,-0.058284,-1.474741,-0.055468,0.325582,0.053443,0.630978,0.058251,0.773611,-0.021892,-0.106225,0.086588,87.921677,237.312836,60.796478,,,,,,
1465846420.08,2.461303,-0.057764,-1.474707,-0.034038,0.390415,0.026446,0.627969,0.057731,0.776094,-0.029550,-0.079399,0.090880,87.921677,237.312836,60.796478,,,,,,
1465846420.10,2.471167,-0.054383,-1.474608,-0.033911,0.465855,0.008948,0.620401,0.054356,0.782399,-0.011880,-0.021504,0.024730,87.708794,237.176697,61.629486,,,,,,
1465846420.09,2.466539,-0.054716,-1.474726,-0.023336,0.431831,0.024074,0.624004,0.054689,0.779505,-0.003460,-0.043382,0.020071,87.708794,237.176697,61.629486,,,,,,
1465846420.11,2.476248,-0.054202,-1.474583,-0.008284,0.526362,0.009658,0.616424,0.054175,0.785549,-0.041259,-0.033057,0.039647,87.708794,237.176697,61.629486,,,,,,
1465846420.12,2.482042,-0.054064,-1.474513,-0.022030,0.589039,0.000736,0.611867,0.054038,0.789113,0.003978,-0.019187,-0.004201,87.708794,237.176697,61.629486,,,,,,
1465846420.13,2.488246,-0.053893,-1.474339,-0.024231,0.537006,0.004253,0.606965,0.053867,0.792901,-0.025055,0.000546,-0.009134,86.913559,236.799423,64.155060,,,,,,
1465846420.14,2.492990,-0.053665,-1.474351,-0.017973,0.456265,0.019668,0.603204,0.053639,0.795781,-0.023767,0.028331,-0.015508,86.913559,236.799423,64.155060,,,,,,
1465846420.15,2.496995,-0.053251,-1.474369,-0.036185,0.382984,0.029689,0.600025,0.053226,0.798208,0.003383,0.028958,-0.042517,86.913559,236.799423,64.155060,,,,,,
1465846420.16,2.500292,-0.052784,-1.474415,-0.033082,0.315018,0.033312,0.597405,0.052760,0.800202,-0.014443,0.006521,-0.017808,86.233124,236.762634,65.200516,,,,,,
1465846420.17,2.504295,-0.052154,-1.474408,-0.032067,0.272557,0.031451,0.594217,0.052130,0.802614,-0.019220,-0.003134,0.003554,86.233124,236.762634,65.200516,,,,,,
1465846420.18,2.506799,-0.051726,-1.474491,-0.028902,0.249196,0.031600,0.592218,0.051703,0.804117,-0.013010,-0.028327,0.000311,85.891327,236.669052,65.986755,,,,,,
1465846420.19,2.509035,-0.051388,-1.474518,-0.023613,0.202506,0.020190,0.590429,0.051365,0.805454,-0.006597,-0.022450,-0.004810,85.891327,236.669052,65.986755,,,,,,
1465846420.20,2.511821,-0.049746,-1.474498,-0.016204,0.160051,0.015144,0.588232,0.049726,0.807162,-0.011144,-0.023725,0.014615,85.891327,236.669052,65.986755,,,,,,
1465846420.21,2.513133,-0.049567,-1.474531,-0.014111,0.126081,0.012166,0.587177,0.049547,0.807941,-0.014057,-0.013246,-0.004535,85.891327,236.669052,65.986755,,,,,,
1465846420.22,2.515060,-0.048645,-1.474488,-0.016282,0.093171,0.012371,0.585646,0.048625,0.809107,-0.026442,-0.013866,-0.009882,85.563583,236.348801,67.542053,,,,,,
1465846420.23,2.515788,-0.048490,-1.474524,-0.006738,0.062374,0.012574,0.585061,0.048471,0.809540,-0.033211,-0.009484,0.001663,85.563583,236.348801,67.542053,,,,,,
1465846420.24,2.517187,-0.048142,-1.474549,-0.006786,0.024155,0.012814,0.583938,0.048124,0.810371,-0.026656,-0.004835,-0.004478,85.495224,236.233276,68.031013,,,,,,
1465846420.25,2.518020,-0.048400,-1.474569,-0.008978,-0.022564,0.015233,0.583255,0.048382,0.810847,-0.034488,0.006397,-0.017207,85.495224,236.233276,68.031013,,,,,,
1465846420.26,2.517567,-0.048244,-1.474660,-0.006890,-0.053360,0.016492,0.583627,0.048226,0.810589,-0.036264,0.003654,-0.010616,85.495224,236.233276,68.031013,,,,,,
1465846420.27,2.518739,-0.047892,-1.474681,-0.007955,-0.053350,0.016492,0.582686,0.047874,0.811286,-0.043395,-0.005058,-0.000937,85.495224,236.233276,68.031013,,,,,,
1465846420.28,2.519782,-0.047637,-1.474716,-0.003696,-0.051223,0.017547,0.581847,0.047619,0.811903,-0.048827,-0.004132,-0.012785,85.411896,236.186096,68.298943,,,,,,
1465846420.29,2.519472,-0.047494,-1.474808,-0.006852,-0.022550,0.016300,0.582102,0.047476,0.811728,-0.054103,-0.014319,-0.005118,85.411896,236.186096,68.298943,,,,,,
1465846420.30,2.519470,-0.047376,-1.474910,-0.002551,0.010364,0.016097,0.582107,0.047359,0.811732,-0.062851,-0.012477,0.005178,85.411896,236.186096,68.298943,,,,,,
1465846420.31,2.519882,-0.047289,-1.475017,-0.001428,0.051782,0.012645,0.581775,0.047271,0.811975,-0.057300,-0.011733,-0.006036,85.448303,236.087234,68.594566,,,,,,
1465846420.32,2.523053,-0.047328,-1.474963,-0.007766,0.092147,0.012385,0.579197,0.047311,0.813814,-0.065113,0.001441,-0.008577,85.448303,236.087234,68.594566,,,,,,
1465846420.33,2.524348,-0.047206,-1.475039,-0.005575,0.143109,0.013132,0.578146,0.047189,0.814568,-0.056616,-0.003671,-0.019936,85.218643,236.080597,68.902397,,,,,,
1465846420.34,2.526098,-0.047051,-1.475042,-0.012969,0.183473,0.008614,0.576724,0.047034,0.815584,-0.064181,-0.015158,-0.013643,85.218643,236.080597,68.902397,,,,,,
1465846420.35,2.528265,-0.046949,-1.475092,-0.001207,0.226996,0.010482,0.574957,0.046932,0.816836,-0.076956,-0.019573,-0.000293,85.218643,236.080597,68.902397,,,,,,
1465846420.36,2.531914,-0.047181,-1.475061,-0.010763,0.246122,0.009287,0.571967,0.047164,0.818920,-0.053672,0.004777,-0.034374,85.218643,236.080597,68.902397,,,,,,
1465846420.37,2.534386,-0.047009,-1.475054,-0.013956,0.245065,0.008226,0.569945,0.046992,0.820338,-0.048186,0.004140,-0.041606,84.643196,236.062210,69.670486,,,,,,
1465846420.38,2.536852,-0.046863,-1.475085,-0.010763,0.249302,0.011396,0.567925,0.046846,0.821746,-0.064339,-0.007906,-0.029663,84.643196,236.062210,69.670486,,,,,,
1465846420.40,2.542874,-0.045967,-1.475134,-0.010700,0.298150,0.010026,0.562989,0.045950,0.825186,-0.036363,-0.014792,-0.044348,84.345474,236.027893,70.146194,,,,,,
1465846420.39,2.539567,-0.046684,-1.475118,-0.013922,0.279031,0.012271,0.565696,0.046667,0.823292,-0.057945,-0.014075,-0.028477,84.345474,236.027893,70.146194,,,,,,
1465846420.41,2.546299,-0.045505,-1.475119,-0.007530,0.272680,0.005932,0.560172,0.045489,0.827127,-0.041053,-0.010486,-0.040215,84.345474,236.027893,70.146194,,,,,,
1465846420.42,2.550182,-0.045538,-1.475120,-0.001169,0.257807,0.010289,0.556954,0.045522,0.829295,-0.059762,-0.000508,-0.038462,84.345474,236.027893,70.146194,,,,,,
1465846420.43,2.553196,-0.045760,-1.475193,-0.005418,0.270544,0.013398,0.554447,0.045744,0.830961,-0.047199,0.004320,-0.060087,83.584030,235.886581,71.519524,,,,,,
1465846420.44,2.556234,-0.045613,-1.475246,-0.010754,0.265230,0.016619,0.551923,0.045597,0.832647,-0.049574,-0.002765,-0.062780,83.584030,235.886581,71.519524,,,,,,
1465846420.46,2.562426,-0.044696,-1.475483,-0.010721,0.293899,0.017505,0.546780,0.044681,0.836083,-0.032711,-0.010120,-0.067330,83.164276,235.890808,71.993362,,,,,,
1465846420.45,2.559787,-0.045133,-1.475356,-0.004364,0.275835,0.021881,0.548974,0.045118,0.834621,-0.058923,-0.011350,-0.053798,83.164276,235.890808,71.993362,,,,,,
1465846420.47,2.565470,-0.044465,-1.475570,-0.008608,0.284337,0.019696,0.544238,0.044451,0.837752,-0.048221,-0.004839,-0.069304,83.164276,235.890808,71.993362,,,,,,
1465846420.48,2.568721,-0.044022,-1.475705,-0.004335,0.298138,0.020678,0.541522,0.044008,0.839534,-0.049106,-0.011812,-0.064433,83.164276,235.890808,71.993362,,,,,,
1465846420.49,2.571828,-0.043450,-1.475827,-0.007500,0.318319,0.018421,0.538925,0.043436,0.841233,-0.039154,-0.014734,-0.068101,82.551346,235.708466,73.284431,,,,,,
1465846420.50,2.574739,-0.043149,-1.475962,0.001045,0.333190,0.014079,0.536481,0.043135,0.842809,-0.029187,-0.009673,-0.073660,82.551346,235.708466,73.284431,,,,,,
1465846420.51,2.577829,-0.042864,-1.476071,0.000009,0.349127,0.009720,0.533880,0.042851,0.844474,-0.030035,-0.010594,-0.074637,82.269554,235.607864,73.921982,,,,,,
1465846420.52,2.581160,-0.042623,-1.476146,0.002151,0.356563,0.007547,0.531070,0.042610,0.846256,-0.037509,-0.010688,-0.079593,82.269554,235.607864,73.921982,,,,,,
1465846420.53,2.584840,-0.042590,-1.476220,0.000040,0.372488,0.008510,0.527953,0.042577,0.848206,-0.041167,-0.004857,-0.092331,82.269554,235.607864,73.921982,,,,,,
1465846420.54,2.588669,-0.042479,-1.476288,-0.006344,0.383098,0.012695,0.524704,0.042466,0.850225,-0.024719,0.000701,-0.103490,82.269554,235.607864,73.921982,,,,,,
1465846420.55,2.592285,-0.042374,-1.476368,-0.004249,0.353369,0.011819,0.521629,0.042361,0.852120,-0.021201,-0.000506,-0.104135,81.379181,235.526733,75.155823,,,,,,
1465846420.56,2.595656,-0.042248,-1.476462,-0.006408,0.335311,0.015123,0.518756,0.042235,0.853878,-0.021441,-0.008467,-0.110196,81.379181,235.526733,75.155823,,,,,,
1465846420.57,2.598973,-0.042125,-1.476571,-0.004288,0.328936,0.016230,0.515923,0.042113,0.855599,-0.003075,-0.011107,-0.113152,80.914749,235.496887,75.748459,,,,,,
1465846420.58,2.600476,-0.041655,-1.476795,0.002065,0.304497,0.018519,0.514647,0.041643,0.856390,-0.000304,-0.015612,-0.104346,80.914749,235.496887,75.748459,,,,,,
1465846420.59,2.603163,-0.041613,-1.476989,0.007328,0.257772,0.019882,0.512345,0.041601,0.857772,0.002731,-0.010747,-0.110595,80.914749,235.496887,75.748459,,,,,,
1465846420.60,2.605394,-0.041547,-1.477159,0.001948,0.209999,0.018047,0.510431,0.041535,0.858915,0.019995,-0.001206,-0.131407,80.914749,235.496887,75.748459,,,,,,
1465846420.61,2.607379,-0.041469,-1.477379,0.006187,0.200429,0.022370,0.508727,0.041457,0.859929,0.000505,-0.010284,-0.119130,80.396194,235.401184,76.593376,,,,,,
1465846420.62,2.609174,-0.041415,-1.477572,0.002962,0.170709,0.019359,0.507183,0.041403,0.860843,0.022052,0.004587,-0.134342,80.396194,235.401184,76.593376,,,,,,
1465846420.63,2.610725,-0.041298,-1.477766,-0.000262,0.155831,0.024772,0.505850,0.041286,0.861633,0.006494,-0.004070,-0.136825,80.396194,235.401184,76.593376,,,,,,
1465846420.64,2.612258,-0.041192,-1.477985,0.000802,0.151589,0.022670,0.504530,0.041180,0.862411,0.028505,-0.006436,-0.132919,80.204201,235.374725,76.875473,,,,,,
1465846420.65,2.613561,-0.041047,-1.478152,-0.005617,0.125050,0.021766,0.503410,0.041036,0.863073,0.029503,-0.008809,-0.131109,80.204201,235.374725,76.875473,,,,,,
1465846420.66,2.614645,-0.040917,-1.478317,-0.002448,0.103815,0.020838,0.502476,0.040905,0.863623,0.033947,-0.006405,-0.138983,80.204201,235.374725,76.875473,,,,,,
1465846420.67,2.615777,-0.040727,-1.478490,-0.009891,0.121852,0.027104,0.501502,0.040715,0.864198,0.029504,-0.006475,-0.138215,79.990509,235.298920,77.328789,,,,,,
1465846420.69,2.613412,-0.040279,-1.478997,-0.008893,0.067676,0.027445,0.503554,0.040268,0.863025,0.027467,-0.007553,-0.151813,79.990509,235.298920,77.328789,,,,,,
1465846420.68,2.612716,-0.040484,-1.478811,-0.006709,0.101670,0.020848,0.504150,0.040473,0.862667,0.053665,-0.005057,-0.132122,79.990509,235.298920,77.328789,,,,,,
1465846420.70,2.614066,-0.040026,-1.479180,-0.015287,0.065553,0.028517,0.502995,0.040015,0.863363,0.060421,-0.002021,-0.147802,80.289574,235.237625,77.205284,,,,,,
1465846420.72,2.614132,-0.039505,-1.479644,-0.009015,-0.014109,0.037538,0.502948,0.039495,0.863414,0.050381,-0.003606,-0.148097,80.289574,235.237625,77.205284,,,,,,
1465846420.71,2.614294,-0.039762,-1.479371,-0.011108,0.005022,0.031029,0.502803,0.039751,0.863487,0.059529,-0.003039,-0.135200,80.289574,235.237625,77.205284,,,,,,
1465846420.73,2.614153,-0.039197,-1.479836,-0.019627,0.001844,0.029976,0.502936,0.039187,0.863435,0.088968,-0.001772,-0.142839,80.462708,235.107208,77.421997,,,,,,
1465846420.74,2.609992,-0.038367,-1.480246,-0.007953,-0.020516,0.037571,0.506541,0.038358,0.861362,0.048360,-0.017179,-0.122333,80.462708,235.107208,77.421997,,,,,,
1465846420.75,2.609840,-0.038105,-1.480515,-0.013262,-0.012013,0.035383,0.506677,0.038096,0.861294,0.077964,-0.008356,-0.148251,81.038193,234.966446,77.248863,,,,,,
1465846420.76,2.609425,-0.037761,-1.480732,-0.017575,-0.052365,0.037761,0.507041,0.037752,0.861095,0.090555,-0.011232,-0.142498,81.038193,234.966446,77.248863,,,,,,
1465846420.77,2.608344,-0.037511,-1.481009,-0.005954,-0.126694,0.037174,0.507976,0.037502,0.860554,0.085881,-0.005031,-0.137440,81.038193,234.966446,77.248863,,,,,,
1465846420.78,2.601649,-0.037162,-1.481447,-0.024019,-0.099107,0.036983,0.513733,0.037153,0.857146,0.080124,-0.002607,-0.150069,81.038193,234.966446,77.248863,,,,,,
1465846420.79,2.600811,-0.036773,-1.481607,-0.022926,-0.088469,0.029467,0.514458,0.036765,0.856727,0.109978,0.004983,-0.137916,82.063568,234.799484,76.671898,,,,,,
1465846420.80,2.599275,-0.036419,-1.481842,-0.017728,-0.171322,0.040636,0.515780,0.036411,0.855947,0.080976,-0.005665,-0.139013,82.063568,234.799484,76.671898,,,,,,
1465846420.81,2.597563,-0.035936,-1.482093,-0.032628,-0.156467,0.046915,0.517254,0.035928,0.855078,0.092579,-0.011774,-0.168981,82.063568,234.799484,76.671898,,,,,,
1465846420.82,2.589613,-0.035551,-1.482526,-0.026313,-0.215962,0.047294,0.524043,0.035544,0.850950,0.108297,0.001184,-0.132520,82.413635,234.707031,76.579475,,,,,,
1465846420.83,2.587587,-0.035051,-1.482766,-0.033724,-0.190461,0.041805,0.525774,0.035043,0.849902,0.089750,-0.010629,-0.158313,82.413635,234.707031,76.579475,,,,,,
1465846420.85,2.583998,-0.034033,-1.483136,-0.023084,-0.200016,0.039746,0.528840,0.034027,0.848039,0.118850,-0.018432,-0.109483,82.413635,234.707031,76.579475,,,,,,
1465846420.84,2.585858,-0.034487,-1.482913,-0.039024,-0.164986,0.045897,0.527254,0.034480,0.849008,0.121718,-0.006175,-0.135171,82.413635,234.707031,76.579475,,,,,,
1465846420.86,2.575012,-0.032836,-1.483558,-0.034847,-0.231914,0.045259,0.536460,0.032830,0.843287,0.114083,-0.021432,-0.152781,83.883316,234.464279,75.722504,,,,,,
1465846420.87,2.572866,-0.032325,-1.483780,-0.024194,-0.222372,0.048403,0.538278,0.032319,0.842147,0.130972,-0.005861,-0.088241,83.883316,234.464279,75.722504,,,,,,
1465846420.88,2.570287,-0.031820,-1.484079,-0.032771,-0.265907,0.050797,0.540457,0.031815,0.840770,0.116831,0.015457,-0.150432,85.033073,234.264435,75.055710,,,,,,
1465846420.89,2.567511,-0.031079,-1.484250,-0.055149,-0.272282,0.056137,0.542802,0.031074,0.839286,0.139052,0.012337,-0.171439,85.033073,234.264435,75.055710,,,,,,
1465846420.90,2.558901,-0.029886,-1.484755,-0.026453,-0.303136,0.062747,0.550028,0.029882,0.834612,0.120062,-0.016668,-0.103838,85.616737,234.137253,74.788574,,,,,,
1465846420.91,2.555879,-0.029186,-1.484968,-0.055179,-0.295671,0.056285,0.552559,0.029182,0.832963,0.150536,-0.004112,-0.156510,85.616737,234.137253,74.788574,,,,,,
1465846420.92,2.553148,-0.028425,-1.485212,-0.043441,-0.267023,0.061439,0.554844,0.028421,0.831469,0.132595,-0.014642,-0.108416,85.616737,234.137253,74.788574,,,,,,
1465846420.93,2.550480,-0.027689,-1.485511,-0.053021,-0.253235,0.068794,0.557072,0.027686,0.830003,0.129696,0.002695,-0.142945,85.616737,234.137253,74.788574,,,,,,
1465846420.94,2.540954,-0.026605,-1.485793,-0.069974,-0.206514,0.056776,0.564969,0.026602,0.824683,0.168414,-0.004523,-0.130332,87.544777,233.729141,73.826912,,,,,,
1465846420.95,2.538799,-0.025895,-1.485976,-0.045491,-0.216074,0.053667,0.566756,0.025893,0.823479,0.153306,-0.010954,-0.110222,87.544777,233.729141,73.826912,,,,,,
1465846420.96,2.536909,-0.025006,-1.485967,-0.079513,-0.183129,0.049169,0.568324,0.025004,0.822425,0.184026,-0.009715,-0.116248,87.544777,233.729141,73.826912,,,,,,
1465846420.97,2.534708,-0.024230,-1.486082,-0.050837,-0.234122,0.053775,0.570144,0.024228,0.821187,0.182053,-0.002332,-0.101980,-112.271523,231.477280,-84.790565,,,,,,
1465846420.98,2.523498,-0.023614,-1.486277,-0.083893,-0.277679,0.051887,0.579322,0.023612,0.814757,0.213113,0.007455,-0.139403,-112.271523,231.477280,-84.790565,,,,,,
1465846420.99,2.520193,-0.022669,-1.486356,-0.061639,-0.346733,0.061922,0.582024,0.022668,0.812855,0.189567,-0.005623,-0.093724,-112.271523,231.477280,-84.790565,,,,,,
1465846421.00,2.516724,-0.021734,-1.486400,-0.082925,-0.344590,0.058694,0.584853,0.021732,0.810848,0.227983,0.001400,-0.117748,-113.152557,231.676743,-83.056900,,,,,,
1465846421.01,2.512661,-0.020751,-1.486424,-0.071324,-0.434847,0.058207,0.588155,0.020749,0.808482,0.222224,-0.005796,-0.070933,-113.152557,231.676743,-83.056900,,,,,,
1465846421.02,2.500875,-0.019824,-1.486443,-0.092620,-0.459257,0.044501,0.597654,0.019822,0.801509,0.259570,0.002150,-0.135784,-113.152557,231.676743,-83.056900,,,,,,
1465846421.03,2.495968,-0.018882,-1.486403,-0.066090,-0.509211,0.057614,0.601590,0.018881,0.798582,0.222949,0.001642,0.010760,-114.445717,232.187500,-79.794754,,,,,,
1465846421.04,2.490484,-0.017950,-1.486309,-0.093810,-0.559066,0.045126,0.605971,0.017949,0.795284,0.250978,-0.006627,-0.092785,-114.445717,232.187500,-79.794754,,,,,,
1465846421.06,2.477736,-0.015870,-1.485911,-0.087608,-0.702422,0.049225,0.616082,0.015869,0.787522,0.286170,-0.010102,-0.055894,-115.029808,232.429230,-78.235855,,,,,,
1465846421.05,2.484514,-0.016833,-1.486065,-0.094954,-0.615353,0.049736,0.610720,0.016832,0.791668,0.282713,-0.010454,-0.097454,-115.029808,232.429230,-78.235855,,,,,,
1465846421.07,2.469506,-0.014744,-1.485809,-0.097417,-0.865964,0.060885,0.622553,0.014744,0.782439,0.266714,-0.012455,-0.003081,-115.029808,232.429230,-78.235855,,,,,,
1465846421.08,2.459394,-0.013519,-1.485521,-0.118945,-1.057069,0.058869,0.630444,0.013518,0.776117,0.371860,-0.003585,-0.132929,-115.793175,232.685593,-76.324409,,,,,,
1465846421.09,2.447520,-0.012226,-1.485452,-0.098966,-1.229141,0.078064,0.639625,0.012225,0.768590,0.344109,0.002438,0.004298,-115.793175,232.685593,-76.324409,,,,,,
1465846421.10,2.433900,-0.010955,-1.485363,-0.105578,-1.408579,0.078118,0.650043,0.010954,0.759818,0.312481,-0.008284,0.029122,-116.899330,232.976807,-73.704895,,,,,,
1465846421.11,2.418515,-0.009632,-1.485386,-0.098346,-1.570003,0.088717,0.661664,0.009632,0.749738,0.301104,-0.008594,0.028841,-116.899330,232.976807,-73.704895,,,,,,
1465846421.12,2.402936,-0.008176,-1.485257,-0.118547,-1.546633,0.088551,0.673273,0.008176,0.739349,0.308401,0.005236,0.032227,-116.899330,232.976807,-73.704895,,,,,,
1465846421.14,2.372606,-0.005198,-1.484708,-0.137674,-1.506293,0.094665,0.695398,0.005198,0.718606,0.258307,-0.024531,0.069114,-120.078461,233.661240,-66.027695,,,,,,
1465846421.13,2.387670,-0.006793,-1.485031,-0.120610,-1.518981,0.072409,0.684488,0.006793,0.728993,0.287405,0.001492,0.058575,-120.078461,233.661240,-66.027695,,,,,,
1465846421.15,2.357919,-0.003498,-1.484406,-0.150378,-1.444708,0.096395,0.705882,0.003498,0.708320,0.274907,0.006954,0.115379,-120.078461,233.661240,-66.027695,,,,,,
1465846421.17,2.331012,0.000039,-1.483334,-0.168259,-1.285402,0.085798,0.724687,-0.000039,0.689078,0.236799,-0.007102,0.198984,-121.633797,234.021942,-61.765823,,,,,,
1465846421.16,2.344086,-0.001717,-1.483957,-0.155600,-1.370367,0.091666,0.715616,0.001717,0.698492,0.288901,-0.008843,0.108759,-121.633797,234.021942,-61.765823,,,,,,
1465846421.18,2.318744,0.001699,-1.482776,-0.156424,-1.204682,0.074659,0.733085,-0.001699,0.680135,0.292947,-0.023066,0.118144,-121.633797,234.021942,-61.765823,,,,,,
1465846421.19,2.307628,0.003519,-1.481824,-0.197790,-1.079365,0.072768,0.740597,-0.003519,0.671940,0.237659,-0.011618,0.211818,-121.633797,234.021942,-61.765823,,,,,,
1465846421.20,2.297779,0.005069,-1.480925,-0.166700,-0.950832,0.046446,0.747174,-0.005069,0.664609,0.285266,0.014438,0.212145,-123.905540,234.819626,-53.695660,,,,,,
1465846421.21,2.288363,0.006497,-1.479876,-0.177327,-0.955039,0.033688,0.753392,-0.006497,0.657540,0.308376,-0.014652,0.166221,-123.905540,234.819626,-53.695660,,,,,,
1465846421.22,2.278272,0.007816,-1.478594,-0.177367,-1.017633,0.014921,0.759982,-0.007816,0.649897,0.217725,0.019412,0.323995,-123.905540,234.819626,-53.695660,,,,,,
1465846421.23,2.268107,0.008724,-1.477695,-0.115586,-1.013387,0.004311,0.766543,-0.008724,0.642134,0.289991,0.004742,0.232881,-125.521812,235.404312,-46.958981,,,,,,
1465846421.24,2.257710,0.009638,-1.476453,-0.166727,-1.062166,-0.009272,0.773171,-0.009638,0.634125,0.246834,-0.027029,0.229492,-125.521812,235.404312,-46.958981,,,,,,
1465846421.25,2.246341,0.010562,-1.475191,-0.150858,-1.147113,-0.010852,0.780323,-0.010562,0.625288,0.128384,0.014636,0.378313,-125.521812,235.404312,-46.958981,,,,,,
1465846421.26,2.235046,0.010979,-1.473294,-0.192126,-1.100100,-0.110182,0.787332,-0.010979,0.616431,-0.378702,0.062294,0.825860,-126.447845,235.534607,-43.708775,,,,,,
1465846421.27,2.226847,0.011156,-1.471528,-0.113964,-0.706289,-0.083834,0.792358,-0.011156,0.609954,-0.905532,-0.016814,1.168366,-126.447845,235.534607,-43.708775,,,,,,
1465846421.28,2.224021,0.011135,-1.470116,-0.136658,-0.124410,-0.087506,0.794079,-0.011135,0.607712,-1.180111,0.025508,1.312042,-126.447845,235.534607,-43.708775,,,,,,
1465846421.29,2.226359,0.011339,-1.468636,-0.101002,0.320415,-0.071100,0.792654,-0.011339,0.609566,-1.190786,0.026171,1.228584,-128.472778,235.423508,-38.034027,,,,,,
1465846421.30,2.229418,0.011196,-1.467948,-0.043664,0.242793,-0.040751,0.790787,-0.011195,0.611989,-1.157166,-0.003606,1.079051,-128.472778,235.423508,-38.034027,,,,,,
1465846421.31,2.229262,0.011666,-1.467814,-0.028250,-0.067493,0.045302,0.790878,-0.011666,0.611862,-1.118454,0.062935,1.115250,-128.472778,235.423508,-38.034027,,,,,,
1465846421.32,2.228828,0.011054,-1.468432,0.133743,-0.050404,-0.020640,0.791149,-0.011053,0.611524,-0.966808,0.046896,0.968829,-128.565674,235.326767,-38.317650,,,,,,
1465846421.33,2.229372,0.010884,-1.469756,0.080500,0.116030,0.085773,0.790818,-0.010884,0.611955,-0.801133,-0.081096,0.740478,-128.565674,235.326767,-38.317650,,,,,,
1465846421.34,2.233262,0.011110,-1.470141,0.023576,0.481474,0.027008,0.788429,-0.011110,0.615025,-0.585579,0.033800,0.717449,-128.565674,235.326767,-38.317650,,,,,,
1465846421.36,2.247245,0.010413,-1.472506,0.056760,0.656596,0.047232,0.779759,-0.010413,0.625993,0.152034,-0.014031,0.024504,-128.116714,235.421616,-39.227875,,,,,,
1465846421.35,2.240231,0.010612,-1.471468,0.163328,0.744652,0.054237,0.784128,-0.010612,0.620508,-0.260492,-0.003777,0.444800,-128.116714,235.421616,-39.227875,,,,,,
1465846421.37,2.251565,0.010284,-1.473442,0.110680,0.350773,0.048139,0.777048,-0.010284,0.629357,0.376776,0.016677,-0.192727,-128.116714,235.421616,-39.227875,,,,,,
1465846421.38,2.252766,0.009703,-1.474743,0.125226,0.036519,0.033093,0.776296,-0.009703,0.630294,0.574091,-0.002367,-0.439849,-127.336105,235.446930,-41.549019,,,,,,
1465846421.39,2.250398,0.009609,-1.475411,0.047035,-0.330831,0.037448,0.777787,-0.009609,0.628454,0.689803,-0.050816,-0.692694,-127.336105,235.446930,-41.549019,,,,,,
1465846421.40,2.244266,0.009573,-1.476226,0.067833,-0.712056,0.049440,0.781626,-0.009573,0.623673,0.709783,-0.039209,-0.791017,-126.903664,235.463074,-42.762825,,,,,,
1465846421.41,2.234872,0.009814,-1.476776,0.016358,-0.998728,0.055444,0.787449,-0.009814,0.616301,0.580990,-0.027021,-0.715896,-126.903664,235.463074,-42.762825,,,,,,
1465846421.42,2.224340,0.010281,-1.477215,0.002426,-1.051844,0.067472,0.793893,-0.010280,0.607971,0.470237,-0.045216,-0.653351,-126.903664,235.463074,-42.762825,,,,,,
1465846421.44,2.207091,0.012009,-1.477347,-0.053529,-0.644133,0.082955,0.804245,-0.012009,0.594177,0.047379,-0.011444,-0.180450,-127.606781,235.650436,-39.515045,,,,,,
1465846421.43,2.214453,0.011029,-1.477372,-0.050686,-0.954128,0.065742,0.799858,-0.011028,0.600088,0.269310,-0.033176,-0.465231,-127.606781,235.650436,-39.515045,,,,,,
1465846421.45,2.203952,0.013023,-1.477361,-0.070008,-0.198171,0.081206,0.806096,-0.013023,0.591641,0.004741,-0.011132,-0.124478,-127.606781,235.650436,-39.515045,,,,,,
1465846421.46,2.205083,0.014270,-1.477082,-0.097197,0.202131,0.082926,0.805413,-0.014270,0.592543,0.021919,-0.017331,-0.115812,-127.923035,235.872894,-37.090973,,,,,,
1465846421.47,2.208974,0.015469,-1.476728,-0.101146,0.438933,0.075051,0.803087,-0.015468,0.595661,0.023284,-0.009953,-0.081593,-127.923035,235.872894,-37.090973,,,,,,
1465846421.48,2.214115,0.016738,-1.476202,-0.125501,0.532407,0.065925,0.799997,-0.016738,0.599770,0.063437,-0.022035,-0.089257,-127.923035,235.872894,-37.090973,,,,,,
1465846421.49,2.219891,0.017897,-1.475517,-0.116864,0.589804,0.042155,0.796504,-0.017896,0.604369,0.056661,0.021466,-0.003493,-127.923035,235.872894,-37.090973,,,,,,
1465846421.50,2.225942,0.018673,-1.474781,-0.104017,0.598374,0.012310,0.792821,-0.018672,0.609168,0.025889,0.017040,0.038186,-126.927399,236.408020,-37.104500,,,,,,
1465846421.51,2.228017,0.019673,-1.473878,-0.121180,0.500674,0.015035,0.791540,-0.019671,0.610801,-0.017614,-0.012158,0.052819,-126.927399,236.408020,-37.104500,,,,,,
1465846421.52,2.232185,0.020444,-1.473049,-0.105332,0.387080,0.006183,0.788975,-0.020443,0.614085,-0.120671,0.039074,0.200688,-126.927399,236.408020,-37.104500,,,,,,
1465846421.53,2.235526,0.020927,-1.472554,-0.059630,0.320166,0.005584,0.786911,-0.020926,0.616711,-0.205277,0.054709,0.295947,-126.000153,236.717667,-38.272308,,,,,,
1465846421.54,2.238198,0.021256,-1.472094,-0.055449,0.233140,-0.009833,0.785255,-0.021254,0.618808,-0.224327,0.032149,0.349637,-126.000153,236.717667,-38.272308,,,,,,
1465846421.55,2.239148,0.021318,-1.471767,-0.017343,0.053676,-0.008669,0.784666,-0.021317,0.619552,-0.353193,-0.001938,0.454895,-125.755997,236.772186,-38.735344,,,,,,
1465846421.56,2.239077,0.021231,-1.471917,0.026204,-0.013271,0.003503,0.784711,-0.021229,0.619498,-0.382108,0.040593,0.490152,-125.755997,236.772186,-38.735344,,,,,,
1465846421.57,2.239041,0.020936,-1.472242,0.045395,-0.002645,-0.002931,0.784738,-0.020935,0.619474,-0.319711,0.009018,0.383425,-125.755997,236.772186,-38.735344,,,,,,
1465846421.58,2.234261,0.020631,-1.472618,0.057086,0.005772,0.012995,0.787695,-0.020630,0.615719,-0.201636,-0.008850,0.279102,-125.752441,236.760681,-38.817039,,,,,,
1465846421.59,2.233245,0.020421,-1.473075,0.043064,-0.144985,0.009668,0.788324,-0.020419,0.614921,-0.099008,-0.003323,0.197808,-125.752441,236.760681,-38.817039,,,,,,
1465846421.60,2.230145,0.020025,-1.473682,0.088585,-0.367963,0.002596,0.790233,-0.020023,0.612480,-0.029628,0.023441,0.146416,-125.752441,236.760681,-38.817039,,,,,,
1465846421.61,2.225295,0.019341,-1.474413,0.096962,-0.509137,-0.014605,0.793205,-0.019340,0.608648,0.040887,-0.008004,0.092142,-126.065239,236.695862,-38.192780,,,,,,
1465846421.62,2.223372,0.018528,-1.475053,0.072315,-0.615317,-0.001192,0.794386,-0.018527,0.607131,0.049959,0.032275,-0.049056,-126.065239,236.695862,-38.192780,,,,,,
1465846421.63,2.216984,0.018037,-1.475648,0.076526,-0.651424,0.000103,0.798255,-0.018036,0.602049,0.068429,-0.019364,-0.114302,-126.065239,236.695862,-38.192780,,,,,,
1465846421.64,2.210537,0.018035,-1.476236,0.034967,-0.621772,0.036067,0.802120,-0.018034,0.596890,0.195850,-0.036074,-0.191098,-126.065239,236.695862,-38.192780,,,,,,
1465846421.65,2.203056,0.018120,-1.476626,0.028377,-0.778921,0.039175,0.806562,-0.018119,0.590872,0.082720,-0.025979,-0.142569,-126.808517,236.569977,-36.473434,,,,,,
1465846421.66,2.195279,0.017992,-1.477103,0.041298,-0.706654,0.012123,0.811135,-0.017991,0.584583,0.071922,0.008958,-0.050189,-126.808517,236.569977,-36.473434,,,,,,
1465846421.67,2.189623,0.017985,-1.477425,0.025564,-0.489026,0.028838,0.814428,-0.017984,0.579986,-0.006154,0.005136,-0.092682,-126.808517,236.569977,-36.473434,,,,,,
1465846421.68,2.186520,0.018145,-1.477613,-0.011416,-0.266020,0.024210,0.816221,-0.018144,0.577454,0.084642,-0.049956,-0.189057,-127.239235,236.604782,-34.704781,,,,,,
1465846421.69,2.184326,0.018528,-1.477568,-0.019876,-0.209758,0.030235,0.817481,-0.018527,0.575658,0.099328,-0.014219,-0.190953,-127.239235,236.604782,-34.704781,,,,,,
1465846421.70,2.189005,0.018612,-1.477577,-0.031486,-0.166118,0.006531,0.814777,-0.018611,0.579476,0.057949,0.014018,-0.126824,-127.439354,236.647232,-33.665421,,,,,,
1465846421.72,2.193667,0.018253,-1.476816,-0.025181,0.570849,-0.026825,0.812072,-0.018252,0.583272,-0.095489,0.107317,0.050365,-127.439354,236.647232,-33.665421,,,,,,
1465846421.71,2.189690,0.018552,-1.477243,-0.010710,0.201372,-0.038331,0.814381,-0.018551,0.580034,0.038235,-0.005344,0.027174,-127.439354,236.647232,-33.665421,,,,,,
1465846421.73,2.199800,0.017914,-1.476459,-0.027217,0.636682,-0.029377,0.808484,-0.017913,0.588245,-0.096158,-0.095200,-0.086750,-127.284256,236.623749,-34.409130,,,,,,
1465846421.74,2.207298,0.018587,-1.475869,-0.094105,0.825652,-0.007211,0.804041,-0.018586,0.594283,0.121679,-0.021392,-0.056869,-127.284256,236.623749,-34.409130,,,,,,
1465846421.75,2.214780,0.018892,-1.475426,-0.044266,0.714054,0.025472,0.799567,-0.018891,0.600279,-0.076972,0.054154,-0.002226,-127.284256,236.623749,-34.409130,,,,,,
1465846421.76,2.221557,0.018851,-1.475122,-0.038920,0.662143,-0.017840,0.795482,-0.018850,0.605684,-0.028713,-0.014261,0.014967,-127.284256,236.623749,-34.409130,,,,,,
1465846421.77,2.228367,0.019279,-1.474670,-0.057013,0.722581,0.015826,0.791332,-0.019278,0.611082,-0.069607,-0.007791,0.022539,-126.404236,236.618790,-37.544441,,,,,,
1465846421.78,2.235778,0.019552,-1.474255,-0.056946,0.761891,0.007063,0.786778,-0.019550,0.616927,-0.110661,0.005100,0.105180,-126.404236,236.618790,-37.544441,,,,,,
1465846421.79,2.244848,0.020410,-1.473996,-0.051664,0.753361,0.022026,0.781136,-0.020409,0.624027,-0.065926,-0.025612,0.062466,-126.404236,236.618790,-37.544441,,,,,,
1465846421.80,2.251828,0.020870,-1.473551,-0.059202,0.670571,0.012957,0.776754,-0.020868,0.629458,-0.024862,0.022043,0.075971,-125.852966,236.664551,-39.076721,,,,,,
1465846421.81,2.257567,0.020928,-1.473459,-0.003967,0.535747,-0.005302,0.773128,-0.020927,0.633904,0.022327,0.032722,0.045127,-125.852966,236.664551,-39.076721,,,,,,
1465846421.82,2.261796,0.020988,-1.473289,-0.018025,0.364801,-0.003179,0.770440,-0.020986,0.637168,0.072105,0.011678,-0.031439,-125.071419,236.793625,-40.767441,,,,,,
1465846421.84,2.259660,0.022266,-1.472837,-0.001351,0.057939,-0.014008,0.771778,-0.022265,0.635502,0.074154,0.023638,-0.019337,-125.071419,236.793625,-40.767441,,,,,,
1465846421.83,2.258786,0.022258,-1.472978,-0.027848,0.176836,-0.000942,0.772333,-0.022256,0.634828,0.103949,-0.027914,-0.088686,-125.071419,236.793625,-40.767441,,,,,,
1465846421.85,2.260034,0.022036,-1.472664,0.002901,0.025068,-0.030829,0.771544,-0.022034,0.635795,0.071138,0.023636,0.004892,-124.599884,236.931259,-41.406685,,,,,,
1465846421.86,2.259894,0.021635,-1.472536,0.018814,-0.041798,-0.043167,0.771639,-0.021633,0.635692,0.098295,0.001873,-0.048046,-124.599884,236.931259,-41.406685,,,,,,
1465846421.87,2.256148,0.022346,-1.472272,-0.011189,-0.166071,-0.026448,0.774003,-0.022345,0.632787,0.020598,-0.018351,-0.046514,-124.599884,236.931259,-41.406685,,,,,,
1465846421.88,2.254772,0.022248,-1.471972,-0.012182,-0.116154,-0.031020,0.774875,-0.022246,0.631723,-0.032291,0.013106,0.054159,-124.750702,236.839584,-41.476933,,,,,,
1465846421.90,2.255018,0.021512,-1.471715,-0.004534,0.030386,-0.037253,0.774732,-0.021511,0.631924,0.000888,-0.014622,0.004566,-124.750702,236.839584,-41.476933,,,,,,
1465846421.89,2.254650,0.021833,-1.471912,0.028460,0.017634,-0.039269,0.774959,-0.021832,0.631634,-0.050975,0.032711,0.098926,-124.750702,236.839584,-41.476933,,,,,,
1465846421.91,2.254834,0.022379,-1.471504,0.005960,-0.086422,-0.034378,0.774834,-0.022377,0.631769,-0.003304,-0.023308,0.007361,-125.095932,236.785721,-40.738167,,,,,,
1465846421.92,2.253742,0.022111,-1.471307,-0.001505,-0.099154,-0.036434,0.775528,-0.022109,0.630926,-0.093750,0.009475,0.118738,-125.095932,236.785721,-40.738167,,,,,,
1465846421.93,2.253985,0.021840,-1.471193,0.014657,0.071756,-0.025781,0.775379,-0.021839,0.631118,-0.125248,0.015171,0.132157,-125.095932,236.785721,-40.738167,,,,,,
1465846421.94,2.255774,0.021688,-1.471163,-0.002246,0.198084,-0.013817,0.774251,-0.021686,0.632507,-0.052175,-0.018551,0.028397,-125.098595,236.839661,-40.415131,,,,,,
1465846421.95,2.259084,0.022429,-1.470956,-0.020372,0.185347,-0.009495,0.772140,-0.022427,0.635056,-0.025986,-0.013553,0.015777,-125.098595,236.839661,-40.415131,,,,,,
1465846421.96,2.260756,0.022242,-1.470876,0.010507,0.168375,-0.021067,0.771081,-0.022240,0.636349,-0.021630,0.014351,0.052891,-125.098595,236.839661,-40.415131,,,,,,
1465846421.97,2.262823,0.022030,-1.470672,-0.007499,0.224692,-0.033147,0.769767,-0.022028,0.637944,-0.025444,-0.004034,0.043330,-125.098595,236.839661,-40.415131,,,,,,
1465846421.98,2.265855,0.021838,-1.470368,-0.009493,0.330876,-0.034880,0.767833,-0.021837,0.640278,-0.036281,-0.003111,0.030071,-124.852592,236.835236,-41.194321,,,,,,
1465846421.99,2.271094,0.021456,-1.470093,-0.012598,0.398846,-0.037438,0.764474,-0.021454,0.644297,-0.022607,0.003784,0.016531,-124.852592,236.835236,-41.194321,,,,,,
1465846422.00,2.275048,0.021308,-1.469663,-0.025385,0.388237,-0.038449,0.761924,-0.021306,0.647316,0.005273,0.001897,-0.005791,-124.852592,236.835236,-41.194321,,,,,,
1465846422.01,2.278859,0.021090,-1.469269,-0.012614,0.367024,-0.048948,0.759455,-0.021088,0.650218,0.048422,-0.008331,0.003743,-124.604492,236.662628,-42.901966,,,,,,
1465846422.02,2.281476,0.020876,-1.468924,-0.012816,0.238490,-0.027917,0.757753,-0.020874,0.652207,0.001005,0.027680,-0.015259,-124.604492,236.662628,-42.901966,,,,,,
1465846422.03,2.281672,0.021414,-1.468574,-0.009725,0.127045,-0.046373,0.757617,-0.021413,0.652348,0.059079,-0.019740,-0.000569,-124.604492,236.662628,-42.901966,,,,,,
1465846422.04,2.282471,0.021265,-1.468400,0.009327,0.071760,-0.023654,0.757098,-0.021263,0.652955,-0.056292,0.030754,0.097457,-124.516968,236.574066,-43.638252,,,,,,
1465846422.05,2.282297,0.020995,-1.468408,0.012339,-0.042969,-0.003771,0.757216,-0.020994,0.652827,-0.062651,-0.013751,0.072668,-124.516968,236.574066,-43.638252,,,,,,
1465846422.06,2.281043,0.020988,-1.468374,-0.004817,-0.152303,-0.011618,0.758034,-0.020987,0.651877,-0.040490,-0.013666,0.055474,-124.484253,236.596588,-43.609421,,,,,,
1465846422.08,2.286132,0.019170,-1.469190,0.031227,-0.246832,0.010295,0.754734,-0.019169,0.655750,-0.097752,0.001576,0.118420,-124.484253,236.596588,-43.609421,,,,,,
1465846422.07,2.288476,0.019439,-1.468791,0.049421,-0.184174,0.002469,0.753191,-0.019438,0.657514,-0.119417,0.034574,0.203066,-124.484253,236.596588,-43.609421,,,,,,
1465846422.09,2.282888,0.019159,-1.469466,0.030021,-0.353024,0.015217,0.756858,-0.019158,0.653298,-0.110938,-0.004387,0.137366,-124.575821,236.377045,-44.528954,,,,,,
1465846422.11,2.283301,0.018617,-1.470643,0.050229,-0.368923,0.016401,0.756596,-0.018616,0.653618,-0.128361,0.001938,0.163979,-124.575821,236.377045,-44.528954,,,,,,
1465846422.10,2.279196,0.018915,-1.469961,0.058751,-0.370021,0.013224,0.759268,-0.018914,0.650503,-0.142309,0.028267,0.206339,-124.575821,236.377045,-44.528954,,,,,,
1465846422.12,2.279933,0.018473,-1.471141,0.052389,-0.330722,0.024680,0.758795,-0.018472,0.651068,-0.077017,0.004617,0.113092,-124.809708,236.382507,-43.839539,,,,,,
1465846422.13,2.276525,0.018258,-1.471765,0.059823,-0.347712,0.023729,0.761012,-0.018257,0.648481,-0.004344,0.002159,0.030123,-124.809708,236.382507,-43.839539,,,,,,
1465846422.14,2.272553,0.018070,-1.472341,0.056544,-0.417786,0.023101,0.763584,-0.018069,0.645455,0.063686,0.005694,-0.041879,-124.809708,236.382507,-43.839539,,,,,,
1465846422.15,2.262767,0.017538,-1.472851,0.062908,-0.444351,0.019015,0.769872,-0.017537,0.637958,0.099467,0.007253,-0.096759,-124.889328,236.391663,-43.562637,,,,,,
1465846422.16,2.258385,0.017260,-1.473403,0.058681,-0.430525,0.011473,0.772663,-0.017259,0.634581,0.108913,0.007264,-0.123595,-124.889328,236.391663,-43.562637,,,,,,
1465846422.17,2.254682,0.016888,-1.473873,0.062005,-0.347671,-0.001817,0.775013,-0.016888,0.631720,0.099667,0.016003,-0.121176,-124.889328,236.391663,-43.562637,,,,,,
1465846422.18,2.252237,0.016467,-1.474318,0.057925,-0.208567,-0.004822,0.776561,-0.016467,0.629827,0.072271,0.005465,-0.109335,-125.483475,236.341675,-42.102047,,,,,,
1465846422.20,2.245847,0.016696,-1.474755,0.016688,0.046216,0.008443,0.780566,-0.016695,0.624850,0.069653,-0.032865,-0.163165,-125.483475,236.341675,-42.102047,,,,,,
1465846422.19,2.245604,0.016780,-1.474547,0.038933,-0.062070,-0.001500,0.780717,-0.016779,0.624660,0.053740,-0.014639,-0.128459,-125.483475,236.341675,-42.102047,,,,,,
1465846422.21,2.246915,0.016796,-1.474784,-0.008763,0.133287,0.011065,0.779897,-0.016795,0.625682,0.053889,-0.020039,-0.141353,-125.906815,236.335327,-40.855179,,,,,,
1465846422.22,2.248814,0.016940,-1.474972,0.011521,0.198009,0.024517,0.778706,-0.016939,0.627160,0.006054,-0.000425,-0.029519,-125.906815,236.335327,-40.855179,,,,,,
1465846422.23,2.250928,0.017900,-1.475081,-0.023650,0.191622,0.037298,0.777365,-0.017899,0.628795,-0.020789,-0.013870,-0.014476,-125.906815,236.335327,-40.855179,,,,,,
1465846422.24,2.252883,0.018370,-1.475144,-0.021514,0.202230,0.040427,0.776128,-0.018369,0.630308,-0.075673,-0.006549,0.063830,-125.708130,236.375671,-41.231899,,,,,,
1465846422.26,2.258381,0.019064,-1.475584,0.008410,0.292465,0.040955,0.772641,-0.019063,0.634557,-0.077023,0.020955,0.131770,-125.708130,236.375671,-41.231899,,,,,,
1465846422.25,2.255440,0.018767,-1.475308,-0.009715,0.273362,0.041057,0.774508,-0.018766,0.632285,-0.104525,0.010313,0.135796,-125.708130,236.375671,-41.231899,,,,,,
1465846422.27,2.261488,0.019304,-1.475869,-0.001299,0.179945,0.034200,0.770662,-0.019303,0.636952,0.002883,-0.000015,0.032619,-124.828377,236.666565,-42.224163,,,,,,
1465846422.28,2.262459,0.019478,-1.476112,0.016690,0.075905,0.025290,0.770040,-0.019476,0.637698,-0.004476,0.011176,0.056379,-124.828377,236.666565,-42.224163,,,,,,
1465846422.29,2.263193,0.019375,-1.476424,0.030568,0.079128,0.009317,0.769574,-0.019374,0.638264,0.000003,0.023433,0.056835,-124.828377,236.666565,-42.224163,,,,,,
1465846422.30,2.264027,0.019179,-1.476714,0.034842,0.075967,-0.000239,0.769044,-0.019178,0.638908,0.001723,0.016813,0.047569,-124.500381,236.742126,-42.765472,,,,,,
1465846422.32,2.267727,0.018387,-1.477182,0.029610,0.139702,-0.005967,0.766686,-0.018386,0.641758,-0.064355,0.003005,0.064342,-124.500381,236.742126,-42.765472,,,,,,
1465846422.31,2.266580,0.018668,-1.476969,0.032721,0.074927,-0.004493,0.767418,-0.018667,0.640876,-0.023063,0.007070,0.039041,-124.500381,236.742126,-42.765472,,,,,,
1465846422.33,2.270316,0.018264,-1.477357,0.021272,0.300009,0.003664,0.765024,-0.018263,0.643743,-0.095254,-0.000734,0.086558,-124.309753,236.657181,-43.778130,,,,,,
1465846422.34,2.274403,0.018201,-1.477493,0.012932,0.443353,0.003821,0.762388,-0.018200,0.646865,-0.077237,-0.009281,0.058915,-124.309753,236.657181,-43.778130,,,,,,
1465846422.35,2.283706,0.017707,-1.477735,0.018347,0.524055,0.008641,0.756344,-0.017706,0.653935,-0.068798,0.011297,0.074672,-124.309753,236.657181,-43.778130,,,,,,
1465846422.36,2.288627,0.017803,-1.477963,0.004408,0.473049,0.025978,0.753115,-0.017802,0.657648,-0.008227,-0.024190,-0.008188,-124.000793,236.648682,-44.690842,,,,,,
1465846422.37,2.292866,0.018050,-1.478031,-0.011626,0.414672,0.021006,0.750317,-0.018049,0.660832,0.013233,-0.019137,-0.037312,-124.000793,236.648682,-44.690842,,,,,,
1465846422.38,2.297022,0.018122,-1.478203,0.013942,0.415739,0.014638,0.747563,-0.018121,0.663943,0.020778,0.020333,0.013150,-124.000793,236.648682,-44.690842,,,,,,
1465846422.39,2.297210,0.017773,-1.478226,-0.001037,0.343549,0.006559,0.747443,-0.017772,0.664088,0.089333,0.010524,-0.062708,-122.861488,236.671524,-47.620441,,,,,,
1465846422.40,2.299484,0.017784,-1.478283,0.007294,0.187471,0.003288,0.745931,-0.017783,0.665786,0.116603,-0.003442,-0.111205,-122.861488,236.671524,-47.620441,,,,,,
1465846422.41,2.300500,0.017601,-1.478346,0.019973,0.079214,-0.015180,0.745256,-0.017600,0.666546,0.123915,0.019096,-0.093365,-122.861488,236.671524,-47.620441,,,,,,
1465846422.42,2.300746,0.017185,-1.478333,0.028441,0.004942,-0.035995,0.745098,-0.017184,0.666734,0.120991,0.031847,-0.078446,-122.790947,236.633484,-47.990025,,,,,,
1465846422.43,2.297253,0.016619,-1.478159,0.017745,-0.035415,-0.036818,0.747430,-0.016618,0.664133,0.064918,0.003465,-0.053812,-122.790947,236.633484,-47.990025,,,,,,
1465846422.44,2.296717,0.016182,-1.478122,0.026237,-0.054535,-0.035625,0.747791,-0.016181,0.663737,-0.005054,-0.002190,0.021230,-122.790947,236.633484,-47.990025,,,,,,
1465846422.45,2.296516,0.015783,-1.478063,0.023092,-0.006767,-0.030605,0.747929,-0.015783,0.663591,-0.053273,0.015356,0.075148,-123.231842,236.427826,-47.873398,,,,,,
1465846422.46,2.296413,0.015314,-1.478211,0.042235,-0.019527,-0.027313,0.748003,-0.015314,0.663519,-0.059648,0.004221,0.090677,-123.231842,236.427826,-47.873398,,,,,,
1465846422.47,2.297077,0.014936,-1.478156,0.015577,-0.063021,-0.034518,0.747566,-0.014936,0.664019,-0.016731,-0.000720,0.028181,-123.231842,236.427826,-47.873398,,,,,,
1465846422.48,2.296250,0.014300,-1.478155,0.049652,-0.089533,-0.052413,0.748122,-0.014299,0.663407,-0.015853,0.014498,0.062438,-123.385864,236.324295,-47.987652,,,,,,
1465846422.49,2.295152,0.013593,-1.478100,0.036849,-0.117122,-0.056511,0.748857,-0.013593,0.662592,-0.007021,0.016736,0.046865,-123.385864,236.324295,-47.987652,,,,,,
1465846422.50,2.293767,0.012925,-1.477980,0.036830,-0.137287,-0.059578,0.749781,-0.012925,0.661560,-0.016612,-0.006637,0.028366,-123.385864,236.324295,-47.987652,,,,,,
1465846422.51,2.294772,0.012055,-1.477963,0.044313,-0.085301,-0.041801,0.749124,-0.012055,0.662321,-0.034005,0.003922,0.044253,-123.971466,236.016403,-47.993771,,,,,,
1465846422.52,2.293654,0.011353,-1.477920,0.034714,-0.123477,-0.057538,0.749870,-0.011353,0.661487,0.010139,0.002075,0.023159,-123.971466,236.016403,-47.993771,,,,,,
1465846422.53,2.292460,0.010841,-1.477831,0.036807,-0.122469,-0.038382,0.750664,-0.010841,0.660595,-0.001259,-0.004571,0.003513,-123.971466,236.016403,-47.993771,,,,,,
1465846422.54,2.290657,0.010054,-1.477892,0.049536,-0.195678,-0.060264,0.751860,-0.010054,0.659247,0.026537,0.003417,-0.003348,-124.264450,235.817230,-48.214443,,,,,,
1465846422.55,2.289159,0.009318,-1.477813,0.036737,-0.187222,-0.043299,0.752851,-0.009318,0.658125,0.007814,-0.014928,0.030245,-124.264450,235.817230,-48.214443,,,,,,
1465846422.56,2.287077,0.008528,-1.478119,0.075038,-0.224381,-0.051543,0.754226,-0.008528,0.656560,0.176988,0.008101,-0.190175,-124.264450,235.817230,-48.214443,,,,,,
1465846422.57,2.284294,0.007854,-1.477780,0.006852,-0.294364,-0.073526,0.756054,-0.007854,0.654462,0.070194,0.021816,-0.078046,-125.050217,235.472122,-47.868454,,,,,,
1465846422.58,2.281421,0.006955,-1.477668,0.068659,-0.260404,-0.078999,0.757936,-0.006955,0.652292,-0.013109,-0.001116,-0.015786,-125.050217,235.472122,-47.868454,,,,,,
1465846422.59,2.279399,0.006271,-1.477516,0.014413,-0.183983,-0.059308,0.759257,-0.006271,0.650761,-0.033701,-0.024460,0.006084,-125.050217,235.472122,-47.868454,,,,,,
1465846422.60,2.277807,0.005834,-1.477283,0.019742,-0.154299,-0.043522,0.760294,-0.005834,0.649553,-0.049860,0.000189,0.063140,-125.668526,235.253326,-47.321850,,,,,,
1465846422.61,2.276120,0.005270,-1.477333,0.038871,-0.178738,-0.040157,0.761391,-0.005270,0.648272,-0.015938,0.006948,0.048994,-125.668526,235.253326,-47.321850,,,,,,
1465846422.62,2.272329,0.004992,-1.477289,0.027068,-0.245643,-0.036555,0.763844,-0.004992,0.645381,0.035640,-0.005582,-0.022121,-125.668526,235.253326,-47.321850,,,,,,
1465846422.63,2.269288,0.004495,-1.477383,0.041864,-0.326359,-0.031776,0.765805,-0.004495,0.643057,0.074267,-0.005575,-0.073752,-126.503616,234.987778,-46.407375,,,,,,
1465846422.64,2.265408,0.004036,-1.477426,0.031120,-0.407045,-0.033410,0.768296,-0.004036,0.640082,0.091384,0.005715,-0.086356,-126.503616,234.987778,-46.407375,,,,,,
1465846422.65,2.260897,0.003470,-1.477457,0.040658,-0.460111,-0.043712,0.771178,-0.003470,0.636611,0.068361,0.015692,-0.061064,-126.503616,234.987778,-46.407375,,,,,,
1465846422.66,2.254640,0.002607,-1.477447,0.037503,-0.438865,-0.050236,0.775148,-0.002607,0.631775,0.040404,0.006193,-0.031463,-126.973724,234.872986,-45.699257,,,,,,
1465846422.67,2.250309,0.002007,-1.477498,0.041747,-0.435708,-0.040671,0.777878,-0.002007,0.628412,0.078766,-0.005378,-0.099695,-126.973724,234.872986,-45.699257,,,,,,
1465846422.68,2.245621,0.001465,-1.477467,0.029974,-0.490904,-0.044595,0.780815,-0.001465,0.624760,0.084800,-0.002121,-0.103154,-126.973724,234.872986,-45.699257,,,,,,
1465846422.69,2.240239,0.000926,-1.477407,0.029908,-0.547174,-0.046371,0.784167,-0.000926,0.620549,0.052853,0.009868,-0.041798,-128.318237,234.548050,-43.562714,,,,,,
1465846422.70,2.231307,0.000605,-1.477454,0.040526,-0.563136,-0.042001,0.789679,-0.000605,0.613520,0.065531,-0.008794,-0.080043,-128.318237,234.548050,-43.562714,,,,,,
1465846422.71,2.225680,0.000103,-1.477390,0.020303,-0.560997,-0.044164,0.793119,-0.000103,0.609067,0.050326,-0.002750,-0.049329,-128.318237,234.548050,-43.562714,,,,,,
1465846422.72,2.219979,-0.000403,-1.477352,0.031993,-0.573753,-0.040879,0.796578,0.000403,0.604535,0.019798,-0.001288,-0.013852,-129.089767,234.437805,-41.842686,,,,,,
1465846422.73,2.214113,-0.000857,-1.477330,0.021316,-0.588627,-0.035474,0.800111,0.000857,0.599852,-0.007752,-0.007800,0.023683,-129.089767,234.437805,-41.842686,,,,,,
1465846422.74,2.209467,-0.001325,-1.477282,0.022382,-0.589703,-0.032281,0.802888,0.001325,0.596128,-0.021928,0.003299,0.045581,-129.089767,234.437805,-41.842686,,,,,,
1465846422.76,2.198148,-0.002145,-1.477322,0.022438,-0.545108,-0.032560,0.809583,0.002145,0.587001,-0.010328,0.001822,0.028843,-130.359848,234.183151,-39.250782,,,,,,
1465846422.75,2.203685,-0.001749,-1.477320,0.026660,-0.572720,-0.031319,0.806321,0.001749,0.591476,-0.026139,0.005087,0.055375,-130.359848,234.183151,-39.250782,,,,,,
1465846422.77,2.192977,-0.002559,-1.477308,0.022482,-0.510068,-0.032780,0.812607,0.002559,0.582807,-0.010193,0.000035,0.024417,-130.359848,234.183151,-39.250782,,,,,,
1465846422.79,2.183525,-0.003307,-1.477282,0.021458,-0.473971,-0.030879,0.818077,0.003307,0.575099,0.019722,-0.001552,0.003240,-130.945847,234.079819,-37.893143,,,,,,
1465846422.78,2.188303,-0.002930,-1.477292,0.020380,-0.487768,-0.032922,0.815321,0.002930,0.579002,0.002840,-0.000442,0.014245,-130.945847,234.079819,-37.893143,,,,,,
1465846422.80,2.178817,-0.003701,-1.477269,0.021467,-0.471839,-0.034085,0.820775,0.003701,0.571240,0.047527,0.000236,-0.035672,-130.945847,234.079819,-37.893143,,,,,,
1465846422.81,2.174023,-0.004060,-1.477255,0.018249,-0.482470,-0.028700,0.823503,0.004060,0.567298,0.082457,-0.004304,-0.075461,-131.959625,233.877609,-35.552483,,,,,,
1465846422.82,2.165200,-0.004370,-1.477238,0.016092,-0.507966,-0.030671,0.828475,0.004370,0.560010,0.109270,-0.001516,-0.103451,-131.959625,233.877609,-35.552483,,,,,,
1465846422.83,2.159716,-0.004690,-1.477216,0.016018,-0.560006,-0.026087,0.831532,0.004690,0.555457,0.127407,-0.001714,-0.128470,-131.959625,233.877609,-35.552483,,,,,,
1465846422.84,2.153839,-0.004985,-1.477155,0.009594,-0.593971,-0.029073,0.834781,0.004985,0.550560,0.156354,-0.004192,-0.141578,-132.565094,233.790085,-33.834137,,,,,,
1465846422.85,2.147628,-0.005274,-1.477086,0.011673,-0.632200,-0.027767,0.838183,0.005273,0.545363,0.173719,-0.001932,-0.158614,-132.565094,233.790085,-33.834137,,,,,,
1465846422.86,2.139770,-0.005563,-1.477035,0.009502,-0.664063,-0.026505,0.842441,0.005563,0.538759,0.187008,0.000663,-0.167040,-132.565094,233.790085,-33.834137,,,,,,
1465846422.87,2.133118,-0.005849,-1.476992,0.013761,-0.664065,-0.026501,0.846005,0.005849,0.533143,0.210437,-0.001668,-0.173798,-133.643021,233.626907,-30.562599,,,,,,
1465846422.88,2.126545,-0.006165,-1.476925,0.009525,-0.652371,-0.030836,0.849489,0.006165,0.527570,0.219694,-0.000595,-0.182355,-133.643021,233.626907,-30.562599,,,,,,
1465846422.89,2.120220,-0.006613,-1.476524,-0.023364,-0.627813,-0.074665,0.852807,0.006613,0.522185,0.106498,-0.007223,-0.061339,-133.643021,233.626907,-30.562599,,,,,,
1465846422.91,2.113731,-0.007558,-1.476202,0.070912,-0.074819,-0.020559,0.856172,0.007558,0.516636,-0.063737,-0.020025,0.121959,-134.168518,233.544128,-28.844788,,,,,,
1465846422.92,2.109160,-0.006775,-1.475800,-0.063101,0.008103,-0.042499,0.858529,0.006775,0.512720,0.123160,-0.025803,-0.078577,-134.168518,233.544128,-28.844788,,,,,,
1465846422.90,2.115326,-0.007024,-1.475828,-0.025261,-0.418678,-0.061077,0.855350,0.007024,0.518003,-0.245639,0.031367,0.364519,-134.168518,233.544128,-28.844788,,,,,,
1465846422.93,2.107736,-0.006922,-1.475297,-0.008009,-0.196876,-0.032643,0.859257,0.006922,0.511497,-0.046010,0.017477,0.121728,-134.906937,233.412994,-26.354477,,,,,,
1465846422.94,2.105691,-0.007171,-1.475476,0.023915,-0.172538,-0.008281,0.860300,0.007171,0.509737,-0.084879,0.008362,0.166288,-134.906937,233.412994,-26.354477,,,,,,
1465846422.95,2.106346,-0.007250,-1.475291,-0.018243,0.152427,-0.022070,0.859966,0.007250,0.510300,0.034382,-0.003710,0.047119,-134.906937,233.412994,-26.354477,,,,,,
1465846422.96,2.110692,-0.007679,-1.475010,-0.002047,0.292652,-0.047416,0.857737,0.007679,0.514031,0.020666,0.003002,0.060142,-135.115692,233.346603,-25.868240,,,,,,
1465846422.98,2.117080,-0.008326,-1.474578,0.009779,0.401980,-0.036381,0.854431,0.008326,0.519498,-0.020966,-0.011621,0.075961,-135.115692,233.346603,-25.868240,,,,,,
1465846422.97,2.113483,-0.007986,-1.474695,-0.012729,0.278831,-0.038825,0.856297,0.007986,0.516422,-0.053776,0.014154,0.126629,-135.115692,233.346603,-25.868240,,,,,,
1465846422.99,2.122835,-0.008620,-1.474198,-0.021865,0.622880,-0.048443,0.851425,0.008619,0.524405,0.015716,0.011553,0.082193,-135.151352,233.155121,-27.365334,,,,,,
1465846423.00,2.129796,-0.008869,-1.473885,-0.005906,0.621799,-0.043097,0.847753,0.008869,0.530317,0.004634,-0.007511,0.060122,-135.151352,233.155121,-27.365334,,,,,,
1465846423.01,2.135609,-0.009092,-1.473535,-0.018754,0.577189,-0.035379,0.844654,0.009092,0.535236,0.026714,0.008974,0.075818,-135.151352,233.155121,-27.365334,,,,,,
1465846423.03,2.147228,-0.009334,-1.472593,-0.050572,0.675952,-0.036030,0.838376,0.009334,0.545012,0.035296,0.018574,0.098940,-134.985718,233.052094,-29.010948,,,,,,
1465846423.02,2.140944,-0.009312,-1.473217,-0.020952,0.524097,-0.033984,0.841785,0.009312,0.539733,0.018659,-0.030109,0.021638,-134.985718,233.052094,-29.010948,,,,,,
1465846423.04,2.153738,-0.009488,-1.472343,0.000439,0.602657,-0.033390,0.834809,0.009487,0.550457,0.042067,-0.021771,0.035297,-134.985718,233.052094,-29.010948,,,,,,
1465846423.05,2.158396,-0.009457,-1.471727,-0.065792,0.427495,-0.033422,0.832236,0.009457,0.554340,0.064721,0.001666,0.036388,-134.571106,232.898987,-32.011642,,,,,,
1465846423.06,2.162022,-0.009599,-1.471384,-0.002022,0.343569,-0.028575,0.830220,0.009599,0.557353,0.056026,0.012480,0.064900,-134.571106,232.898987,-32.011642,,,,,,
1465846423.07,2.165117,-0.009680,-1.471015,-0.046785,0.314911,-0.024182,0.828490,0.009680,0.559920,0.030320,0.000879,0.064973,-134.571106,232.898987,-32.011642,,,,,,
1465846423.08,2.168922,-0.010147,-1.470596,-0.009521,0.302172,-0.030453,0.826350,0.010147,0.563065,0.063207,0.012604,0.063308,-134.447647,232.838943,-32.953255,,,,,,
1465846423.09,2.171053,-0.010321,-1.470425,-0.016068,0.186421,-0.023347,0.825146,0.010321,0.564825,0.056430,0.004785,0.054286,-134.447647,232.838943,-32.953255,,,,,,
1465846423.10,2.172052,-0.010422,-1.469999,-0.024703,0.073906,-0.034359,0.824581,0.010422,0.565648,0.059864,0.003174,0.047969,-134.447647,232.838943,-32.953255,,,,,,
1465846423.11,2.172782,-0.010629,-1.469834,0.002967,0.082355,-0.022675,0.824166,0.010628,0.566248,0.024192,0.019843,0.093435,-134.451111,232.665833,-34.140591,,,,,,
1465846423.12,2.174343,-0.010169,-1.469678,-0.008753,0.073876,-0.024760,0.823285,0.010169,0.567537,0.039599,-0.016669,0.051924,-134.451111,232.665833,-34.140591,,,,,,
1465846423.13,2.174698,-0.010336,-1.469366,-0.008814,0.010194,-0.033941,0.823082,0.010336,0.567828,0.073570,0.019404,0.060590,-134.451111,232.665833,-34.140591,,,,,,
1465846423.14,2.173824,-0.010600,-1.469237,-0.001524,-0.109811,-0.026794,0.823576,0.010600,0.567107,0.018114,-0.010447,0.062349,-134.451111,232.665833,-34.140591,,,,,,
1465846423.15,2.172856,-0.010723,-1.468979,-0.011079,-0.086449,-0.025886,0.824124,0.010723,0.566309,0.021198,0.000126,0.079886,-134.451111,232.665833,-34.140591,,,,,,
1465846423.16,2.173894,-0.010873,-1.468794,-0.003542,-0.024852,-0.029458,0.823534,0.010873,0.567163,0.036543,-0.001168,0.071524,-134.451111,232.665833,-34.140591,,,,,,
1465846423.17,2.173612,-0.011044,-1.468485,-0.016323,-0.031211,-0.031559,0.823692,0.011044,0.566930,0.030174,0.002537,0.078014,-134.633774,232.549149,-34.215424,,,,,,
1465846423.19,2.172557,-0.011508,-1.468060,-0.008898,-0.047153,-0.027194,0.824286,0.011507,0.566057,0.015894,0.000669,0.084761,-134.633774,232.549149,-34.215424,,,,,,
1465846423.18,2.173111,-0.011306,-1.468274,-0.000379,-0.057755,-0.034570,0.823974,0.011306,0.566515,0.029664,0.006974,0.078001,-134.633774,232.549149,-34.215424,,,,,,
1465846423.20,2.173533,-0.012016,-1.467817,-0.003529,-0.021649,-0.033737,0.823728,0.012016,0.566858,0.051654,0.008599,0.076117,-134.633774,232.549149,-34.215424,,,,,,
1465846423.21,2.173006,-0.012220,-1.467550,-0.018484,-0.055628,-0.030345,0.824024,0.012219,0.566423,0.037136,-0.010160,0.061385,-134.633774,232.549149,-34.215424,,,,,,
1465846423.22,2.172251,-0.012452,-1.467288,0.002764,-0.101281,-0.035360,0.824449,0.012452,0.565799,0.077422,0.015731,0.082822,-134.633774,232.549149,-34.215424,,,,,,
1465846423.23,2.170599,-0.012652,-1.467055,-0.020756,-0.169240,-0.029635,0.825381,0.012651,0.564434,0.048642,-0.009996,0.066593,-135.190979,232.270355,-33.910862,,,,,,
1465846423.25,2.168591,-0.013250,-1.466539,-0.002660,-0.173489,-0.029591,0.826506,0.013250,0.562771,0.045304,0.005214,0.077442,-135.190979,232.270355,-33.910862,,,,,,
1465846423.24,2.168953,-0.012840,-1.466701,-0.007964,-0.166046,-0.034964,0.826307,0.012840,0.563074,0.046160,0.007851,0.086890,-135.190979,232.270355,-33.910862,,,,,,
1465846423.26,2.166824,-0.013440,-1.466159,-0.019689,-0.183010,-0.039128,0.827497,0.013439,0.561309,0.079149,-0.001400,0.090913,-135.190979,232.270355,-33.910862,,,,,,
1465846423.27,2.165956,-0.013923,-1.465985,0.014322,-0.233984,-0.039839,0.827978,0.013923,0.560587,0.065988,0.004098,0.094336,-135.190979,232.270355,-33.910862,,,,,,
1465846423.28,2.163620,-0.014244,-1.465691,-0.013349,-0.233952,-0.046254,0.829282,0.014244,0.558649,0.095752,-0.001518,0.091238,-135.190979,232.270355,-33.910862,,,,,,
1465846423.29,2.161092,-0.014652,-1.465480,0.015367,-0.256270,-0.043956,0.830687,0.014651,0.556547,0.068712,0.002805,0.101381,-136.031448,231.958023,-32.664757,,,,,,
1465846423.30,2.158617,-0.015122,-1.465306,0.004749,-0.244565,-0.051491,0.832056,0.015122,0.554485,0.089849,-0.000306,0.111820,-136.031448,231.958023,-32.664757,,,,,,
1465846423.31,2.155871,-0.015629,-1.465083,0.014281,-0.290218,-0.054389,0.833569,0.015628,0.552194,0.097751,-0.007068,0.101385,-136.031448,231.958023,-32.664757,,,,,,
1465846423.32,2.152365,-0.016210,-1.464953,0.021631,-0.374101,-0.054920,0.835492,0.016209,0.549264,0.096271,0.004391,0.101509,-136.031448,231.958023,-32.664757,,,,,,
1465846423.34,2.143336,-0.017217,-1.464652,0.017198,-0.504716,-0.048783,0.840403,0.017217,0.541688,0.102849,0.002315,0.101348,-136.031448,231.958023,-32.664757,,,,,,
1465846423.33,2.148169,-0.016706,-1.464791,0.011969,-0.430384,-0.050319,0.837782,0.016705,0.545749,0.103105,-0.001446,0.101132,-136.031448,231.958023,-32.664757,,,,,,
1465846423.35,2.137706,-0.017617,-1.464536,0.010693,-0.579071,-0.036614,0.843434,0.017616,0.536944,0.063854,0.005959,0.116803,-137.376053,231.516327,-30.067696,,,,,,
1465846423.37,2.125375,-0.018122,-1.464401,0.002089,-0.625824,-0.022492,0.849983,0.018121,0.526499,0.076439,0.012961,0.131491,-137.376053,231.516327,-30.067696,,,,,,
1465846423.36,2.131596,-0.017914,-1.464493,0.010621,-0.617328,-0.024665,0.846694,0.017913,0.531778,0.061509,0.001573,0.115149,-137.376053,231.516327,-30.067696,,,,,,
1465846423.38,2.118977,-0.018312,-1.464395,0.009510,-0.637531,-0.013895,0.853331,0.018311,0.521048,0.047716,0.005645,0.145913,-103.833847,222.834641,-10.297699,,,,,,
1465846423.39,2.113107,-0.018431,-1.464316,-0.004238,-0.566377,-0.016484,0.856373,0.018430,0.516029,0.073604,-0.003721,0.162896,-103.833847,222.834641,-10.297699,,,,,,
1465846423.40,2.107637,-0.018586,-1.464138,-0.005267,-0.548309,-0.022985,0.859181,0.018585,0.511335,0.071499,0.004898,0.163622,-104.042709,222.792831,-9.014156,,,,,,
1465846423.41,2.102207,-0.018784,-1.464052,0.002207,-0.528144,-0.020975,0.861941,0.018783,0.506661,0.011777,-0.009872,0.181129,-104.042709,222.792831,-9.014156,,,,,,
1465846423.42,2.098374,-0.018968,-1.463806,-0.013491,-0.327426,-0.032894,0.863874,0.018967,0.503351,0.044894,0.004867,0.199576,-104.042709,222.792831,-9.014156,,,,,,
1465846423.43,2.096017,-0.019349,-1.463541,-0.001615,-0.222270,-0.049509,0.865051,0.019348,0.501311,0.051071,-0.001388,0.206896,-104.398643,222.704041,-6.827732,,,,,,
1465846423.44,2.093582,-0.019712,-1.463256,-0.009122,-0.257320,-0.043974,0.866263,0.019711,0.499199,0.028054,-0.003933,0.192482,-104.398643,222.704041,-6.827732,,,,,,
1465846423.45,2.090810,-0.020031,-1.463060,0.002540,-0.284953,-0.036338,0.867638,0.020030,0.496793,0.038810,0.004323,0.192294,-104.398643,222.704041,-6.827732,,,,,,
1465846423.46,2.087528,-0.020409,-1.462897,0.001409,-0.344402,-0.040224,0.869257,0.020407,0.493938,0.024191,-0.015036,0.184528,-104.398643,222.704041,-6.827732,,,,,,
1465846423.47,2.084349,-0.020746,-1.462662,-0.002787,-0.299795,-0.043702,0.870817,0.020744,0.491169,0.023119,-0.010521,0.195736,-104.845406,222.526413,-5.675892,,,,,,
1465846423.48,2.081694,-0.021275,-1.462480,0.011132,-0.263657,-0.059881,0.872109,0.021274,0.488850,0.034920,0.000226,0.218685,-104.845406,222.526413,-5.675892,,,,,,
1465846423.49,2.079064,-0.021801,-1.462149,-0.005897,-0.261519,-0.062040,0.873381,0.021799,0.486549,0.008256,-0.005610,0.219185,-104.845406,222.526413,-5.675892,,,,,,
1465846423.50,2.076532,-0.022423,-1.461967,0.021796,-0.257280,-0.064168,0.874598,0.022421,0.484329,0.017720,-0.001196,0.237930,-105.090393,222.425323,-5.076401,,,,,,
1465846423.51,2.073447,-0.023124,-1.461829,0.018522,-0.327345,-0.067990,0.876074,0.023122,0.481621,0.003778,-0.007924,0.222587,-105.090393,222.425323,-5.076401,,,,,,
1465846423.52,2.070061,-0.023833,-1.461609,0.018524,-0.339002,-0.076432,0.877685,0.023831,0.478644,0.014389,-0.012082,0.217477,-105.090393,222.425323,-5.076401,,,,,,
1465846423.53,2.066555,-0.024757,-1.461554,0.047266,-0.359164,-0.085857,0.879338,0.024755,0.475553,0.004527,0.006404,0.250704,-105.734192,222.142838,-3.953907,,,,,,
1465846423.54,2.063040,-0.025718,-1.461447,0.028131,-0.348513,-0.094459,0.880983,0.025715,0.472448,0.003660,-0.020039,0.241694,-105.734192,222.142838,-3.953907,,,,,,
1465846423.55,2.059058,-0.026790,-1.461320,0.048283,-0.422829,-0.101424,0.882833,0.026786,0.468923,0.001109,-0.009010,0.256998,-106.145142,221.956284,-3.377121,,,,,,
1465846423.56,2.054213,-0.027979,-1.461340,0.051389,-0.500330,-0.105192,0.885066,0.027975,0.464625,-0.016062,-0.011313,0.233861,-106.145142,221.956284,-3.377121,,,,,,
1465846423.57,2.048860,-0.029156,-1.461281,0.055587,-0.552355,-0.106991,0.887510,0.029152,0.459865,-0.015287,-0.003273,0.263951,-106.145142,221.956284,-3.377121,,,,,,
1465846423.58,2.042489,-0.030395,-1.461525,0.084168,-0.659655,-0.090323,0.890389,0.030390,0.454184,-0.054330,0.023610,0.248849,-106.145142,221.956284,-3.377121,,,,,,
1465846423.59,2.035862,-0.031526,-1.461759,0.065015,-0.653269,-0.092511,0.893348,0.031521,0.448259,-0.062034,-0.008190,0.264845,-107.108131,221.512543,-1.682014,,,,,,
1465846423.60,2.029174,-0.032657,-1.462077,0.087331,-0.674540,-0.083839,0.896293,0.032651,0.442258,-0.098335,0.008273,0.274478,-107.108131,221.512543,-1.682014,,,,,,
1465846423.61,2.022937,-0.033727,-1.462408,0.066135,-0.595955,-0.084353,0.899002,0.033720,0.436644,-0.125214,-0.002623,0.268526,-107.108131,221.512543,-1.682014,,,,,,
1465846423.62,2.017943,-0.034753,-1.462714,0.086504,-0.466458,-0.073436,0.901140,0.034746,0.432133,-0.166246,0.028777,0.309063,-107.516075,221.320435,-0.588921,,,,,,
1465846423.64,2.011376,-0.036717,-1.463235,0.072890,-0.278524,-0.070371,0.903895,0.036709,0.426176,-0.216471,-0.007336,0.283708,-107.516075,221.320435,-0.588921,,,,,,
1465846423.63,2.014337,-0.035799,-1.462951,0.050496,-0.332618,-0.087085,0.902659,0.035792,0.428865,-0.144664,-0.009638,0.266432,-107.516075,221.320435,-0.588921,,,,,,
1465846423.65,2.009202,-0.037489,-1.463626,0.064435,-0.190454,-0.047514,0.904794,0.037480,0.424198,-0.212106,0.019664,0.243588,-108.212601,220.980377,0.706005,,,,,,
1465846423.66,2.007842,-0.038193,-1.463826,0.047495,-0.121417,-0.052221,0.905345,0.038184,0.422956,-0.210063,0.008920,0.244113,-108.212601,220.980377,0.706005,,,,,,
1465846423.67,2.007733,-0.038864,-1.464062,0.046628,0.031492,-0.056375,0.905368,0.038855,0.422847,-0.224063,0.006479,0.254354,-108.212601,220.980377,0.706005,,,,,,
1465846423.68,2.008637,-0.039550,-1.464352,0.059489,0.118518,-0.044134,0.904961,0.039539,0.423653,-0.247552,0.019238,0.280067,-108.449699,220.863663,0.829742,,,,,,
1465846423.69,2.010283,-0.040252,-1.464527,0.040403,0.163156,-0.056142,0.904237,0.040241,0.425130,-0.208177,-0.008412,0.250819,-108.449699,220.863663,0.829742,,,,,,
1465846423.70,2.011565,-0.040770,-1.464889,0.062645,0.112105,-0.029189,0.903673,0.040759,0.426280,-0.252534,0.013517,0.208333,-108.449699,220.863663,0.829742,,,,,,
1465846423.71,2.012457,-0.041158,-1.465280,0.045556,0.089780,-0.016292,0.903277,0.041147,0.427080,-0.239840,0.007865,0.189162,-108.866470,220.660080,-0.033203,,,,,,
1465846423.72,2.013356,-0.041514,-1.465899,0.084930,0.092911,-0.003499,0.902880,0.041502,0.427885,-0.264498,0.026095,0.253710,-108.866470,220.660080,-0.033203,,,,,,
1465846423.73,2.013913,-0.041959,-1.466552,0.068911,0.037734,-0.013814,0.902625,0.041947,0.428380,-0.235831,-0.008042,0.210032,-108.866470,220.660080,-0.033203,,,,,,
1465846423.74,2.014037,-0.042387,-1.467147,0.081673,0.017540,-0.014745,0.902555,0.042375,0.428484,-0.273206,-0.014054,0.184187,-108.919098,220.633545,-0.504330,,,,,,
1465846423.75,2.014333,-0.042943,-1.467924,0.092344,0.034526,-0.015905,0.902407,0.042930,0.428741,-0.293520,-0.000145,0.197022,-108.919098,220.633545,-0.504330,,,,,,
1465846423.76,2.015097,-0.043411,-1.468566,0.075388,0.099302,-0.015264,0.902061,0.043397,0.429422,-0.327934,0.001739,0.146720,-108.974838,220.604691,-0.915356,,,,,,
1465846423.77,2.016699,-0.043815,-1.469323,0.089311,0.193745,0.002253,0.901356,0.043801,0.430859,-0.369892,0.016228,0.153873,-108.974838,220.604691,-0.915356,,,,,,
1465846423.78,2.019883,-0.044153,-1.469976,0.067168,0.359409,-0.003066,0.899966,0.044139,0.433720,-0.370913,-0.003291,0.127773,-108.974838,220.604691,-0.915356,,,,,,
1465846423.79,2.024580,-0.044378,-1.470622,0.068399,0.515453,0.010859,0.897910,0.044363,0.437938,-0.401847,-0.008398,0.104939,-108.974838,220.604691,-0.915356,,,,,,
1465846423.80,2.031125,-0.044522,-1.471251,0.060100,0.694893,0.012919,0.895019,0.044507,0.443803,-0.405517,-0.001111,0.103423,-109.047653,220.558670,-2.296513,,,,,,
1465846423.81,2.039231,-0.044542,-1.471778,0.045368,0.857315,0.026788,0.891391,0.044528,0.451042,-0.413150,-0.011004,0.055229,-109.047653,220.558670,-2.296513,,,,,,
1465846423.82,2.048888,-0.044496,-1.472283,0.043416,1.003836,0.029060,0.886996,0.044481,0.459630,-0.387896,-0.007433,0.028377,-109.047653,220.558670,-2.296513,,,,,,
1465846423.84,2.071638,-0.044271,-1.473042,0.021310,1.210890,0.030933,0.876319,0.044257,0.479693,-0.363899,-0.015936,-0.028109,-108.767776,220.628387,-5.955334,,,,,,
1465846423.83,2.059806,-0.044409,-1.472719,0.030788,1.119585,0.026193,0.881928,0.044394,0.469289,-0.371659,-0.012350,-0.009099,-108.767776,220.628387,-5.955334,,,,,,
1465846423.85,2.084388,-0.044129,-1.473469,0.032058,1.300061,0.035707,0.870137,0.044115,0.490831,-0.353917,-0.001253,-0.035417,-108.767776,220.628387,-5.955334,,,,,,
1465846423.86,2.097860,-0.043878,-1.473916,0.022529,1.359498,0.045969,0.863456,0.043864,0.502514,-0.354377,0.001866,-0.044643,-100.067673,225.990448,-42.986511,,,,,,
1465846423.87,2.111941,-0.043524,-1.474277,0.013018,1.422140,0.048760,0.856308,0.043510,0.514630,-0.335479,-0.005043,-0.092084,-100.067673,225.990448,-42.986511,,,,,,
1465846423.88,2.126497,-0.043134,-1.474713,0.016259,1.477320,0.060126,0.848741,0.043120,0.527048,-0.326310,-0.005217,-0.111368,-100.067673,225.990448,-42.986511,,,,,,
1465846423.90,2.156840,-0.042281,-1.475484,0.004647,1.547422,0.053288,0.832391,0.042268,0.552575,-0.284448,-0.008851,-0.158120,-97.139008,226.130585,-48.600792,,,,,,
1465846423.89,2.141505,-0.042719,-1.475130,0.013104,1.501755,0.055712,0.840751,0.042706,0.539736,-0.292335,-0.010632,-0.115572,-97.139008,226.130585,-48.600792,,,,,,
1465846423.91,2.172704,-0.041860,-1.475876,0.011096,1.603680,0.058264,0.823535,0.041848,0.565720,-0.283130,-0.010278,-0.138016,-97.139008,226.130585,-48.600792,,,,,,
1465846423.92,2.188905,-0.041441,-1.476208,-0.001644,1.624937,0.052796,0.814276,0.041429,0.578998,-0.239508,-0.016771,-0.183017,-95.361008,226.230347,-51.567101,,,,,,
1465846423.93,2.205278,-0.041005,-1.476523,0.000504,1.637681,0.051653,0.804702,0.040993,0.592262,-0.232971,-0.019723,-0.181205,-95.361008,226.230347,-51.567101,,,,,,
1465846423.94,2.221695,-0.040564,-1.476787,-0.006941,1.644055,0.051606,0.794885,0.040553,0.605403,-0.222299,-0.029978,-0.193950,-95.361008,226.230347,-51.567101,,,,,,
1465846423.95,2.238375,-0.040166,-1.477001,-0.004756,1.676991,0.043950,0.784690,0.040155,0.618587,-0.208548,-0.024927,-0.204356,-91.327660,226.427948,-57.642921,,,,,,
1465846423.96,2.255256,-0.039782,-1.477215,-0.007934,1.687613,0.042816,0.774148,0.039771,0.631754,-0.195702,-0.024619,-0.198298,-91.327660,226.427948,-57.642921,,,,,,
1465846423.97,2.272156,-0.039338,-1.477384,-0.017517,1.693977,0.047025,0.763375,0.039327,0.644758,-0.200615,-0.021185,-0.217862,-91.327660,226.427948,-57.642921,,,,,,
1465846423.98,2.289068,-0.038854,-1.477625,-0.013284,1.682280,0.052424,0.752376,0.038844,0.657588,-0.190135,-0.017039,-0.219355,-89.142548,226.516052,-60.639515,,,,,,
1465846423.99,2.305452,-0.038218,-1.477791,-0.036799,1.624928,0.062341,0.741520,0.038209,0.669842,-0.169422,-0.022187,-0.253750,-89.142548,226.516052,-60.639515,,,,,,
1465846424.00,2.320990,-0.037590,-1.478004,-0.020945,1.529361,0.061891,0.731040,0.037581,0.681299,-0.152045,-0.029173,-0.247812,-89.142548,226.516052,-60.639515,,,,,,
1465846424.01,2.335522,-0.036932,-1.478286,-0.028540,1.426353,0.068916,0.721080,0.036923,0.691867,-0.143230,-0.020398,-0.267688,-84.479614,226.758209,-66.158653,,,,,,
1465846424.02,2.348708,-0.036196,-1.478505,-0.036167,1.283022,0.066614,0.711914,0.036188,0.701334,-0.105179,-0.014032,-0.287637,-84.479614,226.758209,-66.158653,,,,,,
1465846424.03,2.360157,-0.035514,-1.478890,-0.016183,1.103538,0.078404,0.703855,0.035506,0.709455,-0.076826,-0.017135,-0.294218,-84.479614,226.758209,-66.158653,,,,,,
1465846424.04,2.369516,-0.034851,-1.479368,-0.015403,0.886912,0.086151,0.697201,0.034844,0.716028,-0.027249,-0.026223,-0.336420,-82.307434,226.911591,-68.335014,,,,,,
1465846424.05,2.377120,-0.034160,-1.479776,-0.019845,0.722367,0.075469,0.691753,0.034153,0.721326,-0.033855,-0.039128,-0.304868,-82.307434,226.911591,-68.335014,,,,,,
1465846424.06,2.383571,-0.033691,-1.480350,0.014115,0.629979,0.073954,0.687096,0.033685,0.725785,-0.001519,-0.045160,-0.297593,-82.307434,226.911591,-68.335014,,,,,,
1465846424.07,2.389320,-0.033404,-1.480837,0.009809,0.545119,0.044677,0.682919,0.033398,0.729731,-0.032360,-0.023190,-0.318445,-79.175964,227.194214,-71.042358,,,,,,
1465846424.08,2.394199,-0.033197,-1.481296,0.023573,0.487766,0.048244,0.679355,0.033191,0.733059,-0.047519,-0.023960,-0.307400,-79.175964,227.194214,-71.042358,,,,,,
1465846424.09,2.399141,-0.033097,-1.481809,0.025716,0.500503,0.049230,0.675726,0.033091,0.736409,-0.094931,-0.022379,-0.320150,-79.175964,227.194214,-71.042358,,,,,,
1465846424.10,2.404820,-0.032882,-1.482317,0.017317,0.597129,0.049680,0.671538,0.032876,0.740241,-0.045180,0.001411,-0.339041,-78.180199,227.254669,-71.946075,,,,,,
1465846424.11,2.411431,-0.032657,-1.482771,0.011032,0.681011,0.050212,0.666634,0.032651,0.744669,-0.019936,0.018390,-0.343714,-78.180199,227.254669,-71.946075,,,,,,
1465846424.12,2.418525,-0.032390,-1.483061,-0.003809,0.713967,0.038282,0.661340,0.032385,0.749386,-0.054575,0.022074,-0.339612,-78.180199,227.254669,-71.946075,,,,,,
1465846424.14,2.435096,-0.031428,-1.483708,-0.033434,0.914575,0.068928,0.648852,0.031423,0.760265,-0.023608,0.014323,-0.365902,-75.980835,227.354553,-73.958649,,,,,,
1465846424.13,2.426313,-0.032005,-1.483412,-0.007976,0.806314,0.049408,0.655492,0.032000,0.754523,-0.034521,0.046781,-0.357948,-75.980835,227.354553,-73.958649,,,,,,
1465846424.15,2.445576,-0.030626,-1.483887,-0.049190,1.079174,0.063622,0.640865,0.030621,0.767043,0.021031,0.008289,-0.355040,-75.980835,227.354553,-73.958649,,,,,,
1465846424.16,2.457212,-0.029775,-1.484121,-0.054397,1.184274,0.070409,0.631913,0.029771,0.774468,0.070510,-0.008683,-0.337471,-74.489426,227.461349,-75.138046,,,,,,
1465846424.17,2.469005,-0.028894,-1.484288,-0.056527,1.185334,0.071464,0.622752,0.028890,0.781886,0.106404,-0.033620,-0.355769,-74.489426,227.461349,-75.138046,,,,,,
1465846424.18,2.481421,-0.028146,-1.484394,-0.050014,1.243801,0.045557,0.613010,0.028142,0.789574,0.129742,-0.010137,-0.314141,-74.489426,227.461349,-75.138046,,,,,,
1465846424.19,2.494003,-0.027432,-1.484635,-0.041492,1.277721,0.064513,0.603039,0.027428,0.797240,0.205768,0.001823,-0.300216,-70.346886,227.811768,-78.013939,,,,,,
1465846424.20,2.506356,-0.026733,-1.484716,-0.053271,1.193897,0.045867,0.593156,0.026730,0.804644,0.248809,0.015338,-0.383440,-70.346886,227.811768,-78.013939,,,,,,
1465846424.21,2.517143,-0.025973,-1.484798,-0.054538,1.040984,0.052147,0.584454,0.025970,0.811011,0.249210,-0.013534,-0.326133,-70.346886,227.811768,-78.013939,,,,,,
1465846424.22,2.526490,-0.025281,-1.485110,-0.037693,0.917756,0.071032,0.576858,0.025279,0.816453,0.261765,-0.028513,-0.334733,-68.129234,227.961990,-79.528618,,,,,,
1465846424.23,2.535504,-0.024452,-1.485340,-0.059013,0.889113,0.065869,0.569487,0.024450,0.821637,0.297838,-0.021871,-0.331265,-66.249031,228.116425,-80.666153,,,,,,
1465846424.24,2.543929,-0.023547,-1.485605,-0.060163,0.829638,0.071563,0.562557,0.023545,0.826423,0.338292,-0.006455,-0.260673,-66.249031,228.116425,-80.666153,,,,,,
1465846424.25,2.549985,-0.022510,-1.486505,-0.030898,0.584016,0.193415,0.557555,0.022509,0.829835,0.462999,-0.095110,-0.384156,-66.249031,228.116425,-80.666153,,,,,,
1465846424.26,2.552380,-0.021022,-1.487286,-0.105924,0.074587,0.124153,0.555584,0.021021,0.831195,0.772053,0.126593,-0.443103,-66.249031,228.116425,-80.666153,,,,,,
1465846424.27,2.548740,-0.019824,-1.486896,-0.109595,-0.477253,0.020101,0.558619,0.019823,0.829187,0.541722,0.136839,0.263769,-66.249031,228.116425,-80.666153,,,,,,
1465846424.29,2.531090,-0.019151,-1.489136,-0.274553,-0.014919,0.269311,0.573175,0.019150,0.819210,0.935142,0.501190,-0.167324,-63.181080,228.573669,-81.824791,,,,,,
1465846424.28,2.539838,-0.021424,-1.487341,0.307727,-1.580308,-0.105621,0.565960,0.021422,0.824154,-0.458065,-0.545501,-0.513989,-63.181080,228.573669,-81.824791,,,,,,
1465846424.30,2.535774,-0.019225,-1.487881,0.043693,0.219430,-0.062885,0.569330,0.019224,0.821884,-0.153910,-0.376615,-0.598053,-63.181080,228.573669,-81.824791,,,,,,
1465846424.32,2.537324,-0.016595,-1.488807,0.049853,-0.587930,0.082692,0.568082,0.016594,0.822804,0.288027,-0.101311,-0.470159,-64.184250,228.762787,-80.504898,,,,,,
1465846424.31,2.539587,-0.017102,-1.488497,-0.219290,0.551341,0.140210,0.566214,0.017101,0.824081,0.618707,0.195683,0.304246,-64.184250,228.762787,-80.504898,,,,,,
1465846424.33,2.532268,-0.015227,-1.488491,-0.206283,-0.332770,0.008453,0.572248,0.015226,0.819939,0.514209,0.134936,0.053199,-64.184250,228.762787,-80.504898,,,,,,
1465846424.34,2.532137,-0.014059,-1.488340,-0.040935,0.069310,0.100833,0.572365,0.014059,0.819878,0.115654,-0.141638,0.010734,-112.235291,230.724213,-91.041885,,,,,,
1465846424.35,2.536263,-0.013122,-1.488541,-0.108413,0.492126,0.031053,0.568984,0.013122,0.822244,0.532533,0.119279,-0.137689,-112.235291,230.724213,-91.041885,,,,,,
