timestamp,attitude_roll,attitude_pitch,attitude_yaw,rotation_rate_x,rotation_rate_y,rotation_rate_z,gravity_x,gravity_y,gravity_z,user_acc_x,user_acc_y,user_acc_z,magnetic_field_x,magnetic_field_y,magnetic_field_z,latitude(degree),longitude(degree),altitude(meter),speed(m/s),course(degree),timestamp
1466451589.68,-0.613185,0.000965,-0.781580,0.004083,-0.089652,0.001691,-0.575475,-0.000965,-0.817819,-0.006648,0.001270,0.006662,-23.790989,370.931763,-70.812225,,,,,,
1466451589.69,-0.614048,0.000950,-0.781555,0.004144,-0.042931,0.000334,-0.576181,-0.000950,-0.817322,-0.012412,0.001988,0.012711,-23.790989,370.931763,-70.812225,,,,,,
1466451589.70,-0.614451,0.000980,-0.781536,0.003117,-0.014261,-0.000911,-0.576509,-0.000980,-0.817090,-0.007063,0.000171,0.010022,-23.914608,370.931244,-70.773254,,,,,,
1466451589.71,-0.614576,0.000963,-0.781528,0.002055,-0.010016,0.000126,-0.576612,-0.000963,-0.817018,-0.000689,0.002092,0.002382,-23.914608,370.931244,-70.773254,,,,,,
1466451589.72,-0.614595,0.000988,-0.781506,0.003066,-0.051428,0.001451,-0.576627,-0.000988,-0.817007,0.021497,-0.000492,-0.004755,-23.914608,370.931244,-70.773254,,,,,,
,,,,,,,,,,,,,,,,29.719981,-95.399038,10.703684,-1.000000,-1.000000,1466451896.41
1466451589.73,-0.615111,0.000971,-0.781451,0.007079,-0.176687,0.003322,-0.577049,-0.000971,-0.816709,0.049415,0.003015,-0.019763,-23.946438,370.929779,-70.770134,,,,,,
1466451589.74,-0.617053,0.000975,-0.781356,0.010037,-0.361441,0.006613,-0.578634,-0.000975,-0.815587,0.065801,0.001890,-0.030894,-23.946438,370.929779,-70.770134,,,,,,
1466451589.75,-0.621974,0.001051,-0.781210,0.016211,-0.532394,0.007691,-0.582641,-0.001051,-0.812729,0.068664,0.003065,-0.033844,-23.946438,370.929779,-70.770134,,,,,,
1466451589.76,-0.628234,0.001128,-0.781033,0.017119,-0.652387,0.011638,-0.587717,-0.001128,-0.809066,0.059000,0.003264,-0.026078,-24.392769,370.916687,-70.686188,,,,,,
1466451589.77,-0.635392,0.001223,-0.780821,0.020209,-0.735209,0.012160,-0.593492,-0.001223,-0.804839,0.048158,0.003558,-0.016313,-24.392769,370.916687,-70.686188,,,,,,
1466451589.78,-0.643032,0.001301,-0.780582,0.022256,-0.799982,0.013633,-0.599624,-0.001301,-0.800281,0.036667,0.002324,-0.013288,-24.392769,370.916687,-70.686188,,,,,,
1466451589.79,-0.651358,0.001395,-0.780338,0.022203,-0.840333,0.014951,-0.606266,-0.001395,-0.795260,0.026280,0.000953,-0.006085,-24.392769,370.916687,-70.686188,,,,,,
1466451589.80,-0.659854,0.001476,-0.780080,0.021123,-0.850954,0.016081,-0.613001,-0.001476,-0.790081,0.019205,-0.002994,-0.004185,-26.279068,370.873199,-70.236801,,,,,,
1466451589.81,-0.668588,0.001562,-0.779820,0.023215,-0.880685,0.016269,-0.619878,-0.001562,-0.784697,0.022634,0.001699,-0.002871,-26.279068,370.873199,-70.236801,,,,,,
,,,,,,,,,,,,,,,,29.720023,-95.399138,10.703684,-1.000000,-1.000000,1466451917.48
,,,,,,,,,,,,,,,,29.720064,-95.399233,10.703684,-1.000000,-1.000000,1466451917.51
1466451589.82,-0.677490,0.001659,-0.779553,0.024281,-0.881745,0.015212,-0.626838,-0.001659,-0.779148,0.003044,-0.000767,0.000537,-27.372833,370.850006,-69.941101,,,,,,
1466451589.83,-0.685730,0.001736,-0.779313,0.022259,-0.797859,0.013620,-0.633238,-0.001736,-0.773956,-0.012591,0.000836,0.014770,-27.372833,370.850006,-69.941101,,,,,,
1466451589.84,-0.692814,0.001794,-0.779089,0.018149,-0.678935,0.012870,-0.638704,-0.001794,-0.769451,-0.028487,0.002129,0.027996,-27.372833,370.850006,-69.941101,,,,,,
1466451589.85,-0.698898,0.001841,-0.778895,0.016135,-0.588678,0.011237,-0.643374,-0.001841,-0.765550,-0.026014,0.001277,0.025865,-27.372833,370.850006,-69.941101,,,,,,
1466451589.86,-0.704975,0.001859,-0.778709,0.016202,-0.534529,0.010898,-0.648014,-0.001859,-0.761627,-0.019284,0.002058,0.018844,-29.283638,370.809479,-69.379662,,,,,,
1466451589.87,-0.710343,0.001918,-0.778537,0.016191,-0.545144,0.009900,-0.652092,-0.001918,-0.758137,0.010460,0.002147,0.007054,-29.283638,370.809479,-69.379662,,,,,,
1466451589.88,-0.716576,0.001965,-0.778337,0.018175,-0.657702,0.012737,-0.656806,-0.001965,-0.754057,0.040228,0.001522,-0.012224,-29.283638,370.809479,-69.379662,,,,,,
1466451589.89,-0.724329,0.002032,-0.778099,0.022237,-0.814851,0.013726,-0.662631,-0.002032,-0.748943,0.060504,0.000735,-0.028492,-29.993500,370.795990,-69.148117,,,,,,
1466451589.90,-0.733109,0.002091,-0.777831,0.024237,-0.914666,0.016483,-0.669182,-0.002091,-0.743096,0.043648,0.002381,-0.022804,-29.993500,370.795990,-69.148117,,,,,,
1466451589.91,-0.741918,0.002138,-0.777576,0.020052,-0.856265,0.016113,-0.675702,-0.002138,-0.737172,-0.000675,0.001405,0.004674,-29.993500,370.795990,-69.148117,,,,,,
1466451589.92,-0.749309,0.002204,-0.777342,0.021324,-0.695925,0.011915,-0.681132,-0.002204,-0.732158,-0.029577,0.002936,0.028941,-31.954052,370.758514,-68.467537,,,,,,
1466451589.93,-0.755171,0.002252,-0.777158,0.015112,-0.556822,0.009972,-0.685412,-0.002252,-0.728152,-0.035368,0.000848,0.037311,-31.954052,370.758514,-68.467537,,,,,,
1466451589.94,-0.761101,0.002272,-0.776985,0.015190,-0.496302,0.008528,-0.689717,-0.002272,-0.724075,-0.024181,0.002013,0.023117,-32.774673,370.740723,-68.175362,,,,,,
1466451589.95,-0.765672,0.002306,-0.776846,0.012066,-0.440024,0.008172,-0.693020,-0.002306,-0.720915,-0.025700,-0.000395,0.016356,-32.774673,370.740723,-68.175362,,,,,,
1466451589.96,-0.769473,0.002331,-0.776736,0.008975,-0.361444,0.005547,-0.695755,-0.002331,-0.718275,-0.019989,0.000027,0.017546,-32.774673,370.740723,-68.175362,,,,,,
1466451589.97,-0.772765,0.002366,-0.776619,0.010088,-0.323219,0.005309,-0.698116,-0.002366,-0.715981,-0.010350,-0.001983,0.014199,-33.419174,370.729706,-67.921822,,,,,,
1466451589.98,-0.776132,0.002425,-0.776518,0.007932,-0.344454,0.005440,-0.700523,-0.002425,-0.713626,0.006019,-0.001404,0.001804,-33.419174,370.729706,-67.921822,,,,,,
1466451589.99,-0.779960,0.002442,-0.776400,0.009995,-0.395425,0.006826,-0.703249,-0.002442,-0.710939,0.018374,0.000138,-0.006209,-33.419174,370.729706,-67.921822,,,,,,
,,,,,,,,,,,,,,,,29.720001,-95.399008,10.431988,-1.000000,-1.000000,1466451917.69
1466451590.00,-0.784383,0.002470,-0.776264,0.012046,-0.457013,0.008279,-0.706387,-0.002470,-0.707822,0.028286,0.000349,-0.007556,-34.303955,370.709595,-67.589722,,,,,,
1466451590.01,-0.789618,0.002496,-0.776106,0.014057,-0.549394,0.009924,-0.710082,-0.002496,-0.704114,0.042297,0.001413,-0.013507,-34.303955,370.709595,-67.589722,,,,,,
1466451590.02,-0.795240,0.002504,-0.775890,0.020263,-0.691679,0.012952,-0.714029,-0.002504,-0.700111,0.062357,0.001863,-0.022087,-34.303955,370.709595,-67.589722,,,,,,
1466451590.03,-0.803630,0.002541,-0.775631,0.021068,-0.893431,0.017412,-0.719878,-0.002541,-0.694096,0.087065,-0.000297,-0.036830,-34.892933,370.698853,-67.346664,,,,,,
1466451590.04,-0.814478,0.002575,-0.775287,0.029251,-1.155709,0.022258,-0.727365,-0.002575,-0.686246,0.116159,0.001400,-0.048877,-34.892933,370.698853,-67.346664,,,,,,
1466451590.05,-0.828795,0.002616,-0.774851,0.037286,-1.535848,0.027843,-0.737115,-0.002616,-0.675762,0.162332,0.004066,-0.068653,-34.892933,370.698853,-67.346664,,,,,,
1466451590.07,-0.870640,0.002701,-0.773577,0.059610,-2.392769,0.046013,-0.764739,-0.002701,-0.644335,0.191970,0.004822,-0.086805,-37.221809,370.660706,-66.301598,,,,,,
1466451590.06,-0.847609,0.002656,-0.774284,0.047340,-1.999875,0.036086,-0.749697,-0.002656,-0.661775,0.192248,0.003602,-0.095534,-37.221809,370.660706,-66.301598,,,,,,
1466451590.08,-0.897342,0.002726,-0.772768,0.066588,-2.767594,0.050500,-0.781669,-0.002726,-0.623688,0.202766,0.004175,-0.070648,-37.221809,370.660706,-66.301598,,,,,,
1466451590.09,-0.927771,0.002732,-0.771855,0.075719,-3.121191,0.056984,-0.800282,-0.002732,-0.599617,0.185704,0.005448,-0.078010,-39.682556,370.624054,-65.067993,,,,,,
1466451590.10,-0.960553,0.002712,-0.770875,0.078667,-3.314447,0.060328,-0.819506,-0.002712,-0.573065,0.147737,0.008327,-0.036219,-39.682556,370.624054,-65.067993,,,,,,
1466451590.11,-0.994689,0.002652,-0.769836,0.085938,-3.454617,0.064408,-0.838587,-0.002652,-0.544762,0.143259,0.003292,-0.020928,-39.682556,370.624054,-65.067993,,,,,,
1466451590.12,-1.031407,0.002536,-0.768679,0.092993,-3.758320,0.074835,-0.858020,-0.002536,-0.513611,0.172259,0.008929,-0.022278,-46.657280,370.534546,-60.811035,,,,,,
1466451590.13,-1.073212,0.002382,-0.767416,0.107164,-4.346563,0.077474,-0.878735,-0.002382,-0.477303,0.269879,0.004640,-0.071998,-46.657280,370.534546,-60.811035,,,,,,
1466451590.14,-1.121500,0.002130,-0.765922,0.123389,-4.974129,0.093135,-0.900751,-0.002130,-0.434330,0.288721,0.014657,-0.008068,-46.657280,370.534546,-60.811035,,,,,,
1466451590.15,-1.175168,0.001797,-0.764343,0.133397,-5.482740,0.097399,-0.922753,-0.001797,-0.385387,0.221505,0.000958,0.021358,-50.767578,370.491028,-57.704361,,,,,,
1466451590.16,-1.231948,0.001319,-0.762675,0.138399,-5.730157,0.104278,-0.943137,-0.001319,-0.332401,0.253730,0.021476,0.073902,-50.767578,370.491028,-57.704361,,,,,,
1466451590.17,-1.291881,0.000738,-0.760957,0.149661,-6.079514,0.112867,-0.961354,-0.000738,-0.275313,0.219747,-0.011133,0.057906,-50.767578,370.491028,-57.704361,,,,,,
1466451590.19,-1.421928,-0.000985,-0.757329,0.167889,-6.813252,0.126003,-0.988939,0.000985,-0.148319,0.226305,-0.009835,0.069294,-60.831886,370.430420,-47.450317,,,,,,
1466451590.18,-1.354929,-0.000062,-0.759176,0.155657,-6.382148,0.121158,-0.976791,0.000062,-0.214194,0.269211,0.027511,0.102286,-60.831886,370.430420,-47.450317,,,,,,
1466451590.20,-1.492254,-0.002126,-0.755490,0.170742,-7.076596,0.132980,-0.996915,0.002126,-0.078462,0.231870,0.028636,0.188157,-60.831886,370.430420,-47.450317,,,,,,
1466451590.21,-1.564287,-0.003367,-0.753683,0.175850,-7.245431,0.136172,-0.999973,0.003367,-0.006509,0.224888,-0.010493,0.124459,-65.641129,370.445953,-40.395252,,,,,,
1466451590.22,-1.638247,-0.004811,-0.752006,0.174524,-7.456723,0.135367,-0.997715,0.004811,0.067398,0.250858,0.038478,0.190841,-65.641129,370.445953,-40.395252,,,,,,
1466451590.23,-1.715320,-0.006461,-0.750249,0.193236,-7.793368,0.153464,-0.989554,0.006461,0.144018,0.231863,-0.004401,0.157633,-65.641129,370.445953,-40.395252,,,,,,
1466451590.24,-1.794947,-0.008258,-0.748690,0.186602,-8.002517,0.146254,-0.974950,0.008258,0.222270,0.238790,0.032346,0.212102,-72.889084,370.605469,-22.572044,,,,,,
1466451590.25,-1.876195,-0.010274,-0.747158,0.202370,-8.143779,0.159929,-0.953677,0.010274,0.300658,0.192248,-0.002660,0.242464,-72.889084,370.605469,-22.572044,,,,,,
1466451590.26,-1.957922,-0.012333,-0.745919,0.187437,-8.180908,0.150566,-0.925928,0.012332,0.377499,0.168893,0.021313,0.255191,-72.889084,370.605469,-22.572044,,,,,,
1466451590.27,-2.039610,-0.014626,-0.744747,0.201276,-8.167138,0.160074,-0.892010,0.014626,0.451780,0.247112,0.020057,0.258990,-74.560165,370.762207,-12.120989,,,,,,
1466451590.28,-2.123210,-0.016943,-0.743802,0.198816,-8.434706,0.159621,-0.851138,0.016942,0.524668,0.195316,0.001139,0.220495,-74.560165,370.762207,-12.120989,,,,,,
1466451590.29,-2.208750,-0.019447,-0.743040,0.203967,-8.570622,0.161543,-0.803164,0.019446,0.595440,0.233722,0.032251,0.276722,-74.560165,370.762207,-12.120989,,,,,,
1466451590.30,-2.295114,-0.022045,-0.742433,0.213429,-8.656651,0.168478,-0.748770,0.022043,0.662463,0.165472,0.003180,0.301938,-72.607315,371.222412,9.634537,,,,,,
1466451590.31,-2.381669,-0.024660,-0.742109,0.199633,-8.623721,0.166129,-0.688657,0.024657,0.724668,0.084409,0.015092,0.317172,-72.607315,371.222412,9.634537,,,,,,
1466451590.32,-2.465600,-0.027206,-0.742002,0.203248,-8.294553,0.159811,-0.625441,0.027203,0.779797,0.015211,0.002506,0.365100,-72.607315,371.222412,9.634537,,,,,,
1466451590.33,-2.545172,-0.029657,-0.742117,0.181464,-7.843263,0.152701,-0.561438,0.029653,0.826987,0.027197,0.010508,0.319772,-68.783417,371.518127,20.343815,,,,,,
1466451590.34,-2.621380,-0.031946,-0.742491,0.178592,-7.584185,0.152137,-0.496811,0.031940,0.867271,0.130463,0.009213,0.268609,-68.783417,371.518127,20.343815,,,,,,
1466451590.35,-2.698612,-0.034322,-0.742945,0.187934,-7.779555,0.151243,-0.428382,0.034315,0.902946,0.135078,0.009126,0.208001,-68.783417,371.518127,20.343815,,,,,,
1466451590.36,-2.777521,-0.036606,-0.743674,0.181369,-7.913352,0.156333,-0.355843,0.036598,0.933829,0.190865,0.022042,0.235803,-57.197231,372.130951,37.653496,,,,,,
1466451590.37,-2.857399,-0.038952,-0.744530,0.198264,-8.031212,0.153896,-0.280171,0.038942,0.959160,0.289357,0.020384,0.219887,-57.197231,372.130951,37.653496,,,,,,
1466451590.38,-2.941307,-0.041230,-0.745613,0.193401,-8.505847,0.161126,-0.198780,0.041218,0.979177,0.146931,0.011898,0.242838,-57.197231,372.130951,37.653496,,,,,,
1466451590.40,-3.109560,-0.045491,-0.748488,0.194776,-8.255268,0.161685,-0.031994,0.045475,0.998453,0.225109,0.018138,0.308310,-49.477406,372.453735,44.731781,,,,,,
1466451590.39,-3.026659,-0.043435,-0.747005,0.195558,-8.465531,0.172584,-0.114572,0.043421,0.992466,0.161783,0.011480,0.303372,-49.477406,372.453735,44.731781,,,,,,
1466451590.41,3.088675,-0.047460,-0.750238,0.200693,-8.611010,0.176695,0.052833,0.047442,0.997476,0.251869,0.015256,0.225806,-49.477406,372.453735,44.731781,,,,,,
1466451590.42,2.998882,-0.049359,-0.752149,0.207621,-9.039964,0.173005,0.142054,0.049339,0.988629,0.155981,0.007591,0.314915,-49.477406,372.453735,44.731781,,,,,,
1466451590.43,2.909227,-0.051014,-0.754285,0.199279,-8.889201,0.178438,0.229980,0.050992,0.971859,0.107559,0.019382,0.364750,-29.955866,373.116852,55.292038,,,,,,
1466451590.44,2.822791,-0.052447,-0.756459,0.195477,-8.538781,0.167721,0.312997,0.052423,0.948306,0.030920,0.004477,0.403211,-29.955866,373.116852,55.292038,,,,,,
1466451590.45,2.739473,-0.053635,-0.758664,0.185208,-8.245704,0.160551,0.390807,0.053609,0.918910,-0.028487,0.017085,0.369389,-18.454754,373.434814,58.108582,,,,,,
1466451590.47,2.587639,-0.055329,-0.762911,0.159067,-7.036262,0.140166,0.525248,0.055301,0.849150,-0.193034,0.007718,0.384401,-18.454754,373.434814,58.108582,,,,,,
1466451590.46,2.660111,-0.054619,-0.760827,0.178341,-7.784865,0.153396,0.462402,0.054592,0.884988,-0.139633,0.002446,0.389472,-18.454754,373.434814,58.108582,,,,,,
1466451590.48,2.523592,-0.055852,-0.764748,0.141000,-6.182525,0.120956,0.578504,0.055823,0.813767,-0.229001,0.001993,0.360610,2.719776,373.913177,57.898914,,,,,,
1466451590.49,2.467119,-0.056245,-0.766433,0.128080,-5.467890,0.103688,0.623499,0.056216,0.779800,-0.253794,0.000043,0.287277,2.719776,373.913177,57.898914,,,,,,
1466451590.50,2.418106,-0.056472,-0.767835,0.101406,-4.675751,0.091242,0.660946,0.056442,0.748307,-0.334149,-0.002579,0.293593,2.719776,373.913177,57.898914,,,,,,
1466451590.51,2.378692,-0.056618,-0.768995,0.083522,-3.680785,0.067953,0.689914,0.056588,0.721677,-0.375537,-0.004708,0.275485,10.463146,374.056091,56.065094,,,,,,
1466451590.52,2.350242,-0.056674,-0.769819,0.056211,-2.548866,0.052311,0.710161,0.056644,0.701757,-0.438418,0.001736,0.279658,10.463146,374.056091,56.065094,,,,,,
1466451590.53,2.333242,-0.056725,-0.770332,0.032120,-1.414793,0.024950,0.721986,0.056695,0.689581,-0.446839,-0.003167,0.230478,10.463146,374.056091,56.065094,,,,,,
1466451590.55,2.333590,-0.056735,-0.770334,-0.019278,0.854385,-0.018073,0.721746,0.056705,0.689832,-0.432302,-0.000949,0.204989,18.717346,374.181885,52.993523,,,,,,
1466451590.54,2.327770,-0.056721,-0.770487,0.005913,-0.255262,0.007007,0.725748,0.056690,0.685621,-0.460718,-0.002537,0.245562,18.717346,374.181885,52.993523,,,,,,
1466451590.56,2.350331,-0.056680,-0.769836,-0.042388,1.938523,-0.034475,0.710099,0.056649,0.701819,-0.400528,-0.004281,0.229699,18.717346,374.181885,52.993523,,,,,,
1466451590.58,2.412982,-0.056510,-0.768007,-0.081524,3.802078,-0.071749,0.664771,0.056479,0.744909,-0.307502,-0.002006,0.224421,18.696728,374.182404,52.996948,,,,,,
1466451590.57,2.377114,-0.056627,-0.769047,-0.064566,2.904822,-0.057589,0.691051,0.056597,0.720586,-0.349590,0.001356,0.191050,18.696728,374.182404,52.996948,,,,,,
1466451590.59,2.456975,-0.056354,-0.766754,-0.098636,4.568746,-0.090412,0.631373,0.056324,0.773431,-0.217860,0.004497,0.189429,18.696728,374.182404,52.996948,,,,,,
1466451590.60,2.507640,-0.056028,-0.765276,-0.119112,5.214345,-0.098739,0.591404,0.055999,0.804428,-0.168171,-0.001296,0.215576,11.097610,374.070129,55.848907,,,,,,
1466451590.61,2.563761,-0.055620,-0.763650,-0.131231,5.718742,-0.114688,0.545364,0.055591,0.836354,-0.093170,0.010648,0.185222,11.097610,374.070129,55.848907,,,,,,
1466451590.62,2.624306,-0.055070,-0.761913,-0.138141,6.144540,-0.121623,0.493774,0.055042,0.867847,-0.058608,-0.000049,0.221341,11.097610,374.070129,55.848907,,,,,,
1466451590.63,2.688730,-0.054370,-0.760110,-0.149359,6.526815,-0.131483,0.436895,0.054343,0.897870,-0.001577,0.007821,0.211307,4.270729,373.948517,57.576080,,,,,,
1466451590.64,2.756686,-0.053495,-0.758267,-0.155333,6.862339,-0.130400,0.374935,0.053469,0.925508,0.047275,0.005124,0.231185,4.270729,373.948517,57.576080,,,,,,
1466451590.65,2.826646,-0.052527,-0.756452,-0.151942,7.005705,-0.139811,0.309338,0.052503,0.949502,0.138385,0.013644,0.193000,4.270729,373.948517,57.576080,,,,,,
1466451590.66,2.896507,-0.051391,-0.754687,-0.158492,6.945199,-0.135165,0.242320,0.051368,0.968836,0.187200,0.007699,0.170401,-13.011822,373.580414,58.643719,,,,,,
1466451590.67,2.964792,-0.050184,-0.753052,-0.150186,6.781668,-0.130938,0.175660,0.050163,0.983172,0.236571,0.008126,0.148420,-13.011822,373.580414,58.643719,,,,,,
1466451590.68,3.030858,-0.048880,-0.751561,-0.148395,6.518328,-0.125026,0.110376,0.048860,0.992688,0.284491,0.013029,0.109210,-13.011822,373.580414,58.643719,,,,,,
1466451590.69,3.093077,-0.047591,-0.750211,-0.137196,6.110588,-0.121394,0.048442,0.047573,0.997692,0.298482,0.010029,0.077503,-22.047932,373.352386,57.381367,,,,,,
1466451590.70,-3.132244,-0.046264,-0.749043,-0.133521,5.653996,-0.113204,-0.009339,0.046247,0.998886,0.367417,0.015444,0.031646,-22.047932,373.352386,57.381367,,,,,,
1466451590.71,-3.080523,-0.045021,-0.748069,-0.116286,4.983954,-0.096211,-0.060970,0.045005,0.997124,0.423534,0.010033,-0.030175,-22.047932,373.352386,57.381367,,,,,,
1466451590.72,-3.037336,-0.043942,-0.747304,-0.096140,4.083509,-0.080964,-0.103968,0.043928,0.993610,0.427271,0.017565,-0.098957,-36.907173,372.912903,52.388527,,,,,,
1466451590.73,-3.002861,-0.043066,-0.746726,-0.073800,3.237208,-0.063925,-0.138159,0.043053,0.989474,0.422720,0.007789,-0.115237,-36.907173,372.912903,52.388527,,,,,,
1466451590.74,-2.976507,-0.042375,-0.746293,-0.054600,2.433385,-0.048220,-0.164189,0.042362,0.985519,0.401097,0.013882,-0.130416,-36.907173,372.912903,52.388527,,,,,,
1466451590.75,-2.958305,-0.041874,-0.746001,-0.041810,1.608334,-0.034517,-0.182103,0.041862,0.982388,0.396230,0.016014,-0.167248,-41.453659,372.760132,50.022167,,,,,,
1466451590.76,-2.948643,-0.041577,-0.745834,-0.022672,0.757785,-0.016391,-0.191589,0.041565,0.980595,0.378403,0.014756,-0.166294,-41.453659,372.760132,50.022167,,,,,,
1466451590.77,-2.946691,-0.041421,-0.745815,-0.011907,0.017677,-0.002158,-0.193504,0.041409,0.980225,0.347739,0.013370,-0.162018,-41.453659,372.760132,50.022167,,,,,,
1466451590.78,-2.951605,-0.041470,-0.745887,0.007454,-0.659790,0.011690,-0.188685,0.041458,0.981162,0.340571,0.008362,-0.142814,-44.646355,372.637451,48.153515,,,,,,
1466451590.79,-2.963533,-0.041709,-0.746071,0.022515,-1.370170,0.025740,-0.176967,0.041696,0.983333,0.329005,0.006369,-0.152813,-44.646355,372.637451,48.153515,,,,,,
1466451590.80,-2.982560,-0.042142,-0.746363,0.042903,-2.078429,0.039783,-0.158223,0.042129,0.986504,0.324696,0.003754,-0.131600,-43.716728,372.662292,48.809601,,,,,,
1466451590.81,-3.008426,-0.042748,-0.746773,0.056955,-2.744213,0.053552,-0.132652,0.042734,0.990241,0.292228,0.007467,-0.118461,-43.716728,372.662292,48.809601,,,,,,
1466451590.82,-3.040151,-0.043507,-0.747310,0.072202,-3.309120,0.064562,-0.101172,0.043494,0.993918,0.290961,0.006052,-0.081930,-43.716728,372.662292,48.809601,,,,,,
1466451590.83,-3.077679,-0.044376,-0.747962,0.086355,-3.896328,0.076774,-0.063807,0.044362,0.996976,0.264582,-0.005879,-0.064511,-41.173145,372.744110,50.372051,,,,,,
1466451590.84,-3.120909,-0.045419,-0.748773,0.103736,-4.458051,0.087765,-0.020661,0.045403,0.998755,0.261033,-0.002938,-0.041297,-41.173145,372.744110,50.372051,,,,,,
1466451590.85,3.113618,-0.046581,-0.749734,0.120092,-4.988981,0.098563,0.027941,0.046564,0.998524,0.217726,-0.013773,0.006221,-41.173145,372.744110,50.372051,,,,,,
1466451590.86,3.060959,-0.047812,-0.750817,0.130311,-5.328766,0.101768,0.080454,0.047794,0.995612,0.159994,-0.001072,0.041299,-41.173145,372.744110,50.372051,,,,,,
1466451590.87,3.006706,-0.049032,-0.751991,0.133377,-5.427521,0.104520,0.134316,0.049013,0.989726,0.095146,-0.000108,0.112676,-31.502571,373.052979,54.861519,,,,,,
1466451590.88,2.952231,-0.050142,-0.753239,0.129098,-5.443446,0.104615,0.187996,0.050121,0.980890,0.068978,0.018223,0.104529,-31.502571,373.052979,54.861519,,,,,,
1466451590.89,2.897533,-0.051193,-0.754544,0.130118,-5.474247,0.108003,0.241327,0.051170,0.969094,0.043951,0.020241,0.124107,-31.502571,373.052979,54.861519,,,,,,
1466451590.90,2.843389,-0.052082,-0.755910,0.120688,-5.354256,0.106176,0.293405,0.052059,0.954570,-0.031244,0.013661,0.142079,-17.697117,373.452271,58.231972,,,,,,
1466451590.91,2.791955,-0.052871,-0.757232,0.115746,-5.060117,0.097940,0.342079,0.052846,0.938184,-0.043678,0.017222,0.166186,-17.697117,373.452271,58.231972,,,,,,
1466451590.92,2.743506,-0.053561,-0.758507,0.108668,-4.769165,0.090786,0.387100,0.053535,0.920482,-0.084808,0.005349,0.171528,-17.697117,373.452271,58.231972,,,,,,
1466451590.93,2.698521,-0.054122,-0.759729,0.098513,-4.381592,0.085152,0.428088,0.054095,0.902116,-0.145709,0.005887,0.171492,-10.743116,373.621857,58.838955,,,,,,
1466451590.94,2.658730,-0.054551,-0.760850,0.085382,-3.822004,0.077371,0.463626,0.054524,0.884352,-0.200396,0.000194,0.192812,-10.743116,373.621857,58.838955,,,,,,
1466451590.95,2.625299,-0.054871,-0.761794,0.069170,-3.180640,0.063753,0.492917,0.054843,0.868346,-0.207731,0.002926,0.180970,-10.743116,373.621857,58.838955,,,,,,
1466451590.96,2.597944,-0.055125,-0.762572,0.059271,-2.597682,0.051571,0.516476,0.055097,0.854527,-0.243863,-0.003874,0.168681,0.263496,373.858276,58.315056,,,,,,
1466451590.98,2.562236,-0.055404,-0.763607,0.026854,-1.307525,0.025352,0.546645,0.055376,0.835531,-0.229324,-0.006273,0.140970,0.263496,373.858276,58.315056,,,,,,
1466451590.97,2.576845,-0.055298,-0.763200,0.043083,-1.935085,0.038884,0.534385,0.055270,0.843432,-0.244239,-0.003283,0.157437,0.263496,373.858276,58.315056,,,,,,
1466451590.99,2.553488,-0.055487,-0.763863,0.018016,-0.726691,0.013184,0.553931,0.055458,0.830713,-0.241843,-0.005791,0.130239,3.441006,373.919678,57.818478,,,,,,
1466451591.00,2.550921,-0.055527,-0.763936,0.003919,-0.093829,0.001750,0.556061,0.055499,0.829286,-0.238663,-0.002017,0.120146,3.441006,373.919678,57.818478,,,,,,
1466451591.01,2.554757,-0.055513,-0.763828,-0.010176,0.537978,-0.011806,0.552876,0.055485,0.831414,-0.229268,-0.002003,0.121375,4.955093,373.947754,57.526279,,,,,,
1466451591.02,2.564625,-0.055439,-0.763534,-0.025388,1.131554,-0.022995,0.544647,0.055410,0.836833,-0.216659,0.003824,0.106435,4.955093,373.947754,57.526279,,,,,,
1466451591.03,2.580126,-0.055281,-0.763090,-0.040658,1.681590,-0.031782,0.531615,0.055253,0.845182,-0.190551,0.001143,0.102709,4.955093,373.947754,57.526279,,,,,,
1466451591.04,2.600524,-0.055086,-0.762507,-0.049641,2.149867,-0.041115,0.514271,0.055058,0.855859,-0.157139,0.004680,0.088752,4.955093,373.947754,57.526279,,,,,,
1466451591.05,2.625317,-0.054823,-0.761791,-0.062915,2.591601,-0.050285,0.492903,0.054795,0.868357,-0.158690,0.002441,0.095068,3.220367,373.915771,57.856373,,,,,,
1466451591.07,2.689410,-0.054077,-0.759993,-0.081990,3.490997,-0.069783,0.436291,0.054051,0.898181,-0.083218,0.000988,0.102231,3.220367,373.915771,57.856373,,,,,,
1466451591.06,2.655269,-0.054484,-0.760960,-0.071841,3.106596,-0.058846,0.466686,0.054457,0.882745,-0.127513,0.004182,0.112250,3.220367,373.915771,57.856373,,,,,,
1466451591.08,2.726760,-0.053615,-0.758981,-0.085842,3.813790,-0.072876,0.402457,0.053590,0.913869,-0.078681,0.001510,0.101314,-3.942383,373.765808,58.773232,,,,,,
1466451591.09,2.767285,-0.053058,-0.757884,-0.096099,4.114303,-0.081157,0.365114,0.053033,0.929451,-0.018388,0.004096,0.100731,-3.942383,373.765808,58.773232,,,,,,
1466451591.10,2.809923,-0.052426,-0.756786,-0.096947,4.287377,-0.082244,0.325175,0.052402,0.944201,0.027517,0.001278,0.093183,-9.089449,373.651184,58.931541,,,,,,
1466451591.11,2.852960,-0.051762,-0.755663,-0.099054,4.296949,-0.087628,0.284261,0.051739,0.957350,0.071101,0.008060,0.061327,-9.089449,373.651184,58.931541,,,,,,
1466451591.12,2.895887,-0.051050,-0.754592,-0.095898,4.271455,-0.084272,0.242924,0.051028,0.968702,0.108486,0.001402,0.061113,-9.089449,373.651184,58.931541,,,,,,
1466451591.13,2.938286,-0.050305,-0.753542,-0.095951,4.225804,-0.086114,0.201654,0.050284,0.978165,0.120536,0.006799,0.052841,-9.089449,373.651184,58.931541,,,,,,
1466451591.14,2.979748,-0.049511,-0.752591,-0.095048,4.104743,-0.080032,0.160941,0.049491,0.985722,0.167886,0.008126,0.029704,-20.351109,373.374237,57.863869,,,,,,
1466451591.15,3.018485,-0.048747,-0.751692,-0.085878,3.780879,-0.074798,0.122651,0.048727,0.991253,0.203139,0.012811,-0.002300,-20.351109,373.374237,57.863869,,,,,,
1466451591.16,3.053932,-0.047964,-0.750941,-0.086288,3.462324,-0.067479,0.087448,0.047946,0.995015,0.203110,0.010450,-0.027760,-20.351109,373.374237,57.863869,,,,,,
1466451591.17,3.086599,-0.047210,-0.750244,-0.078109,3.201102,-0.060510,0.054905,0.047193,0.997376,0.201366,0.015567,-0.013611,-25.529362,373.232849,56.711845,,,,,,
1466451591.19,3.139728,-0.045894,-0.749145,-0.060130,2.268804,-0.046129,0.001863,0.045878,0.998945,0.275481,0.007558,-0.068586,-25.529362,373.232849,56.711845,,,,,,
1466451591.18,3.115514,-0.046518,-0.749657,-0.072192,2.825218,-0.058146,0.026047,0.046502,0.998579,0.250595,0.013786,-0.055448,-25.529362,373.232849,56.711845,,,,,,
1466451591.20,-3.125294,-0.045401,-0.748785,-0.043856,1.673104,-0.034926,-0.016281,0.045386,0.998837,0.271561,0.006052,-0.121792,-33.141659,372.996338,54.277824,,,,,,
1466451591.21,-3.112754,-0.045063,-0.748533,-0.030747,1.103944,-0.021763,-0.028805,0.045048,0.998569,0.296994,-0.002919,-0.095219,-33.141659,372.996338,54.277824,,,,,,
1466451591.22,-3.106672,-0.044884,-0.748421,-0.010304,0.437101,-0.010109,-0.034878,0.044869,0.998384,0.301785,-0.000146,-0.136598,-33.141659,372.996338,54.277824,,,,,,
1466451591.23,-3.107553,-0.044898,-0.748438,0.003698,-0.263731,0.007073,-0.033998,0.044882,0.998414,0.299349,-0.004462,-0.131043,-35.027683,372.930786,53.538944,,,,,,
1466451591.24,-3.115078,-0.045071,-0.748577,0.022049,-0.906143,0.015378,-0.026485,0.045056,0.998633,0.279140,0.003635,-0.142875,-35.027683,372.930786,53.538944,,,,,,
1466451591.25,-3.129362,-0.045427,-0.748859,0.035140,-1.488051,0.029685,-0.012217,0.045411,0.998894,0.255793,-0.001161,-0.110619,-35.027683,372.930786,53.538944,,,,,,
1466451591.26,3.135291,-0.045860,-0.749220,0.047318,-1.957389,0.037963,0.006295,0.045844,0.998929,0.202979,0.004235,-0.106244,-34.011551,372.961426,53.978687,,,,,,
1466451591.28,3.087417,-0.046984,-0.750208,0.064535,-2.646534,0.051883,0.054089,0.046967,0.997431,0.153629,0.002471,-0.055689,-34.011551,372.961426,53.978687,,,,,,
1466451591.27,3.113079,-0.046391,-0.749674,0.053261,-2.302495,0.046520,0.028479,0.046375,0.998518,0.178003,0.004025,-0.059385,-34.011551,372.961426,53.978687,,,,,,
1466451591.29,3.058117,-0.047640,-0.750825,0.068397,-2.959776,0.055980,0.083285,0.047622,0.995387,0.133879,0.001938,-0.033046,-31.493313,373.040771,54.949844,,,,,,
1466451591.30,3.027195,-0.048318,-0.751502,0.075656,-3.107382,0.061171,0.114015,0.048299,0.992304,0.081771,0.000422,-0.003718,-31.493313,373.040771,54.949844,,,,,,
1466451591.31,2.995816,-0.048974,-0.752196,0.073475,-3.151971,0.059319,0.145087,0.048954,0.988207,0.073923,0.005825,0.018278,-28.041443,373.145752,56.095261,,,,,,
1466451591.32,2.963452,-0.049629,-0.752937,0.077595,-3.256041,0.064234,0.176982,0.049609,0.982963,0.038335,0.004606,0.029366,-28.041443,373.145752,56.095261,,,,,,
1466451591.33,2.930149,-0.050267,-0.753714,0.076432,-3.337794,0.062616,0.209606,0.050246,0.976494,0.042271,0.010103,0.021110,-28.041443,373.145752,56.095261,,,,,,
1466451591.34,2.896591,-0.050863,-0.754525,0.076416,-3.344177,0.066914,0.242244,0.050841,0.968882,0.001316,0.000840,0.048879,-19.814434,373.377686,58.027874,,,,,,
1466451591.35,2.864382,-0.051396,-0.755340,0.072395,-3.159412,0.062558,0.273313,0.051373,0.960552,-0.050687,0.004886,0.066486,-19.814434,373.377686,58.027874,,,,,,
1466451591.36,2.834478,-0.051880,-0.756106,0.066284,-2.941733,0.059058,0.301903,0.051856,0.951927,-0.043220,0.002023,0.091484,-19.814434,373.377686,58.027874,,,,,,
1466451591.37,2.805860,-0.052325,-0.756855,0.065377,-2.819620,0.056162,0.329010,0.052301,0.942877,-0.070480,0.004416,0.066583,-19.814434,373.377686,58.027874,,,,,,
1466451591.38,2.779454,-0.052726,-0.757548,0.058252,-2.565830,0.049241,0.353783,0.052702,0.933842,-0.089088,-0.005781,0.085079,-11.624342,373.582275,58.922939,,,,,,
1466451591.39,2.756060,-0.053104,-0.758152,0.057577,-2.265322,0.040969,0.375523,0.053079,0.925292,-0.095311,-0.000787,0.089250,-11.624342,373.582275,58.922939,,,,,,
1466451591.40,2.735874,-0.053393,-0.758700,0.046291,-1.927660,0.037776,0.394117,0.053368,0.917510,-0.141920,-0.003044,0.092149,-11.624342,373.582275,58.922939,,,,,,
1466451591.41,2.719895,-0.053620,-0.759120,0.034090,-1.480615,0.027509,0.408722,0.053594,0.911084,-0.153366,-0.000219,0.097476,-8.342251,373.661530,58.976349,,,,,,
1466451591.42,2.708138,-0.053795,-0.759441,0.027153,-1.077111,0.019649,0.419401,0.053769,0.906208,-0.157987,0.003116,0.092587,-8.342251,373.661530,58.976349,,,,,,
1466451591.43,2.700873,-0.053908,-0.759621,0.014923,-0.648123,0.012688,0.425971,0.053882,0.903131,-0.173606,0.001354,0.082755,-8.342251,373.661530,58.976349,,,,,,
1466451591.44,2.698077,-0.053930,-0.759699,0.001714,-0.154360,0.003192,0.428494,0.053904,0.901935,-0.186520,0.006521,0.087017,-4.713257,373.746368,58.840393,,,,,,
1466451591.45,2.711562,-0.054000,-0.759028,-0.007247,0.334152,-0.005204,0.416291,0.053974,0.907628,-0.164582,0.002041,0.085689,-4.713257,373.746368,58.840393,,,,,,
1466451591.46,2.718238,-0.053920,-0.758847,-0.016259,0.774828,-0.016492,0.410224,0.053894,0.910391,-0.156379,-0.000045,0.078501,-5.555655,373.733551,58.847992,,,,,,
1466451591.47,2.729111,-0.053790,-0.758552,-0.026384,1.184701,-0.023331,0.400305,0.053764,0.914804,-0.128332,-0.002235,0.072654,-5.555655,373.733551,58.847992,,,,,,
1466451591.48,2.743482,-0.053617,-0.758171,-0.032358,1.508566,-0.029625,0.387121,0.053591,0.920470,-0.088079,-0.001879,0.061707,-5.555655,373.733551,58.847992,,,,,,
1466451591.49,2.760428,-0.053405,-0.757704,-0.038457,1.730501,-0.036346,0.371471,0.053380,0.926909,-0.057842,0.000621,0.043337,-5.555655,373.733551,58.847992,,,,,,
1466451591.50,2.779605,-0.053156,-0.757215,-0.042401,1.982151,-0.037928,0.353633,0.053131,0.933874,-0.054836,-0.003143,0.041071,-8.795204,373.663605,58.897247,,,,,,
1466451591.51,2.801234,-0.052854,-0.756659,-0.048495,2.211512,-0.042566,0.333359,0.052829,0.941319,-0.018906,0.003522,0.042187,-8.795204,373.663605,58.897247,,,,,,
1466451591.52,2.824186,-0.052523,-0.756079,-0.050499,2.308143,-0.045303,0.311674,0.052499,0.948738,0.012682,0.004813,0.026863,-8.795204,373.663605,58.897247,,,,,,
1466451591.53,2.847557,-0.052160,-0.755472,-0.053642,2.345313,-0.047668,0.289423,0.052136,0.955781,0.034918,-0.000577,0.016357,-11.485956,373.603668,58.814335,,,,,,
1466451591.54,2.871741,-0.051795,-0.754881,-0.051392,2.442995,-0.047214,0.266231,0.051772,0.962518,0.037511,0.001908,0.022864,-11.485956,373.603668,58.814335,,,,,,
1466451591.55,2.896209,-0.051426,-0.754263,-0.052456,2.436636,-0.051433,0.242607,0.051403,0.968762,0.083549,0.005878,0.010273,-11.485956,373.603668,58.814335,,,,,,
1466451591.57,2.944060,-0.050587,-0.753106,-0.054647,2.390974,-0.049020,0.196000,0.050565,0.979299,0.074127,0.011584,0.001795,-17.742071,373.455627,58.196735,,,,,,
1466451591.56,2.920153,-0.051013,-0.753682,-0.053601,2.381408,-0.045765,0.219348,0.050991,0.974313,0.070004,0.004902,-0.003686,-17.742071,373.455627,58.196735,,,,,,
1466451591.58,2.967459,-0.050135,-0.752574,-0.053701,2.304953,-0.043157,0.173037,0.050114,0.983640,0.113935,0.001491,0.002490,-17.742071,373.455627,58.196735,,,,,,
1466451591.59,2.988390,-0.049767,-0.752096,-0.041228,2.060733,-0.042677,0.152415,0.049746,0.987064,0.152227,-0.001742,-0.023029,-20.863625,373.375275,57.674461,,,,,,
1466451591.60,3.006686,-0.049431,-0.751668,-0.039497,1.751732,-0.035415,0.134333,0.049411,0.989704,0.169316,-0.002154,-0.044040,-20.863625,373.375275,57.674461,,,,,,
1466451591.61,3.022833,-0.049147,-0.751304,-0.031200,1.580769,-0.031142,0.118337,0.049127,0.991757,0.135111,0.002280,-0.047681,-20.863625,373.375275,57.674461,,,,,,
1466451591.62,3.037529,-0.048856,-0.750987,-0.032479,1.416179,-0.025853,0.103752,0.048837,0.993403,0.149269,0.009162,-0.032878,-25.935751,373.241547,56.469524,,,,,,
1466451591.63,3.049130,-0.048629,-0.750737,-0.025443,1.089130,-0.020601,0.092222,0.048609,0.994551,0.168917,0.017965,-0.065672,-25.935751,373.241547,56.469524,,,,,,
1466451591.64,3.057477,-0.048433,-0.750571,-0.020546,0.756768,-0.013190,0.083918,0.048414,0.995296,0.154760,0.001147,-0.064876,-25.935751,373.241547,56.469524,,,,,,
1466451591.65,3.063465,-0.048310,-0.750439,-0.012284,0.555019,-0.010852,0.077957,0.048291,0.995786,0.142013,-0.003812,-0.051344,-27.602829,373.195587,55.980968,,,,,,
1466451591.66,3.067613,-0.048266,-0.750351,-0.002937,0.368134,-0.008606,0.073826,0.048248,0.996103,0.130138,-0.009094,-0.038294,-27.602829,373.195587,55.980968,,,,,,
1466451591.67,3.062289,-0.048246,-0.750646,-0.001140,0.159993,-0.006219,0.079128,0.048228,0.995697,0.119557,0.018194,-0.063904,-28.503099,373.168884,55.707169,,,,,,
1466451591.68,3.054770,-0.049390,-0.751005,0.001764,-0.064103,0.000513,0.086608,0.049370,0.995018,0.111986,0.015801,-0.054787,-28.503099,373.168884,55.707169,,,,,,
1466451591.69,3.052545,-0.049407,-0.751048,0.001493,-0.275411,0.005031,0.088822,0.049387,0.994822,0.108734,0.013937,-0.054362,-28.503099,373.168884,55.707169,,,,,,
1466451591.70,3.042179,-0.049369,-0.751448,0.006550,-0.481447,0.010587,0.099129,0.049349,0.993850,0.098839,-0.002505,-0.031677,-27.704802,373.247040,55.586327,,,,,,
1466451591.71,3.036051,-0.049478,-0.751585,0.012721,-0.653465,0.012736,0.105217,0.049458,0.993219,0.092445,-0.011418,-0.031869,-27.704802,373.247040,55.586327,,,,,,
1466451591.72,3.028359,-0.049651,-0.751751,0.019981,-0.805309,0.014760,0.112852,0.049631,0.992371,0.088304,-0.009164,-0.022813,-27.704802,373.247040,55.586327,,,,,,
1466451591.73,3.018967,-0.049875,-0.751951,0.025076,-0.984763,0.018020,0.122166,0.049855,0.991257,0.084316,-0.001545,-0.038864,-27.704802,373.247040,55.586327,,,,,,
1466451591.74,3.007439,-0.050148,-0.752208,0.030139,-1.188638,0.021432,0.133584,0.050127,0.989769,0.081535,0.013029,-0.042183,-25.513205,373.300934,56.269257,,,,,,
1466451591.75,2.994319,-0.050410,-0.752497,0.030998,-1.347918,0.025625,0.146555,0.050388,0.987918,0.057043,0.003292,-0.026218,-25.513205,373.300934,56.269257,,,,,,
1466451591.76,2.979982,-0.050677,-0.752825,0.030865,-1.450918,0.028400,0.160702,0.050655,0.985702,0.039356,0.002766,-0.007904,-23.947987,373.346588,56.653019,,,,,,
1466451591.77,2.965277,-0.050957,-0.753174,0.034030,-1.474279,0.028550,0.175176,0.050935,0.983219,0.050135,-0.003435,-0.000827,-23.947987,373.346588,56.653019,,,,,,
1466451591.78,2.949120,-0.051310,-0.753564,0.038184,-1.559227,0.028022,0.191035,0.051287,0.980242,0.059392,0.002485,-0.015994,-23.947987,373.346588,56.653019,,,,,,
1466451591.79,2.932299,-0.051651,-0.753955,0.041168,-1.720635,0.033295,0.207492,0.051628,0.976873,0.025494,0.012215,-0.022940,-22.082176,373.396820,57.078220,,,,,,
1466451591.80,2.914564,-0.051974,-0.754379,0.038978,-1.767356,0.034651,0.224779,0.051950,0.973024,0.002256,0.007757,0.013304,-22.082176,373.396820,57.078220,,,,,,
1466451591.81,2.897514,-0.052239,-0.754807,0.032691,-1.682414,0.036241,0.241333,0.052215,0.969037,-0.027252,0.005707,0.022220,-22.082176,373.396820,57.078220,,,,,,
1466451591.82,2.881478,-0.052491,-0.755209,0.034967,-1.570917,0.032350,0.256837,0.052467,0.965030,-0.036927,-0.005241,0.043851,-17.695959,373.514893,57.829315,,,,,,
,,,,,,,,,,,,,,,,29.719983,-95.399091,10.299459,-1.000000,-1.000000,1466451919.50
1466451591.83,2.866675,-0.052747,-0.755582,0.034063,-1.447739,0.028383,0.271090,0.052723,0.961109,-0.043337,-0.012027,0.038296,-17.695959,373.514893,57.829315,,,,,,
1466451591.84,2.853202,-0.053008,-0.755930,0.034238,-1.311822,0.025402,0.284011,0.052983,0.957356,-0.035323,-0.011540,0.040721,-17.695959,373.514893,57.829315,,,,,,
1466451591.85,2.840853,-0.053241,-0.756238,0.032233,-1.216253,0.022672,0.295807,0.053216,0.953764,-0.025894,-0.011697,0.029634,-15.680399,373.565155,58.085659,,,,,,
1466451591.86,2.829135,-0.053511,-0.756525,0.034449,-1.152537,0.019081,0.306958,0.053486,0.950219,-0.050778,-0.010502,0.033088,-15.680399,373.565155,58.085659,,,,,,
1466451591.87,2.818629,-0.053789,-0.756788,0.034641,-1.003876,0.014956,0.316919,0.053763,0.946927,-0.071131,-0.013770,0.053256,-15.680399,373.565155,58.085659,,,,,,
1466451591.88,2.810404,-0.054062,-0.756988,0.030703,-0.756459,0.008078,0.324692,0.054035,0.944275,-0.077164,-0.005451,0.052551,-12.572899,373.655670,58.258926,,,,,,
1466451591.89,2.805989,-0.054212,-0.757055,0.026748,-0.517538,0.004446,0.328856,0.054185,0.942824,-0.076704,-0.004838,0.048020,-12.572899,373.655670,58.258926,,,,,,
1466451591.90,2.802162,-0.054423,-0.757139,0.021655,-0.339144,0.000129,0.332457,0.054396,0.941548,-0.073226,0.001314,0.032390,-12.572899,373.655670,58.258926,,,,,,
1466451591.91,2.800073,-0.054597,-0.757188,0.016553,-0.163941,-0.002039,0.334420,0.054570,0.940843,-0.067925,0.000743,0.035552,-11.794407,373.685394,58.231045,,,,,,
1466451591.92,2.803914,-0.054726,-0.756965,0.011472,0.025093,-0.006424,0.330802,0.054698,0.942114,-0.060889,0.000233,0.034510,-11.794407,373.685394,58.231045,,,,,,
1466451591.93,2.805548,-0.054860,-0.756918,0.010643,0.207732,-0.010763,0.329259,0.054832,0.942646,-0.057744,-0.002525,0.035091,-11.794407,373.685394,58.231045,,,,,,
1466451591.94,2.812078,-0.055105,-0.756652,0.006593,0.372334,-0.012864,0.323093,0.055077,0.944763,-0.049534,0.002814,0.025665,-11.794407,373.685394,58.231045,,,,,,
1466451591.95,2.817041,-0.055168,-0.756512,-0.000652,0.536920,-0.014968,0.318398,0.055140,0.946352,-0.044427,0.009954,0.017897,-11.896557,373.714264,58.024521,,,,,,
1466451591.96,2.823622,-0.055182,-0.756334,-0.004706,0.696198,-0.018100,0.312164,0.055154,0.948426,-0.037796,0.016684,0.010238,-11.896557,373.714264,58.024521,,,,,,
1466451591.97,2.831733,-0.055125,-0.756123,-0.014106,0.843791,-0.017971,0.304462,0.055097,0.950930,-0.028232,0.022662,0.004576,-12.741524,373.717590,57.823505,,,,,,
1466451591.99,2.851217,-0.055152,-0.755608,-0.027744,1.005193,-0.018996,0.285877,0.055125,0.956680,0.015988,0.021597,-0.013992,-12.741524,373.717590,57.823505,,,,,,
1466451591.98,2.841244,-0.055358,-0.755869,-0.021422,0.951041,-0.019715,0.295400,0.055330,0.953770,-0.008489,0.020552,-0.001927,-12.741524,373.717590,57.823505,,,,,,
1466451592.00,2.861311,-0.054905,-0.755354,-0.030945,1.003065,-0.016857,0.276209,0.054877,0.959530,0.029363,0.015329,-0.015896,-15.028521,373.689117,57.457134,,,,,,
1466451592.02,2.880544,-0.054434,-0.754894,-0.034176,0.975456,-0.015623,0.257712,0.054407,0.964689,0.017862,0.002646,-0.001112,-15.028521,373.689117,57.457134,,,,,,
1466451592.01,2.870966,-0.054696,-0.755121,-0.030992,0.965901,-0.016624,0.266936,0.054669,0.962162,0.022722,0.007938,-0.015431,-15.028521,373.689117,57.457134,,,,,,
1466451592.03,2.890660,-0.054139,-0.754650,-0.034111,1.027484,-0.015949,0.247944,0.054112,0.967262,0.015270,-0.000950,0.006935,-16.288347,373.650879,57.362659,,,,,,
1466451592.04,2.901259,-0.053841,-0.754392,-0.034060,1.064653,-0.018311,0.237682,0.053815,0.969851,0.022435,-0.000729,0.000425,-16.288347,373.650879,57.362659,,,,,,
1466451592.05,2.911926,-0.053550,-0.754145,-0.035129,1.062527,-0.017234,0.227326,0.053524,0.972347,0.026626,-0.000744,0.001393,-16.288347,373.650879,57.362659,,,,,,
1466451592.06,2.922317,-0.053245,-0.753899,-0.034111,1.025363,-0.017000,0.217214,0.053220,0.974672,0.043925,0.000659,-0.009981,-18.877762,373.561798,57.148415,,,,,,
1466451592.08,2.937889,-0.052593,-0.753631,-0.027954,0.844832,-0.013733,0.202018,0.052569,0.977970,0.070519,-0.004168,-0.016254,-18.877762,373.561798,57.148415,,,,,,
1466451592.09,2.941512,-0.051730,-0.753668,-0.021750,0.701459,-0.010698,0.198483,0.051707,0.978739,0.078617,-0.013560,-0.018901,-18.877762,373.561798,57.148415,,,,,,
1466451592.07,2.931277,-0.052975,-0.753708,-0.028876,0.956336,-0.015498,0.208476,0.052950,0.976593,0.057912,-0.000017,-0.016251,-18.877762,373.561798,57.148415,,,,,,
1466451592.10,2.944082,-0.050765,-0.753708,-0.013455,0.527299,-0.008534,0.195976,0.050744,0.979295,0.086342,-0.022362,-0.015580,-20.597908,373.452759,57.266773,,,,,,
1466451592.11,2.943395,-0.049320,-0.753836,0.000123,0.318096,-0.008273,0.196663,0.049300,0.979231,0.092109,-0.030150,-0.017149,-20.597908,373.452759,57.266773,,,,,,
1466451592.12,2.940737,-0.047926,-0.754010,0.016877,0.099328,-0.004756,0.199278,0.047908,0.978771,0.089494,-0.032527,-0.010113,-20.467287,373.331573,58.097885,,,,,,
1466451592.14,2.937555,-0.048575,-0.754057,0.040858,-0.307351,-0.003246,0.202386,0.048556,0.978101,0.077964,-0.025683,-0.016462,-20.467287,373.331573,58.097885,,,,,,
1466451592.13,2.940137,-0.048193,-0.754015,0.029390,-0.110915,-0.003425,0.199863,0.048174,0.978639,0.088788,-0.032824,-0.012223,-20.467287,373.331573,58.097885,,,,,,
1466451592.15,2.933251,-0.049038,-0.754118,0.048114,-0.466623,-0.003304,0.206589,0.049019,0.977199,0.063934,-0.012748,-0.016308,-20.128880,373.277313,58.562756,,,,,,
1466451592.16,2.925756,-0.049697,-0.754319,0.053273,-0.592998,0.000687,0.213900,0.049677,0.975592,0.037366,0.002661,-0.018896,-20.128880,373.277313,58.562756,,,,,,
1466451592.17,2.919185,-0.050208,-0.754472,0.053166,-0.673704,0.004387,0.220300,0.050187,0.974140,0.016760,0.020034,-0.024845,-20.128880,373.277313,58.562756,,,,,,
1466451592.18,2.912334,-0.050542,-0.754610,0.029743,-0.675810,0.002248,0.226966,0.050520,0.972592,-0.004065,0.110826,-0.079693,-18.898771,373.398376,58.199772,,,,,,
1466451592.20,2.899861,-0.050962,-0.754914,-0.005346,-0.613190,0.017787,0.239073,0.050940,0.969664,-0.042281,0.104258,-0.150039,-18.898771,373.398376,58.199772,,,,,,
1466451592.19,2.906095,-0.050953,-0.754815,0.046853,-0.609999,0.006110,0.233024,0.050931,0.971136,0.012459,-0.026196,0.057489,-18.898771,373.398376,58.199772,,,,,,
1466451592.21,2.894982,-0.052461,-0.755072,0.012883,-0.521867,0.011911,0.243783,0.052437,0.968411,-0.014672,0.054420,0.024905,-18.076595,373.448151,58.141640,,,,,,
1466451592.22,2.890303,-0.052248,-0.755181,-0.013658,-0.440130,0.024145,0.248314,0.052225,0.967271,-0.045433,-0.022516,-0.043473,-18.076595,373.448151,58.141640,,,,,,
1466451592.24,2.884024,-0.051884,-0.755343,-0.029346,-0.209720,0.025878,0.254387,0.051860,0.965711,-0.066185,0.021916,-0.001645,-17.474773,373.534637,57.768982,,,,,,
1466451592.23,2.886583,-0.052323,-0.755248,-0.006063,-0.373161,-0.005007,0.251909,0.052299,0.966337,-0.000399,0.068505,0.023623,-17.474773,373.534637,57.768982,,,,,,
1466451592.25,2.882411,-0.054832,-0.755419,-0.035701,-0.216040,0.009946,0.255905,0.054805,0.965147,-0.026107,0.066045,-0.041807,-17.474773,373.534637,57.768982,,,,,,
1466451592.27,2.881471,-0.054127,-0.755432,-0.036402,0.060052,-0.000301,0.256822,0.054101,0.964943,-0.019456,0.055777,-0.047295,-17.474773,373.534637,57.768982,,,,,,
1466451592.26,2.881404,-0.054462,-0.755471,-0.030222,-0.073794,0.020769,0.256881,0.054435,0.964909,-0.044387,-0.077857,0.072521,-17.474773,373.534637,57.768982,,,,,,
1466451592.28,2.883064,-0.053728,-0.755437,-0.045912,0.147075,0.017239,0.255290,0.053702,0.965372,-0.049418,-0.011558,0.037924,-16.724300,373.631470,57.363480,,,,,,
1466451592.29,2.885235,-0.053388,-0.755334,-0.034191,0.130126,0.002455,0.253197,0.053362,0.965942,-0.013055,0.003523,0.032303,-16.724300,373.631470,57.363480,,,,,,
1466451592.30,2.886941,-0.052944,-0.755323,-0.047977,0.189568,0.011648,0.251556,0.052919,0.966395,-0.032973,0.012572,0.013555,-16.904928,373.590515,57.576832,,,,,,
1466451592.31,2.889343,-0.052666,-0.755292,-0.014878,0.250098,0.002786,0.249237,0.052642,0.967011,-0.008728,-0.101622,0.074508,-16.904928,373.590515,57.576832,,,,,,
1466451592.33,2.892865,-0.049431,-0.755189,0.031898,0.162013,-0.021099,0.245871,0.049411,0.968042,0.021234,-0.085055,0.098837,-17.089249,373.552002,57.771908,,,,,,
1466451592.32,2.891117,-0.052677,-0.755290,0.006312,0.154545,-0.004045,0.247521,0.052653,0.967451,-0.002449,-0.112742,0.064654,-17.089249,373.552002,57.771908,,,,,,
1466451592.34,2.895302,-0.049720,-0.755089,0.026711,0.280920,-0.015464,0.243507,0.049700,0.968625,-0.012656,0.001600,-0.031003,-17.089249,373.552002,57.771908,,,,,,
1466451592.35,2.898372,-0.049984,-0.754983,0.016072,0.289417,-0.014463,0.240529,0.049963,0.969355,0.004405,0.038523,0.004110,-17.089249,373.552002,57.771908,,,,,,
1466451592.36,2.900562,-0.050036,-0.754949,0.006356,0.201260,-0.002211,0.238405,0.050015,0.969877,-0.009477,0.047748,-0.068006,-100.173363,360.777344,-32.745457,,,,,,
1466451592.37,2.901944,-0.052605,-0.754945,-0.001038,0.238428,-0.004579,0.237033,0.052581,0.970078,0.009243,0.054368,-0.044388,-100.173363,360.777344,-32.745457,,,,,,
1466451592.38,2.904545,-0.052516,-0.754863,-0.013797,0.251179,-0.005736,0.234510,0.052492,0.970695,0.015398,0.019591,-0.001640,-100.293495,360.626190,-34.017944,,,,,,
1466451592.39,2.906162,-0.052372,-0.754819,-0.017161,0.125870,0.001433,0.232942,0.052348,0.971081,0.007308,0.055409,-0.044872,-100.293495,360.626190,-34.017944,,,,,,
1466451592.40,2.906778,-0.052119,-0.754838,-0.025789,0.048345,0.008297,0.232347,0.052096,0.971237,0.009657,0.036024,-0.035324,-100.293495,360.626190,-34.017944,,,,,,
1466451592.41,2.906182,-0.052127,-0.754892,-0.025777,0.056834,0.008245,0.232926,0.052104,0.971098,0.020416,0.006246,-0.022581,-100.293495,360.626190,-34.017944,,,,,,
1466451592.42,2.906250,-0.051971,-0.754915,-0.014156,-0.022795,0.004498,0.232862,0.051948,0.971121,0.027209,-0.043265,0.027948,-100.126747,360.648621,-34.270420,,,,,,
1466451592.43,2.905335,-0.051959,-0.754947,0.007041,-0.105618,0.001845,0.233750,0.051936,0.970909,0.028350,-0.072718,0.035500,-100.126747,360.648621,-34.270420,,,,,,
1466451592.44,2.904081,-0.052071,-0.754967,0.011288,-0.121535,-0.002309,0.234966,0.052047,0.970609,0.019032,-0.027175,-0.001127,-100.122200,360.663055,-34.131660,,,,,,
1466451592.45,2.902799,-0.051960,-0.754975,0.012346,-0.124725,-0.001223,0.236212,0.051937,0.970313,0.006494,-0.005489,0.017190,-100.122200,360.663055,-34.131660,,,,,,
1466451592.46,2.901125,-0.052036,-0.755000,0.008022,-0.176751,-0.000901,0.237835,0.052013,0.969912,-0.003185,0.032032,-0.033114,-100.122200,360.663055,-34.131660,,,,,,
1466451592.47,2.899285,-0.052071,-0.755061,0.004811,-0.179953,0.005502,0.239619,0.052048,0.969471,-0.010981,0.015640,-0.022388,-100.122200,360.663055,-34.131660,,,,,,
1466451592.48,2.897685,-0.052010,-0.755090,-0.007931,-0.155519,0.003207,0.241170,0.051986,0.969090,-0.013173,0.038575,-0.022053,-100.296700,360.666840,-33.574890,,,,,,
1466451592.49,2.897134,-0.051114,-0.755092,0.000634,-0.114112,0.004020,0.241715,0.051092,0.969001,-0.010896,-0.020376,0.029244,-100.296700,360.666840,-33.574890,,,,,,
1466451592.51,2.895796,-0.050988,-0.755105,-0.004557,-0.015350,-0.000862,0.243013,0.050966,0.968683,-0.003862,-0.018496,0.072073,-100.273926,360.723724,-33.027130,,,,,,
1466451592.50,2.896008,-0.050998,-0.755099,-0.013186,-0.097116,0.003900,0.242807,0.050976,0.968734,-0.022089,0.040088,-0.057098,-100.273926,360.723724,-33.027130,,,,,,
1466451592.52,2.895999,-0.050849,-0.755080,-0.007685,0.043042,0.001962,0.242818,0.050827,0.968739,-0.019948,0.003830,-0.021840,-100.273926,360.723724,-33.027130,,,,,,
1466451592.53,2.897075,-0.050905,-0.755025,-0.010903,0.021815,0.001027,0.241775,0.050883,0.968997,-0.018768,0.002141,-0.001224,-100.273926,360.723724,-33.027130,,,,,,
1466451592.54,2.897804,-0.050893,-0.755002,0.003015,0.081271,-0.000396,0.241068,0.050871,0.969174,-0.006297,-0.035612,0.052967,-100.273926,360.723724,-33.027130,,,,,,
1466451592.55,2.898592,-0.050900,-0.754966,-0.000175,0.079158,-0.003580,0.240304,0.050878,0.969363,-0.012780,0.000743,-0.014789,-100.281334,360.729462,-32.941883,,,,,,
1466451592.56,2.899097,-0.050981,-0.754963,0.009341,0.029243,-0.001128,0.239814,0.050959,0.969481,-0.012275,-0.026789,0.030413,-100.251259,360.724579,-33.086662,,,,,,
1466451592.57,2.899341,-0.051096,-0.754932,0.010421,0.031384,-0.007527,0.239576,0.051074,0.969533,-0.001096,0.000028,-0.002874,-100.251259,360.724579,-33.086662,,,,,,
1466451592.58,2.899847,-0.051146,-0.754920,0.002995,0.060044,-0.003457,0.239085,0.051124,0.969652,-0.011546,0.012475,-0.017397,-100.251259,360.724579,-33.086662,,,,,,
1466451592.59,2.900544,-0.051141,-0.754910,-0.002312,0.074909,-0.002491,0.238409,0.051119,0.969818,-0.006033,0.011320,-0.019394,-100.251259,360.724579,-33.086662,,,,,,
1466451592.60,2.901108,-0.051115,-0.754896,-0.003398,0.057921,-0.002385,0.237863,0.051093,0.969954,-0.004296,0.005472,-0.019972,-100.227112,360.705963,-33.361599,,,,,,
1466451592.61,2.901514,-0.051226,-0.754883,-0.005507,0.074907,-0.001429,0.237467,0.051203,0.970045,0.001974,0.002950,-0.018980,-100.227112,360.705963,-33.361599,,,,,,
1466451592.62,2.902163,-0.051153,-0.754878,-0.009793,0.062153,0.003969,0.236839,0.051131,0.970203,-0.003425,0.010484,-0.020557,-100.211563,360.698730,-33.486012,,,,,,
1466451592.63,2.902669,-0.051063,-0.754859,-0.009824,0.038790,0.005180,0.236349,0.051040,0.970327,0.005182,0.025193,0.001246,-100.211563,360.698730,-33.486012,,,,,,
1466451592.64,2.902941,-0.050979,-0.754833,-0.009846,0.014380,0.001075,0.236085,0.050957,0.970395,0.013594,0.008430,0.020678,-100.211563,360.698730,-33.486012,,,,,,
1466451592.65,2.902456,-0.050874,-0.754845,-0.005589,0.008013,-0.002074,0.236557,0.050852,0.970286,0.010681,-0.000879,-0.012950,-100.167122,360.705872,-33.542423,,,,,,
1466451592.66,2.902325,-0.050780,-0.754835,-0.009870,-0.011094,-0.003023,0.236686,0.050758,0.970259,0.003152,0.004631,-0.029113,-100.167122,360.705872,-33.542423,,,,,,
1466451592.67,2.902021,-0.050672,-0.754856,-0.011035,-0.031260,0.002439,0.236981,0.050651,0.970193,0.001819,-0.003303,-0.013619,-100.167122,360.705872,-33.542423,,,,,,
1466451592.68,2.901358,-0.050578,-0.754866,-0.010023,-0.071612,0.003757,0.237626,0.050556,0.970040,-0.002382,0.007885,-0.021905,-100.156601,360.727478,-33.340534,,,,,,
1466451592.69,2.900716,-0.049973,-0.754875,-0.000462,-0.088602,0.002809,0.238257,0.049952,0.969917,0.001032,-0.013957,0.023186,-100.156601,360.727478,-33.340534,,,,,,
1466451592.70,2.899930,-0.049970,-0.754892,0.001684,-0.076920,0.001673,0.239019,0.049949,0.969729,0.000529,-0.015617,0.017743,-100.156601,360.727478,-33.340534,,,,,,
1466451592.71,2.899212,-0.050025,-0.754917,0.007021,-0.068425,0.000561,0.239714,0.050004,0.969555,-0.003310,-0.020493,0.011173,-100.133141,360.768372,-32.966446,,,,,,
1466451592.72,2.898586,-0.050138,-0.754928,0.012362,-0.057804,-0.001629,0.240320,0.050117,0.969399,-0.010538,-0.017143,0.003578,-100.133141,360.768372,-32.966446,,,,,,
1466451592.73,2.898520,-0.050037,-0.754919,0.013430,-0.054617,-0.001648,0.240385,0.050016,0.969388,-0.014494,-0.006452,-0.002439,-100.133141,360.768372,-32.966446,,,,,,
1466451592.75,2.898795,-0.050931,-0.754904,0.004932,-0.035503,0.001416,0.240108,0.050909,0.969410,-0.021358,0.020975,-0.011433,-100.195259,360.768799,-32.772980,,,,,,
1466451592.74,2.898521,-0.050061,-0.754902,0.010246,-0.046118,-0.001705,0.240384,0.050041,0.969387,-0.012066,-0.002525,0.005894,-100.195259,360.768799,-32.772980,,,,,,
1466451592.76,2.899186,-0.051426,-0.754878,0.003942,0.017598,-0.002111,0.239723,0.051403,0.969480,-0.008216,0.012730,0.007937,-100.195259,360.768799,-32.772980,,,,,,
1466451592.77,2.900126,-0.051834,-0.754846,-0.001329,0.060072,-0.001318,0.238806,0.051811,0.969684,-0.012228,0.011925,-0.000415,-100.269241,360.717224,-33.112232,,,,,,
1466451592.78,2.901125,-0.051758,-0.754798,0.000843,0.088750,-0.004689,0.237838,0.051735,0.969926,-0.002044,-0.002311,0.007674,-100.269241,360.717224,-33.112232,,,,,,
1466451592.79,2.901922,-0.051828,-0.754747,0.005114,0.093003,-0.007905,0.237064,0.051805,0.970112,0.003063,0.000929,-0.007191,-100.323357,360.661133,-33.556496,,,,,,
1466451592.81,2.907299,-0.051336,-0.754384,-0.001845,0.474223,-0.019883,0.231850,0.051313,0.971397,-0.130150,0.002642,0.040276,-100.323357,360.661133,-33.556496,,,,,,
1466451592.80,2.903693,-0.051288,-0.754576,0.008380,0.135506,-0.018813,0.235352,0.051266,0.970557,-0.008134,-0.020336,0.039193,-100.323357,360.661133,-33.556496,,,,,,
1466451592.82,2.917800,-0.051153,-0.754040,-0.038101,1.265308,-0.033396,0.221639,0.051131,0.973787,-0.184011,0.006364,0.128187,-100.200928,360.648010,-34.059517,,,,,,
1466451592.83,2.935078,-0.050547,-0.753383,-0.082107,1.799475,-0.058079,0.204788,0.050526,0.977501,-0.024246,0.020596,0.118919,-100.200928,360.648010,-34.059517,,,,,,
1466451592.84,2.948752,-0.050103,-0.752776,-0.028675,1.127292,-0.041037,0.191407,0.050082,0.980232,0.240447,0.020856,-0.055641,-100.200928,360.648010,-34.059517,,,,,,
1466451592.85,2.952495,-0.050747,-0.752905,0.079682,0.148141,0.006726,0.187731,0.050725,0.980910,0.313520,-0.064061,-0.178710,-99.512894,360.602570,-36.472130,,,,,,
1466451592.87,2.944366,-0.050976,-0.753308,0.018179,-0.486810,0.019162,0.195696,0.050954,0.979340,-0.031709,0.030116,-0.023194,-99.512894,360.602570,-36.472130,,,,,,
1466451592.86,2.949352,-0.050889,-0.753111,-0.000907,-0.422033,0.019801,0.190812,0.050867,0.980308,0.144027,0.035803,-0.167640,-99.512894,360.602570,-36.472130,,,,,,
1466451592.88,2.943247,-0.050959,-0.753395,-0.007721,0.070676,0.006060,0.196791,0.050937,0.979121,-0.162902,0.037305,-0.009730,-99.226540,360.571869,-37.540810,,,,,,
1466451592.89,2.949660,-0.050769,-0.753252,-0.025927,0.809744,-0.014560,0.190511,0.050747,0.980373,-0.163915,-0.033841,0.208211,-99.226540,360.571869,-37.540810,,,,,,
1466451592.90,2.960842,-0.050625,-0.752981,-0.015869,1.173964,-0.026414,0.179538,0.050604,0.982449,-0.127200,-0.020269,0.107319,-99.226540,360.571869,-37.540810,,,,,,
1466451592.91,2.972875,-0.050410,-0.752678,-0.027539,1.205827,-0.027690,0.167705,0.050388,0.984549,-0.088420,-0.011036,0.005655,-99.226540,360.571869,-37.540810,,,,,,
1466451592.92,2.984952,-0.050231,-0.752362,-0.022214,1.204765,-0.028743,0.155804,0.050210,0.986511,-0.019787,-0.010598,0.022217,-98.306923,360.546906,-40.111603,,,,,,
1466451592.93,2.996795,-0.049934,-0.751946,-0.039275,1.167640,-0.039172,0.144113,0.049914,0.988302,0.055884,0.011900,0.001963,-98.306923,360.546906,-40.111603,,,,,,
1466451592.94,3.006717,-0.049586,-0.751394,-0.041695,0.908608,-0.054581,0.134302,0.049566,0.989700,0.155997,-0.015417,-0.013443,-98.306923,360.546906,-40.111603,,,,,,
1466451592.95,3.013336,-0.049597,-0.750951,0.011096,0.582559,-0.034387,0.127748,0.049576,0.990567,0.309401,0.000091,-0.045804,-97.556877,360.507507,-42.240181,,,,,,
1466451592.96,3.018109,-0.049920,-0.750883,0.031130,0.472042,-0.004934,0.123017,0.049899,0.991149,0.328582,0.010938,-0.030822,-97.556877,360.507507,-42.240181,,,,,,
1466451592.97,3.024675,-0.049966,-0.750849,-0.008993,0.738578,-0.007710,0.116506,0.049945,0.991933,0.132548,0.018139,0.018534,-97.556877,360.507507,-42.240181,,,,,,
1466451592.98,3.034617,-0.049652,-0.750623,-0.035167,1.076273,-0.020499,0.106640,0.049632,0.993058,-0.041928,0.031957,0.043624,-96.737732,360.406403,-44.903194,,,,,,
1466451592.99,3.046288,-0.049371,-0.750345,-0.031857,1.158048,-0.027395,0.095045,0.049351,0.994249,-0.092435,0.014675,0.033263,-96.737732,360.406403,-44.903194,,,,,,
1466451593.00,3.055729,-0.049096,-0.750053,-0.026917,0.850126,-0.026523,0.085655,0.049076,0.995115,-0.100212,0.003826,-0.056456,-95.906029,360.393860,-46.750229,,,,,,
1466451593.02,3.068114,-0.049024,-0.749533,-0.002673,0.651562,-0.027383,0.073324,0.049005,0.996103,-0.176611,-0.017526,-0.027064,-95.906029,360.393860,-46.750229,,,,,,
1466451593.01,3.061998,-0.049031,-0.749800,-0.003839,0.574045,-0.024769,0.079415,0.049011,0.995636,-0.135521,-0.010651,-0.074707,-95.906029,360.393860,-46.750229,,,,,,
1466451593.03,3.078179,-0.048934,-0.749197,-0.016925,1.161255,-0.038045,0.063296,0.048915,0.996795,-0.176867,-0.008616,0.037491,-95.346687,360.363159,-48.110863,,,,,,
1466451593.04,3.092770,-0.048460,-0.748808,-0.054884,1.476598,-0.028351,0.048746,0.048441,0.997636,0.023795,0.017187,0.113784,-95.346687,360.363159,-48.110863,,,,,,
1466451593.05,3.103375,-0.048272,-0.748819,-0.005661,0.872322,0.006356,0.038164,0.048253,0.998106,0.076658,-0.004964,-0.067716,-95.346687,360.363159,-48.110863,,,,,,
1466451593.06,3.107094,-0.048221,-0.749206,-0.007548,0.263828,0.039975,0.034452,0.048202,0.998243,0.022601,-0.025284,-0.146269,-95.346687,360.363159,-48.110863,,,,,,
1466451593.07,3.116089,-0.047494,-0.748488,-0.082495,1.331493,-0.154138,0.025472,0.047476,0.998548,0.083293,0.083292,-0.121808,-93.619919,360.315704,-51.722366,,,,,,
1466451593.08,3.124412,-0.047257,-0.748890,-0.055224,0.374414,-0.009730,0.017161,0.047239,0.998736,0.173986,-0.214689,0.562696,-93.619919,360.315704,-51.722366,,,,,,
1466451593.09,3.119885,-0.047751,-0.749272,0.110641,-0.571888,0.051721,0.021681,0.047733,0.998625,0.045793,0.197324,-0.776152,-93.619919,360.315704,-51.722366,,,,,,
1466451593.11,3.103956,-0.047892,-0.749595,0.070611,-1.058209,0.067505,0.037584,0.047874,0.998146,0.165877,-0.027244,0.093773,-92.585068,360.385803,-53.078766,,,,,,
1466451593.10,3.112844,-0.047380,-0.749296,-0.073729,-0.644109,0.092439,0.028712,0.047362,0.998465,0.313329,0.072923,0.113962,-92.585068,360.385803,-53.078766,,,,,,
1466451593.12,3.091171,-0.048262,-0.749687,0.022309,-1.407450,0.045165,0.050341,0.048243,0.997566,0.254026,0.076406,-0.049431,-92.585068,360.385803,-53.078766,,,,,,
1466451593.13,3.073491,-0.048632,-0.750187,0.080230,-1.883226,0.069495,0.067969,0.048612,0.996502,0.077417,-0.053770,-0.251294,-93.303673,360.407501,-51.653984,,,,,,
1466451593.14,3.053108,-0.049308,-0.750454,0.050363,-2.008363,0.019157,0.088261,0.049288,0.994877,0.106685,0.016798,-0.043873,-93.303673,360.407501,-51.653984,,,,,,
1466451593.15,3.032514,-0.049660,-0.750926,0.038497,-2.127285,0.022020,0.108729,0.049640,0.992831,0.062689,-0.062702,0.124646,-94.638054,360.420502,-49.071053,,,,,,
1466451593.17,2.984237,-0.050887,-0.752018,0.040162,-2.469236,0.042261,0.156504,0.050865,0.986367,0.072469,0.022102,0.017036,-94.638054,360.420502,-49.071053,,,,,,
1466451593.16,3.009235,-0.050499,-0.751532,0.103100,-2.389606,0.032245,0.131803,0.050477,0.989990,0.040392,0.014724,-0.149429,-94.638054,360.420502,-49.071053,,,,,,
1466451593.18,2.958650,-0.051642,-0.752697,0.085741,-2.625355,0.047544,0.181682,0.051619,0.982002,0.028859,-0.051055,0.114846,-98.107803,360.460632,-41.355400,,,,,,
1466451593.19,2.931338,-0.052351,-0.753335,0.078127,-2.759130,0.045182,0.208423,0.052327,0.976638,0.037640,0.004070,-0.040694,-98.107803,360.460632,-41.355400,,,,,,
1466451593.20,2.903726,-0.053009,-0.754032,0.094089,-2.739011,0.062103,0.235299,0.052984,0.970478,-0.020990,-0.062826,0.149243,-98.107803,360.460632,-41.355400,,,,,,
1466451593.21,2.876449,-0.053800,-0.754717,0.087741,-2.718812,0.054519,0.261669,0.053774,0.963658,-0.011929,-0.080232,0.053584,-98.107803,360.460632,-41.355400,,,,,,
1466451593.22,2.851082,-0.054718,-0.755308,0.109345,-2.510643,0.028752,0.286013,0.054691,0.956664,-0.046267,-0.001789,-0.001876,-101.320564,360.537689,-31.843098,,,,,,
1466451593.23,2.826755,-0.055667,-0.755908,0.119104,-2.378969,0.022614,0.309182,0.055639,0.949374,-0.069375,-0.041280,0.150297,-101.320564,360.537689,-31.843098,,,,,,
1466451593.24,2.803778,-0.056590,-0.756487,0.094765,-2.257914,0.022895,0.330896,0.056560,0.941971,-0.085855,0.016347,0.033157,-102.576309,360.536163,-27.550697,,,,,,
1466451593.26,2.764476,-0.058328,-0.757523,0.092197,-1.773704,0.010275,0.367615,0.058295,0.928149,-0.119385,-0.002540,0.088803,-102.576309,360.536163,-27.550697,,,,,,
1466451593.25,2.782927,-0.057491,-0.757025,0.106781,-2.027489,0.014011,0.350446,0.057459,0.934819,-0.100247,-0.002665,0.079112,-102.576309,360.536163,-27.550697,,,,,,
1466451593.27,2.749113,-0.059151,-0.757900,0.092615,-1.457258,-0.002353,0.381811,0.059117,0.922348,-0.188421,-0.026539,0.064789,-103.537766,360.528870,-23.793213,,,,,,
1466451593.28,2.734709,-0.059894,-0.758754,0.095724,-1.420278,0.063414,0.395040,0.059858,0.916712,-0.002904,0.192507,-0.173761,-103.537766,360.528870,-23.793213,,,,,,
1466451593.29,2.731127,-0.060249,-0.758226,0.032837,0.123788,-0.009135,0.398313,0.060212,0.915271,-0.177060,-0.110948,0.645047,-103.537766,360.528870,-23.793213,,,,,,
1466451593.30,2.731243,-0.060359,-0.758338,-0.015539,-0.194817,0.024748,0.398204,0.060322,0.915311,-0.294322,0.098171,-0.180524,-104.629791,360.471863,-19.491871,,,,,,
1466451593.31,2.724605,-0.060695,-0.759104,0.068926,-0.701447,0.067394,0.404262,0.060658,0.912630,0.079411,-0.102497,0.061324,-104.629791,360.471863,-19.491871,,,,,,
1466451593.32,2.727934,-0.060473,-0.758874,-0.088335,0.584161,0.173071,0.401227,0.060436,0.913983,-0.332807,0.088383,-0.268551,-104.629791,360.471863,-19.491871,,,,,,
1466451593.33,2.744410,-0.060955,-0.757994,0.050963,1.782418,-0.056775,0.386104,0.060917,0.920442,-0.300533,-0.098591,0.283004,-104.529800,360.522339,-19.089951,,,,,,
1466451593.34,2.757671,-0.060679,-0.757717,-0.054230,1.124120,-0.041043,0.373870,0.060642,0.925496,-0.356765,0.127133,-0.273778,-104.529800,360.522339,-19.089951,,,,,,
1466451593.35,2.772717,-0.060489,-0.757087,-0.010543,1.843209,-0.143438,0.359907,0.060452,0.931028,-0.113523,0.022555,0.496951,-104.529800,360.522339,-19.089951,,,,,,
1466451593.36,2.795359,-0.059857,-0.756847,-0.078201,2.387675,-0.047927,0.338750,0.059822,0.938973,-0.121785,0.125466,-0.020027,-104.144096,360.356964,-23.751389,,,,,,
1466451593.37,2.821779,-0.059278,-0.756035,-0.059523,2.795489,-0.083464,0.313837,0.059243,0.947627,0.027853,-0.131555,0.422109,-104.144096,360.356964,-23.751389,,,,,,
1466451593.38,2.847362,-0.058627,-0.755540,-0.111182,2.424825,-0.037548,0.289505,0.058593,0.955381,0.001968,0.049699,-0.199476,-104.144096,360.356964,-23.751389,,,,,,
1466451593.39,2.872006,-0.058254,-0.754877,-0.032337,2.451360,-0.048280,0.265882,0.058221,0.962246,0.033877,-0.069436,0.087421,-103.077438,360.335876,-28.290627,,,,,,
1466451593.40,2.895330,-0.057752,-0.754313,-0.071915,2.302733,-0.049517,0.243375,0.057720,0.968213,0.056461,-0.011882,0.005999,-103.077438,360.335876,-28.290627,,,,,,
1466451593.41,2.918801,-0.057483,-0.753693,-0.036707,2.344152,-0.059321,0.220588,0.057452,0.973674,0.032998,-0.005312,-0.014811,-103.077438,360.335876,-28.290627,,,,,,
1466451593.42,2.941869,-0.057073,-0.753163,-0.046390,2.284661,-0.046184,0.198076,0.057042,0.978526,0.079573,-0.013631,0.029913,-100.536194,360.232635,-37.312176,,,,,,
1466451593.43,2.963166,-0.056768,-0.752657,-0.043401,2.110541,-0.051476,0.177196,0.056737,0.982539,0.142949,0.025462,-0.011836,-100.536194,360.232635,-37.312176,,,,,,
1466451593.44,2.982829,-0.056368,-0.752215,-0.048988,1.917266,-0.039625,0.157846,0.056338,0.985855,0.140326,0.038267,-0.050415,-100.536194,360.232635,-37.312176,,,,,,
1466451593.45,3.000152,-0.055995,-0.751845,-0.045043,1.674100,-0.033838,0.140749,0.055966,0.988462,0.130644,0.023685,-0.044340,-100.536194,360.232635,-37.312176,,,,,,
1466451593.46,3.015878,-0.055485,-0.751527,-0.062272,1.537106,-0.022352,0.125191,0.055457,0.990582,0.127159,0.066995,-0.109860,-97.758690,360.153137,-44.723919,,,,,,
1466451593.47,3.030067,-0.055023,-0.751246,-0.044386,1.372505,-0.017044,0.111126,0.054995,0.992284,0.144443,0.007490,-0.048863,-97.758690,360.153137,-44.723919,,,,,,
1466451593.49,3.046639,-0.054113,-0.750921,-0.038008,0.525165,-0.005337,0.094672,0.054086,0.994038,0.118356,0.013846,-0.080967,-96.553726,360.155273,-47.252628,,,,,,
1466451593.48,3.040457,-0.054515,-0.751026,-0.053467,0.923367,-0.014236,0.100814,0.054488,0.993412,0.135530,0.014207,-0.093067,-96.553726,360.155273,-47.252628,,,,,,
1466451593.50,3.049611,-0.053812,-0.750875,-0.025635,0.218272,0.006180,0.091719,0.053786,0.994331,0.108674,-0.037353,-0.031196,-96.553726,360.155273,-47.252628,,,,,,
1466451593.52,3.038762,-0.051505,-0.751324,0.012862,-0.490001,0.010663,0.102513,0.051482,0.993399,0.113490,-0.043242,-0.004660,-95.843719,360.178162,-48.507027,,,,,,
1466451593.51,3.042973,-0.051417,-0.751223,-0.011249,-0.182078,0.012966,0.098330,0.051394,0.993826,0.103895,-0.044268,-0.049704,-95.843719,360.178162,-48.507027,,,,,,
1466451593.53,3.032513,-0.051707,-0.751430,0.026475,-0.672638,0.011822,0.108718,0.051684,0.992728,0.098664,-0.052325,-0.004935,-95.843719,360.178162,-48.507027,,,,,,
1466451593.54,3.023789,-0.052089,-0.751621,0.042098,-0.949776,0.013576,0.117372,0.052065,0.991722,0.088408,-0.005465,-0.057335,-96.241913,360.361206,-46.309319,,,,,,
1466451593.55,3.011960,-0.052524,-0.751899,0.048145,-1.215243,0.019505,0.129091,0.052500,0.990242,0.087171,-0.001688,-0.027763,-96.241913,360.361206,-46.309319,,,,,,
1466451593.56,2.998526,-0.052954,-0.752184,0.045822,-1.371324,0.019417,0.142379,0.052929,0.988396,0.068421,0.019749,-0.040062,-96.241913,360.361206,-46.309319,,,,,,
1466451593.57,2.984193,-0.053377,-0.752514,0.044659,-1.446718,0.022017,0.156528,0.053352,0.986232,0.045850,0.034645,-0.023051,-97.042870,360.357330,-44.637947,,,,,,
1466451593.58,2.969837,-0.053735,-0.752861,0.042558,-1.416998,0.026086,0.170666,0.053709,0.983864,0.047092,0.014894,0.022163,-97.042870,360.357330,-44.637947,,,,,,
1466451593.59,2.955537,-0.054017,-0.753190,0.025500,-1.432920,0.027234,0.184714,0.053991,0.981308,0.048058,0.051417,-0.065903,-97.042870,360.357330,-44.637947,,,,,,
1466451593.60,2.940275,-0.054259,-0.753581,0.032769,-1.569913,0.034487,0.199666,0.054232,0.978362,0.040309,0.037702,-0.034942,-99.045883,360.388428,-39.715790,,,,,,
1466451593.61,2.923355,-0.054397,-0.754015,0.020877,-1.704771,0.040643,0.216189,0.054370,0.974836,0.010648,0.036679,-0.031813,-99.045883,360.388428,-39.715790,,,,,,
1466451593.62,2.906651,-0.054463,-0.754467,0.012427,-1.644256,0.044513,0.232441,0.054436,0.971086,-0.019780,0.037025,-0.016603,-99.045883,360.388428,-39.715790,,,,,,
1466451593.63,2.891190,-0.054484,-0.754885,0.006193,-1.521083,0.043734,0.247426,0.054457,0.967375,-0.038991,0.025545,0.021028,-99.045883,360.388428,-39.715790,,,,,,
1466451593.64,2.876655,-0.054326,-0.755292,-0.009669,-1.427648,0.047390,0.261462,0.054299,0.963685,-0.058292,0.040306,-0.011964,-100.842117,360.513489,-33.588120,,,,,,
1466451593.65,2.863209,-0.054059,-0.755694,-0.018049,-1.314037,0.048798,0.274400,0.054033,0.960096,-0.065080,0.047835,-0.001066,-100.842117,360.513489,-33.588120,,,,,,
1466451593.66,2.851131,-0.053612,-0.756053,-0.037097,-1.171730,0.048965,0.285984,0.053586,0.956735,-0.051761,0.048343,-0.003625,-100.842117,360.513489,-33.588120,,,,,,
1466451593.67,2.840215,-0.053111,-0.756370,-0.051885,-1.076162,0.049415,0.296417,0.053086,0.953582,-0.048904,0.053801,-0.009750,-101.419212,360.609863,-30.691017,,,,,,
1466451593.68,2.829950,-0.052442,-0.756679,-0.053930,-1.009268,0.048994,0.306201,0.052418,0.950523,-0.052935,0.014004,0.060723,-101.419212,360.609863,-30.691017,,,,,,
1466451593.69,2.820436,-0.051792,-0.756950,-0.052750,-0.925371,0.043146,0.315241,0.051769,0.947599,-0.067453,-0.030788,0.104251,-101.419212,360.609863,-30.691017,,,,,,
1466451593.70,2.812588,-0.051227,-0.757150,-0.045025,-0.724668,0.032315,0.322677,0.051204,0.945123,-0.061904,-0.042797,0.098700,-101.949348,360.850555,-25.699955,,,,,,
1466451593.71,2.808055,-0.050422,-0.757246,-0.039353,-0.457072,0.023191,0.326971,0.050401,0.943689,-0.062537,-0.037736,0.096319,-101.949348,360.850555,-25.699955,,,,,,
1466451593.72,2.804802,-0.050002,-0.757325,-0.034880,-0.291425,0.018964,0.330047,0.049981,0.942640,-0.075393,-0.024698,0.061128,-101.949348,360.850555,-25.699955,,,,,,
1466451593.73,2.802351,-0.049623,-0.757401,-0.032677,-0.233027,0.018600,0.332363,0.049603,0.941846,-0.086178,-0.021801,0.016039,-101.996826,360.953857,-24.005054,,,,,,
1466451593.74,2.800365,-0.049326,-0.757503,-0.021967,-0.183127,0.018297,0.334237,0.049306,0.941198,-0.088952,-0.040822,0.018167,-101.996826,360.953857,-24.005054,,,,,,
1466451593.75,2.803535,-0.047270,-0.757373,-0.017642,-0.126824,0.015820,0.331285,0.047253,0.942347,-0.085893,-0.034069,0.003546,-101.996826,360.953857,-24.005054,,,,,,
1466451593.76,2.802873,-0.047137,-0.757462,-0.005822,-0.044004,0.013183,0.331911,0.047120,0.942133,-0.076967,-0.032975,0.022054,-101.683548,361.140045,-22.485897,,,,,,
1466451593.77,2.806963,-0.045804,-0.757355,-0.006735,0.076008,0.009236,0.328075,0.045788,0.943541,-0.057339,-0.023144,0.052339,-101.683548,361.140045,-22.485897,,,,,,
1466451593.78,2.809109,-0.045720,-0.757347,-0.010743,0.266091,0.001653,0.326050,0.045704,0.944247,-0.040696,0.005840,0.049802,-101.683548,361.140045,-22.485897,,,,,,
1466451593.79,2.815825,-0.046000,-0.757177,-0.012514,0.541126,-0.006461,0.319697,0.045984,0.946403,-0.017115,0.012305,0.083840,-101.437996,361.218628,-22.331814,,,,,,
1466451593.80,2.822760,-0.045802,-0.756994,-0.027173,0.731208,-0.011926,0.313130,0.045786,0.948606,-0.032749,0.017858,0.012896,-101.437996,361.218628,-22.331814,,,,,,
1466451593.81,2.830650,-0.045584,-0.756804,-0.026031,0.798092,-0.009151,0.305638,0.045568,0.951057,-0.045033,0.027414,-0.007850,-101.437996,361.218628,-22.331814,,,,,,
1466451593.82,2.838742,-0.045305,-0.756613,-0.036655,0.816148,-0.009275,0.297936,0.045289,0.953511,-0.025216,0.035491,-0.007069,-101.046066,361.181824,-24.589386,,,,,,
1466451593.83,2.847789,-0.045118,-0.756382,-0.039720,0.917024,-0.010975,0.289300,0.045103,0.956175,-0.005624,0.016482,0.008318,-101.046066,361.181824,-24.589386,,,,,,
1466451593.84,2.857258,-0.044781,-0.756160,-0.038619,0.944634,-0.012211,0.280238,0.044766,0.958886,0.020177,0.007190,0.004325,-101.046066,361.181824,-24.589386,,,,,,
1466451593.85,2.866286,-0.044466,-0.755934,-0.034435,0.880929,-0.013937,0.271573,0.044451,0.961391,0.034091,-0.007738,-0.001384,-100.707382,361.169678,-26.110298,,,,,,
1466451593.86,2.874409,-0.044119,-0.755741,-0.029185,0.822526,-0.013565,0.263759,0.044105,0.963580,0.033772,-0.011191,-0.000521,-100.707382,361.169678,-26.110298,,,,,,
1466451593.87,2.882467,-0.043837,-0.755541,-0.022803,0.812975,-0.016692,0.255989,0.043823,0.965686,0.030738,-0.016967,0.013990,-100.707382,361.169678,-26.110298,,,,,,
1466451593.88,2.890482,-0.043603,-0.755331,-0.020668,0.814041,-0.018825,0.248244,0.043589,0.967716,0.020707,-0.008082,0.007427,-99.917442,361.164001,-29.057350,,,,,,
1466451593.89,2.898728,-0.043448,-0.755119,-0.020653,0.827842,-0.017847,0.240257,0.043435,0.969737,0.017510,-0.000527,0.003194,-99.917442,361.164001,-29.057350,,,,,,
1466451593.90,2.906949,-0.043287,-0.754907,-0.019605,0.816158,-0.016709,0.232279,0.043274,0.971686,0.024374,0.003373,-0.007529,-99.546387,361.147247,-30.503677,,,,,,
1466451593.91,2.914764,-0.043162,-0.754719,-0.015409,0.767311,-0.015334,0.224679,0.043149,0.973477,0.027137,0.002826,-0.012280,-99.546387,361.147247,-30.503677,,,,,,
1466451593.92,2.920836,-0.043051,-0.754580,-0.013356,0.704660,-0.016003,0.218765,0.043038,0.974828,0.035324,-0.000405,-0.010747,-99.546387,361.147247,-30.503677,,,,,,
1466451593.93,2.927398,-0.042979,-0.754409,-0.009187,0.634576,-0.014495,0.212365,0.042966,0.976245,0.041496,-0.003598,-0.012409,-99.162315,361.126801,-31.961124,,,,,,
1466451593.94,2.932934,-0.042982,-0.754256,-0.001870,0.524148,-0.014859,0.206957,0.042969,0.977406,0.053709,-0.004730,-0.017170,-99.162315,361.126801,-31.961124,,,,,,
1466451593.95,2.937279,-0.043021,-0.754129,0.003296,0.402032,-0.011959,0.202708,0.043008,0.978294,0.062597,-0.007958,-0.018181,-99.162315,361.126801,-31.961124,,,,,,
1466451593.96,2.937366,-0.042925,-0.754158,0.008447,0.266101,-0.010036,0.202624,0.042912,0.978316,0.057066,-0.004414,-0.024764,-98.616837,361.081543,-34.089806,,,,,,
1466451593.97,2.939010,-0.043062,-0.754090,0.011466,0.128062,-0.008103,0.201013,0.043049,0.978642,0.060248,0.001675,-0.026662,-98.616837,361.081543,-34.089806,,,,,,
1466451593.98,2.939326,-0.043212,-0.754055,0.015559,-0.002545,-0.006216,0.200702,0.043199,0.978699,0.060910,0.001723,-0.025819,-98.616837,361.081543,-34.089806,,,,,,
1466451593.99,2.935349,-0.044095,-0.754193,0.018569,-0.145917,-0.001055,0.204585,0.044081,0.977856,0.050923,0.013124,-0.035473,-98.574272,361.075897,-34.272034,,,,,,
1466451594.01,2.925612,-0.045996,-0.754488,0.016204,-0.336006,0.002263,0.214079,0.045980,0.975734,0.031634,0.016337,-0.025538,-98.574272,361.075897,-34.272034,,,,,,
1466451594.00,2.930554,-0.045060,-0.754341,0.019505,-0.251049,-0.000395,0.209263,0.045044,0.976821,0.047268,0.015686,-0.024643,-98.574272,361.075897,-34.272034,,,,,,
1466451594.02,2.920270,-0.046866,-0.754619,0.015059,-0.405027,0.001631,0.219280,0.046848,0.974537,0.023808,0.015819,-0.026340,-98.574272,361.075897,-34.272034,,,,,,
1466451594.03,2.915364,-0.047496,-0.754740,0.011796,-0.454945,0.006198,0.224051,0.047478,0.973420,0.001977,0.011817,-0.022370,-99.110680,360.953339,-34.015343,,,,,,
1466451594.04,2.910716,-0.048112,-0.754831,0.011804,-0.450698,0.006171,0.228566,0.048094,0.972340,-0.002934,0.012865,-0.004139,-99.110680,360.953339,-34.015343,,,,,,
1466451594.05,2.906620,-0.048732,-0.754918,0.004341,-0.453889,0.010441,0.232540,0.048712,0.971366,-0.021038,0.015634,-0.014671,-99.486771,360.893677,-33.547123,,,,,,
1466451594.07,2.899641,-0.049892,-0.755029,-0.007301,-0.400788,0.011160,0.239300,0.049871,0.969664,-0.033856,0.012980,0.002870,-99.486771,360.893677,-33.547123,,,,,,
1466451594.06,2.902673,-0.049487,-0.754984,-0.000961,-0.441139,0.009291,0.236363,0.049466,0.970405,-0.022984,0.021167,-0.011604,-99.486771,360.893677,-33.547123,,,,,,
1466451594.08,2.895909,-0.049775,-0.755108,-0.009384,-0.363623,0.010925,0.242918,0.049755,0.968770,-0.034666,0.018345,-0.004338,-100.107430,360.786682,-32.844440,,,,,,
1466451594.09,2.892390,-0.049606,-0.755199,-0.015759,-0.349823,0.012961,0.246328,0.049586,0.967917,-0.039892,0.016942,0.001275,-100.107430,360.786682,-32.844440,,,,,,
1466451594.10,2.889344,-0.049388,-0.755269,-0.019939,-0.287174,0.012564,0.249277,0.049368,0.967173,-0.034647,0.011591,0.011724,-100.107430,360.786682,-32.844440,,,,,,
1466451594.11,2.888277,-0.049453,-0.755280,-0.025189,-0.224527,0.015358,0.250309,0.049433,0.966903,-0.041004,0.008825,-0.003906,-100.257874,360.817780,-32.033867,,,,,,
1466451594.12,2.886341,-0.049185,-0.755356,-0.026202,-0.183116,0.015098,0.252184,0.049165,0.966430,-0.036394,0.004119,0.013398,-100.257874,360.817780,-32.033867,,,,,,
1466451594.13,2.885095,-0.048867,-0.755431,-0.028232,-0.103480,0.014596,0.253392,0.048848,0.966130,-0.034947,-0.000218,0.015453,-100.257874,360.817780,-32.033867,,,,,,
1466451594.14,2.886019,-0.048171,-0.755411,-0.028110,-0.010026,0.010817,0.252507,0.048153,0.966396,-0.029073,-0.009960,0.025898,-100.340088,360.879517,-31.066040,,,,,,
1466451594.15,2.886406,-0.047902,-0.755438,-0.023765,0.054748,0.008286,0.252136,0.047883,0.966506,-0.028900,-0.014024,0.014558,-100.340088,360.879517,-31.066040,,,,,,
1466451594.16,2.887528,-0.047637,-0.755429,-0.026856,0.132270,0.004603,0.251055,0.047619,0.966801,-0.025241,-0.002270,0.014019,-100.340088,360.879517,-31.066040,,,,,,
1466451594.17,2.889309,-0.047417,-0.755401,-0.020390,0.190671,0.002115,0.249336,0.047399,0.967256,-0.021415,-0.017904,0.024946,-100.208649,360.933624,-30.861057,,,,,,
1466451594.18,2.892154,-0.046596,-0.755326,-0.017153,0.223595,-0.000217,0.246593,0.046579,0.967999,-0.014506,-0.017435,0.012119,-100.208649,360.933624,-30.861057,,,,,,
1466451594.19,2.894424,-0.046509,-0.755274,-0.009690,0.226786,-0.003423,0.244395,0.046492,0.968561,-0.008585,-0.026519,0.017691,-100.208649,360.933624,-30.861057,,,,,,
1466451594.20,2.897103,-0.045797,-0.755214,-0.002240,0.224663,-0.004466,0.241807,0.045781,0.969244,-0.005219,-0.019078,0.018702,-100.208649,360.933624,-30.861057,,,,,,
1466451594.21,2.899381,-0.045269,-0.755142,0.002004,0.209806,-0.007562,0.239605,0.045253,0.969815,-0.001369,-0.016170,0.003558,-99.892548,360.995483,-31.160954,,,,,,
1466451594.22,2.901525,-0.044894,-0.755099,0.004130,0.211922,-0.005444,0.237529,0.044879,0.970343,0.002797,-0.012759,0.005960,-99.892548,360.995483,-31.160954,,,,,,
1466451594.23,2.904212,-0.044626,-0.755451,-0.032149,0.247872,0.056033,0.234924,0.044611,0.970990,0.275773,-0.017405,-0.057171,-99.675903,361.051208,-31.208889,,,,,,
1466451594.25,2.783484,-0.047372,-0.758013,0.382818,-11.789058,0.176644,0.350110,0.047355,0.935511,1.882449,0.001748,-0.924631,-99.675903,361.051208,-31.208889,,,,,,
1466451594.24,2.882343,-0.044711,-0.755970,0.073816,-3.621274,0.037826,0.256099,0.044696,0.965617,2.114109,0.048230,-0.668436,-99.675903,361.051208,-31.208889,,,,,,
1466451594.26,2.651228,-0.049527,-0.761900,0.316233,-12.943465,0.278554,0.470371,0.049507,0.881079,0.290417,-0.007911,0.020593,-101.909904,361.190887,-20.561275,,,,,,
1466451594.27,2.546921,-0.050395,-0.764710,0.202467,-9.563440,0.166764,0.559526,0.050373,0.827281,0.065444,0.037807,0.908574,-101.909904,361.190887,-20.561275,,,,,,
1466451594.28,2.462540,-0.051349,-0.767334,0.239176,-8.315828,0.154718,0.627228,0.051326,0.777142,-0.121873,0.019948,0.727115,-101.909904,361.190887,-20.561275,,,,,,
1466451594.29,2.375642,-0.051702,-0.769912,0.176830,-8.772399,0.167100,0.692296,0.051679,0.719761,-0.226720,-0.001447,0.426342,-102.500931,361.605103,1.602499,,,,,,
1466451594.30,2.291618,-0.051659,-0.772277,0.167974,-8.200070,0.159244,0.750262,0.051636,0.659122,-0.151018,0.020050,0.396390,-102.500931,361.605103,1.602499,,,,,,
1466451594.31,2.217590,-0.051292,-0.773880,0.064154,-6.978866,0.122741,0.796970,0.051269,0.601839,-0.830631,0.001297,0.471144,-102.500931,361.605103,1.602499,,,,,,
1466451594.32,2.196998,-0.050313,-0.774157,-0.066143,0.300994,0.050343,0.809234,0.050292,0.585330,-2.813476,-0.005675,1.251538,-94.751076,362.325134,31.780413,,,,,,
1466451594.33,2.267982,-0.050267,-0.772551,-0.132005,8.725695,-0.119649,0.765684,0.050246,0.641252,-1.647748,-0.010711,1.971053,-94.751076,362.325134,31.780413,,,,,,
1466451594.34,2.356447,-0.050408,-0.770142,-0.188983,8.180143,-0.184409,0.706030,0.050386,0.706387,0.374612,-0.022676,0.168735,-94.751076,362.325134,31.780413,,,,,,
1466451594.35,2.387218,-0.050939,-0.768760,0.025564,1.030805,-0.098908,0.683944,0.050917,0.727755,1.668000,-0.034376,-1.011782,-96.254005,362.273010,27.580997,,,,,,
1466451594.37,2.330416,-0.052560,-0.770331,0.042838,-2.051831,-0.001852,0.724096,0.052535,0.687695,0.074579,0.001923,0.075717,-96.254005,362.273010,27.580997,,,,,,
1466451594.36,2.357175,-0.052102,-0.769795,0.158973,-3.677525,0.013781,0.705455,0.052078,0.706839,0.863393,-0.002197,-0.970984,-96.254005,362.273010,27.580997,,,,,,
1466451594.38,2.330880,-0.052895,-0.770428,0.031347,0.665340,-0.023163,0.723765,0.052870,0.688018,-0.378642,0.038225,0.406327,-98.939499,361.958710,21.543242,,,,,,
1466451594.40,2.340322,-0.053130,-0.770452,0.037012,-0.692826,0.027939,0.717228,0.053105,0.694813,0.151776,0.032543,-0.159138,-98.939499,361.958710,21.543242,,,,,,
1466451594.39,2.342483,-0.053111,-0.770235,-0.010744,1.062475,-0.025695,0.715725,0.053086,0.696362,-0.078808,0.025741,0.165973,-98.939499,361.958710,21.543242,,,,,,
1466451594.41,2.315642,-0.054075,-0.771655,0.050916,-1.491374,0.036155,0.734118,0.054048,0.676868,0.155714,0.019881,-0.216251,-99.359375,361.919250,20.234148,,,,,,
1466451594.42,2.302488,-0.053973,-0.772151,0.026739,-1.229120,0.043002,0.742962,0.053947,0.667156,0.048069,0.016442,0.044102,-99.359375,361.919250,20.234148,,,,,,
1466451594.43,2.293077,-0.053808,-0.772562,0.015527,-0.837297,0.036276,0.749214,0.053782,0.660141,-0.086586,0.020452,0.051087,-99.359375,361.919250,20.234148,,,,,,
1466451594.44,2.287050,-0.053721,-0.772757,0.007418,-0.542059,0.015256,0.753183,0.053695,0.655616,-0.080423,-0.005355,0.072350,-97.875214,362.073090,24.306278,,,,,,
1466451594.45,2.283637,-0.053709,-0.772827,0.003546,-0.252153,0.001725,0.755416,0.053683,0.653043,-0.141601,-0.012637,0.075565,-97.875214,362.073090,24.306278,,,,,,
1466451594.46,2.284929,-0.053777,-0.772723,-0.005377,0.253305,-0.014227,0.754570,0.053751,0.654015,-0.129035,-0.010706,0.079093,-97.875214,362.073090,24.306278,,,,,,
1466451594.47,2.289100,-0.053899,-0.772583,0.001246,0.431699,-0.020662,0.751830,0.053873,0.657153,-0.068160,-0.005579,0.081754,-97.552101,362.100677,25.178562,,,,,,
1466451594.48,2.292433,-0.054144,-0.772525,0.013847,0.286235,-0.022930,0.749625,0.054117,0.659646,0.005883,-0.018701,0.021277,-97.552101,362.100677,25.178562,,,,,,
1466451594.49,2.293890,-0.054360,-0.772510,0.011482,0.105718,-0.017543,0.748655,0.054333,0.660730,0.033099,-0.017834,-0.012841,-97.552101,362.100677,25.178562,,,,,,
1466451594.50,2.292029,-0.054147,-0.772639,0.010219,-0.034479,-0.006020,0.749892,0.054120,0.659343,0.048418,-0.007886,-0.021114,-98.057159,362.037048,24.108879,,,,,,
1466451594.51,2.290678,-0.054231,-0.772685,0.008981,-0.169333,-0.003046,0.750778,0.054204,0.658326,0.057174,-0.006093,-0.021409,-98.057159,362.037048,24.108879,,,,,,
1466451594.52,2.286976,-0.054111,-0.772855,0.014113,-0.309519,0.005290,0.753215,0.054085,0.655547,0.025227,-0.003945,-0.004836,-98.057159,362.037048,24.108879,,,,,,
1466451594.53,2.284461,-0.054118,-0.773002,0.007846,-0.204412,0.009946,0.754861,0.054091,0.653650,-0.041589,-0.002425,0.022802,-97.902420,362.059021,24.405836,,,,,,
1466451594.54,2.283900,-0.054132,-0.773068,0.005966,-0.019634,0.000270,0.755227,0.054106,0.653226,-0.037728,-0.008986,0.060214,-97.902420,362.059021,24.405836,,,,,,
1466451594.55,2.287365,-0.053673,-0.772918,0.010405,0.106768,-0.013291,0.752978,0.053648,0.655855,-0.053424,-0.016325,0.047102,-97.902420,362.059021,24.405836,,,,,,
1466451594.56,2.290114,-0.053866,-0.772856,0.007511,0.337196,-0.020062,0.751164,0.053840,0.657916,-0.078053,-0.003150,0.057416,-97.613914,362.110260,24.797974,,,,,,
1466451594.57,2.298332,-0.054539,-0.772551,0.001387,0.542153,-0.024548,0.745705,0.054512,0.664042,-0.064751,0.011894,0.049993,-97.613914,362.110260,24.797974,,,,,,
1466451594.58,2.303923,-0.054647,-0.772373,-0.008207,0.543202,-0.018177,0.741976,0.054619,0.668198,-0.022891,0.033912,-0.001221,-97.613914,362.110260,24.797974,,,,,,
1466451594.59,2.307467,-0.055782,-0.772316,-0.003108,0.378584,-0.005432,0.739558,0.055754,0.670780,0.004064,0.041201,-0.037113,-98.201912,362.030090,23.618692,,,,,,
1466451594.61,2.314526,-0.056737,-0.772251,-0.027655,0.372148,0.023322,0.734764,0.056707,0.675948,-0.022270,0.028254,-0.006561,-98.201912,362.030090,23.618692,,,,,,
1466451594.60,2.310935,-0.057052,-0.772287,-0.012788,0.321209,0.010883,0.737174,0.057021,0.673293,-0.028678,0.041428,-0.020476,-98.201912,362.030090,23.618692,,,,,,
1466451594.62,2.317765,-0.056370,-0.772256,-0.021376,0.293556,0.029143,0.732586,0.056340,0.678338,0.008609,0.014400,-0.010889,-99.230118,361.877716,21.567915,,,,,,
1466451594.63,2.320600,-0.056088,-0.772320,-0.021496,0.209657,0.037120,0.730672,0.056059,0.680424,-0.015538,0.003328,0.006603,-99.230118,361.877716,21.567915,,,,,,
1466451594.64,2.323920,-0.055683,-0.772325,-0.029946,0.266997,0.038881,0.728426,0.055654,0.682861,-0.012087,0.002360,0.018723,-99.230118,361.877716,21.567915,,,,,,
1466451594.65,2.326566,-0.055294,-0.772429,-0.018271,0.235141,0.038027,0.726632,0.055266,0.684801,0.006370,0.002046,0.008131,-99.170380,361.921326,21.106153,,,,,,
1466451594.67,2.331545,-0.053508,-0.772454,-0.030055,0.226670,0.039148,0.723284,0.053482,0.688477,-0.010836,-0.016068,0.011810,-99.170380,361.921326,21.106153,,,,,,
1466451594.66,2.328777,-0.054469,-0.772451,-0.024756,0.183169,0.025588,0.725149,0.054442,0.686436,0.000696,-0.013457,0.012111,-99.170380,361.921326,21.106153,,,,,,
1466451594.68,2.335564,-0.053086,-0.772371,-0.039590,0.260666,0.036796,0.720527,0.053061,0.691394,-0.042731,0.003702,0.021909,-98.685509,362.081360,20.627859,,,,,,
1466451594.69,2.337850,-0.052728,-0.772333,-0.039636,0.223502,0.037029,0.718958,0.052703,0.693053,0.005926,0.006424,-0.002638,-98.685509,362.081360,20.627859,,,,,,
1466451594.70,2.342080,-0.052360,-0.772244,-0.046000,0.262766,0.049549,0.716034,0.052336,0.696101,-0.064072,0.007768,0.017980,-98.685509,362.081360,20.627859,,,,,,
1466451594.71,2.348039,-0.051892,-0.772149,-0.045843,0.389130,0.049820,0.711890,0.051869,0.700372,-0.061118,0.007442,0.043158,-98.640694,362.115845,20.233416,,,,,,
1466451594.72,2.351532,-0.051385,-0.772225,-0.028949,0.270210,0.047389,0.709458,0.051362,0.702874,0.005081,0.003997,0.019554,-98.640694,362.115845,20.233416,,,,,,
1466451594.73,2.353730,-0.050586,-0.772326,-0.018411,0.164061,0.035293,0.707940,0.050565,0.704460,0.000540,-0.012906,0.018456,-98.640694,362.115845,20.233416,,,,,,
1466451594.74,2.356855,-0.049946,-0.772410,-0.003401,0.229923,0.023186,0.705758,0.049925,0.706691,-0.015603,-0.013228,0.035176,-98.401474,362.236481,19.213371,,,,,,
1466451594.76,2.364417,-0.049282,-0.772461,0.006180,0.203434,0.006331,0.700417,0.049262,0.712032,-0.034325,0.001581,0.015568,-98.401474,362.236481,19.213371,,,,,,
1466451594.75,2.360737,-0.049383,-0.772455,-0.000133,0.271370,0.011221,0.703029,0.049363,0.709446,-0.007762,-0.016282,0.053494,-98.401474,362.236481,19.213371,,,,,,
1466451594.77,2.366928,-0.049264,-0.772515,-0.000241,0.182196,0.009651,0.698628,0.049245,0.713788,-0.025624,0.000682,0.011614,-98.193954,362.314484,18.799444,,,,,,
1466451594.78,2.369396,-0.049286,-0.772548,-0.013041,0.182173,0.021347,0.696864,0.049266,0.715510,-0.036036,0.006673,-0.007578,-98.193954,362.314484,18.799444,,,,,,
1466451594.79,2.372418,-0.049130,-0.772569,-0.016383,0.087643,0.036838,0.694703,0.049110,0.717618,-0.082063,0.005409,0.020221,-98.193954,362.314484,18.799444,,,,,,
1466451594.80,2.375595,-0.048845,-0.772574,-0.027993,0.165176,0.034211,0.692430,0.048826,0.719831,-0.066896,0.004763,0.036440,-98.313576,362.338043,17.687990,,,,,,
1466451594.81,2.380545,-0.048463,-0.772542,-0.036348,0.316990,0.047088,0.688871,0.048444,0.723263,-0.078214,0.005007,0.032733,-98.313576,362.338043,17.687990,,,,,,
1466451594.82,2.384396,-0.047653,-0.772579,-0.035301,0.294711,0.041907,0.686107,0.047635,0.725940,-0.030726,-0.010235,0.019208,-98.313576,362.338043,17.687990,,,,,,
1466451594.83,2.388367,-0.046813,-0.772530,-0.032053,0.317049,0.027933,0.683246,0.046796,0.728687,-0.023822,-0.015394,0.019756,-98.294418,362.372864,17.070400,,,,,,
1466451594.84,2.393241,-0.046055,-0.772478,-0.013938,0.312831,0.017333,0.679710,0.046039,0.732035,-0.051536,-0.019885,0.053137,-98.294418,362.372864,17.070400,,,,,,
1466451594.85,2.396965,-0.045912,-0.772468,-0.011679,0.397807,0.005094,0.676984,0.045896,0.734566,-0.046231,-0.011380,0.035484,-98.294418,362.372864,17.070400,,,,,,
1466451594.86,2.401520,-0.045824,-0.772423,-0.011580,0.473201,0.002492,0.673634,0.045808,0.737644,-0.048710,0.002501,0.023235,-97.954491,362.506958,16.152523,,,,,,
1466451594.87,2.406139,-0.045661,-0.772359,-0.019076,0.450886,0.010076,0.670224,0.045645,0.740754,-0.072675,0.008661,0.009094,-97.954491,362.506958,16.152523,,,,,,
1466451594.88,2.411477,-0.045482,-0.772248,-0.034070,0.404139,0.025255,0.666266,0.045466,0.744327,-0.074194,0.008062,0.001019,-97.954491,362.506958,16.152523,,,,,,
1466451594.89,2.415493,-0.045065,-0.772243,-0.029811,0.407317,0.027369,0.663284,0.045050,0.747011,-0.089523,0.004770,0.035796,-98.066566,362.511597,15.347656,,,,,,
1466451594.90,2.420205,-0.044646,-0.772219,-0.036080,0.499702,0.024654,0.659769,0.044632,0.750142,-0.082743,-0.005706,0.035854,-98.066566,362.511597,15.347656,,,,,,
1466451594.91,2.425731,-0.044231,-0.772172,-0.030676,0.561287,0.023209,0.655626,0.044216,0.753790,-0.094682,-0.022289,0.053934,-98.066566,362.511597,15.347656,,,,,,
1466451594.92,2.432985,-0.043548,-0.772113,-0.024256,0.584657,0.020940,0.650160,0.043534,0.758549,-0.079130,-0.021135,0.038601,-98.066566,362.511597,15.347656,,,,,,
1466451594.93,2.439191,-0.043286,-0.772064,-0.020992,0.625031,0.011110,0.645447,0.043273,0.762578,-0.054414,-0.006529,0.012736,-98.059227,362.573517,13.860031,,,,,,
1466451594.94,2.445118,-0.043129,-0.772073,-0.008275,0.574064,0.009314,0.640921,0.043116,0.766395,-0.065435,-0.001612,0.006462,-98.059227,362.573517,13.860031,,,,,,
1466451594.95,2.450435,-0.043029,-0.772079,-0.009394,0.525230,0.006426,0.636840,0.043016,0.769795,-0.081969,-0.002458,0.009623,-98.045357,362.615326,12.826107,,,,,,
1466451594.96,2.457133,-0.042965,-0.772046,-0.000832,0.559213,0.005156,0.631671,0.042952,0.774046,-0.087771,-0.002409,0.013552,-98.045357,362.615326,12.826107,,,,,,
1466451594.97,2.463346,-0.042870,-0.771982,-0.014575,0.629314,-0.000619,0.626853,0.042857,0.777958,-0.065985,0.000692,-0.013585,-98.045357,362.615326,12.826107,,,,,,
1466451594.98,2.469318,-0.042804,-0.771924,-0.006120,0.579405,-0.000298,0.622196,0.042791,0.781691,-0.070927,-0.002996,-0.018980,-98.254799,362.630798,10.590622,,,,,,
1466451594.99,2.474509,-0.042741,-0.771896,-0.007290,0.499761,0.003394,0.618132,0.042728,0.784912,-0.082549,-0.005085,-0.020920,-98.254799,362.630798,10.590622,,,,,,
1466451595.00,2.480963,-0.042751,-0.771846,0.003333,0.480652,0.003524,0.613054,0.042738,0.788885,-0.120210,-0.001280,0.003016,-98.254799,362.630798,10.590622,,,,,,
1466451595.01,2.486130,-0.042667,-0.771870,-0.012588,0.529488,0.008524,0.608971,0.042654,0.792045,-0.128853,0.021265,-0.047401,-98.362610,362.630493,9.549620,,,,,,
1466451595.02,2.491479,-0.042369,-0.771876,-0.023259,0.530520,0.021280,0.604734,0.042357,0.795301,-0.160474,0.013338,-0.033277,-98.362610,362.630493,9.549620,,,,,,
1466451595.03,2.496971,-0.042021,-0.772005,-0.020044,0.565526,0.032773,0.600366,0.042008,0.798621,-0.141351,0.002898,-0.030814,-98.362610,362.630493,9.549620,,,,,,
1466451595.04,2.503140,-0.041531,-0.772051,-0.040197,0.625000,0.031315,0.595439,0.041519,0.802327,-0.084194,0.004288,-0.056660,-98.363693,362.677917,7.522663,,,,,,
1466451595.05,2.508805,-0.041073,-0.772100,-0.031780,0.543240,0.030772,0.590896,0.041062,0.805702,-0.125015,-0.010010,-0.053093,-98.363693,362.677917,7.522663,,,,,,
1466451595.06,2.514428,-0.040656,-0.772143,-0.032788,0.583598,0.027325,0.586366,0.040645,0.809026,-0.121721,-0.014354,-0.034734,-98.363693,362.677917,7.522663,,,,,,
1466451595.07,2.520764,-0.040269,-0.772157,-0.028448,0.643065,0.023763,0.581238,0.040258,0.812737,-0.147262,-0.015554,-0.038903,-98.214737,362.735992,6.614305,,,,,,
1466451595.08,2.527678,-0.039920,-0.772185,-0.028361,0.708903,0.021221,0.575613,0.039910,0.816748,-0.117284,-0.001854,-0.061957,-98.214737,362.735992,6.614305,,,,,,
1466451595.09,2.534748,-0.039574,-0.772176,-0.028375,0.694043,0.019185,0.569832,0.039564,0.820808,-0.112129,0.000704,-0.084892,-98.214737,362.735992,6.614305,,,,,,
1466451595.10,2.540913,-0.039223,-0.772211,-0.026382,0.592098,0.024084,0.564769,0.039213,0.824317,-0.154216,-0.002592,-0.102790,-98.020660,362.820892,4.495340,,,,,,
1466451595.11,2.546948,-0.038838,-0.772298,-0.027425,0.619687,0.030297,0.559792,0.038829,0.827723,-0.131477,-0.001429,-0.095683,-98.020660,362.820892,4.495340,,,,,,
1466451595.12,2.553419,-0.038490,-0.772383,-0.020996,0.642000,0.023777,0.554431,0.038481,0.831339,-0.091541,-0.004621,-0.108332,-98.020660,362.820892,4.495340,,,,,,
1466451595.13,2.559255,-0.038357,-0.772559,0.004477,0.574037,0.022099,0.549573,0.038348,0.834565,-0.125882,-0.028567,-0.097825,-97.881882,362.869385,3.494928,,,,,,
1466451595.14,2.565587,-0.038341,-0.772687,0.003551,0.664326,0.008759,0.544278,0.038331,0.838028,-0.110227,-0.016588,-0.112855,-97.881882,362.869385,3.494928,,,,,,
1466451595.15,2.573141,-0.038281,-0.772651,-0.010135,0.774784,-0.000463,0.537933,0.038272,0.842118,-0.126099,-0.008364,-0.141953,-97.881882,362.869385,3.494928,,,,,,
1466451595.16,2.581019,-0.038181,-0.772619,-0.010119,0.793885,0.003675,0.531285,0.038172,0.846333,-0.178135,-0.013300,-0.164524,-97.723236,362.927521,1.030508,,,,,,
1466451595.17,2.589991,-0.037978,-0.772585,-0.023780,0.946777,0.008025,0.523674,0.037969,0.851072,-0.126732,-0.002996,-0.159925,-97.723236,362.927521,1.030508,,,,,,
1466451595.18,2.600220,-0.037739,-0.772440,-0.026867,1.016884,-0.001998,0.514946,0.037730,0.856392,-0.063041,0.001607,-0.188072,-97.723236,362.927521,1.030508,,,,,,
1466451595.19,2.609573,-0.037597,-0.772432,-0.008907,0.923404,0.010315,0.506916,0.037589,0.861175,-0.085743,-0.017554,-0.193451,-97.689514,362.937714,-0.509777,,,,,,
1466451595.20,2.619037,-0.037445,-0.772442,-0.013147,0.932971,0.007057,0.498746,0.037437,0.865939,0.049502,0.006997,-0.220553,-97.689514,362.937714,-0.509777,,,,,,
1466451595.21,2.626199,-0.037348,-0.772514,-0.000770,0.625024,0.015388,0.492533,0.037339,0.869492,0.015905,-0.008759,-0.280030,-97.689514,362.937714,-0.509777,,,,,,
1466451595.22,2.630560,-0.037241,-0.772791,0.004246,0.403064,0.031687,0.488739,0.037233,0.871635,0.054306,-0.001817,-0.262764,-97.516487,362.964325,-3.833969,,,,,,
1466451595.23,2.633553,-0.037156,-0.773029,0.005132,0.244881,0.023100,0.486130,0.037147,0.873097,0.091553,0.001137,-0.261280,-97.516487,362.964325,-3.833969,,,,,,
1466451595.24,2.634151,-0.037082,-0.773406,0.012272,0.023973,0.042588,0.485609,0.037073,0.873390,0.054064,-0.017618,-0.295478,-97.516487,362.964325,-3.833969,,,,,,
1466451595.25,2.633533,-0.036962,-0.773772,0.006784,-0.118286,0.036024,0.486151,0.036954,0.873093,0.208887,0.000583,-0.289109,-97.288605,363.016815,-4.582760,,,,,,
1466451595.26,2.628172,-0.036971,-0.774300,0.031599,-0.688518,0.051334,0.490824,0.036962,0.870474,0.190710,-0.019323,-0.355673,-97.288605,363.016815,-4.582760,,,,,,
1466451595.27,2.617897,-0.037090,-0.774904,0.042798,-1.118519,0.041268,0.499740,0.037081,0.865381,0.275956,-0.001803,-0.298136,-97.288605,363.016815,-4.582760,,,,,,
1466451595.29,2.584767,-0.037872,-0.776514,0.083184,-2.017901,0.052271,0.528115,0.037863,0.848328,0.260383,-0.002584,-0.330994,-96.747108,363.174591,-3.385258,,,,,,
1466451595.28,2.603762,-0.037476,-0.775631,0.077410,-1.524166,0.051298,0.511915,0.037467,0.858219,0.265643,-0.015617,-0.275516,-96.747108,363.174591,-3.385258,,,,,,
1466451595.30,2.561512,-0.038343,-0.777568,0.098672,-2.389564,0.063133,0.547689,0.038334,0.835804,0.207896,-0.001300,-0.289051,-96.747108,363.174591,-3.385258,,,,,,
1466451595.31,2.536644,-0.038899,-0.778699,0.113457,-2.491496,0.060594,0.568290,0.038889,0.821909,0.171609,-0.006357,-0.180933,-96.460190,363.265961,-0.734371,,,,,,
1466451595.32,2.512276,-0.039679,-0.779921,0.138076,-2.392751,0.056806,0.588129,0.039669,0.807794,0.053152,-0.023174,-0.135552,-96.460190,363.265961,-0.734371,,,,,,
1466451595.33,2.491185,-0.040423,-0.781108,0.124757,-1.986057,0.047855,0.605016,0.040412,0.795187,-0.046392,-0.020087,-0.114935,-96.460190,363.265961,-0.734371,,,,,,
1466451595.34,2.476858,-0.041175,-0.781442,0.070519,-1.217058,-0.038984,0.616328,0.041163,0.786413,-0.101099,0.042562,-0.085226,-95.341698,363.503448,6.517208,,,,,,
1466451595.35,2.472716,-0.041606,-0.781628,0.037635,-0.153318,0.027758,0.619569,0.041594,0.783840,-0.309388,-0.126250,0.016346,-95.341698,363.503448,6.517208,,,,,,
1466451595.36,2.477244,-0.041259,-0.781571,-0.051870,0.619758,0.008983,0.616022,0.041247,0.786649,-0.033548,0.093213,-0.382336,-95.341698,363.503448,6.517208,,,,,,
1466451595.37,2.481812,-0.040356,-0.781811,-0.065233,0.269167,0.084615,0.612445,0.040345,0.789483,0.145536,-0.076600,-0.326821,-95.323822,363.482452,7.820509,,,,,,
1466451595.38,2.480663,-0.039061,-0.781860,-0.100880,-0.138547,0.087137,0.613383,0.039051,0.788820,0.145254,0.055630,-0.389162,-95.323822,363.482452,7.820509,,,,,,
1466451595.39,2.481820,-0.037512,-0.781867,-0.137649,0.257524,0.084616,0.612506,0.037503,0.789576,0.021329,0.001712,-0.161692,-95.323822,363.482452,7.820509,,,,,,
1466451595.40,2.490492,-0.036011,-0.781443,-0.140862,1.061363,0.060411,0.605669,0.036003,0.794902,-0.020266,-0.024849,-0.059276,-94.409927,363.715332,8.074341,,,,,,
1466451595.41,2.507605,-0.034719,-0.780811,-0.145045,1.909852,0.016766,0.592005,0.034712,0.805186,-0.024958,-0.016325,0.036229,-94.409927,363.715332,8.074341,,,,,,
1466451595.42,2.531587,-0.033442,-0.779893,-0.158096,2.518309,-0.000901,0.572551,0.033436,0.819187,0.123478,-0.012852,-0.105259,-94.409927,363.715332,8.074341,,,,,,
1466451595.43,2.556163,-0.032072,-0.778838,-0.173222,2.329339,-0.008247,0.552274,0.032067,0.833046,0.458881,0.002983,-0.332726,-94.294250,363.773468,6.687122,,,,,,
1466451595.44,2.571000,-0.030713,-0.778356,-0.127936,1.161199,0.048089,0.539876,0.030708,0.841184,0.572978,-0.031120,-0.335691,-94.294250,363.773468,6.687122,,,,,,
1466451595.45,2.575013,-0.029301,-0.778398,-0.116392,0.227783,0.084824,0.536519,0.029297,0.843380,0.529506,-0.021423,-0.342617,-94.294250,363.773468,6.687122,,,,,,
1466451595.46,2.574686,-0.028201,-0.778528,-0.070994,-0.111961,0.066775,0.536811,0.028198,0.843231,0.572472,0.019837,-0.187698,-94.212753,363.847687,2.461880,,,,,,
1466451595.47,2.570200,-0.027456,-0.778901,-0.039623,-0.559010,0.074933,0.540600,0.027453,0.840832,0.460300,-0.020037,-0.142040,-94.212753,363.847687,2.461880,,,,,,
1466451595.48,2.562841,-0.026848,-0.779274,-0.027077,-0.770268,0.059239,0.546782,0.026845,0.836845,0.438737,0.024028,-0.108253,-94.212753,363.847687,2.461880,,,,,,
1466451595.49,2.554027,-0.026394,-0.779508,-0.024054,-0.936920,0.041127,0.554144,0.026391,0.832003,0.469431,0.020072,-0.196215,-93.682716,363.977203,3.379774,,,,,,
1466451595.50,2.542325,-0.025930,-0.779863,-0.018075,-1.233219,0.062151,0.563848,0.025928,0.825472,0.373881,-0.013934,-0.142641,-93.682716,363.977203,3.379774,,,,,,
1466451595.51,2.529155,-0.025325,-0.780148,-0.036296,-1.342552,0.054303,0.574679,0.025322,0.817987,0.426450,0.011955,-0.143320,-93.682716,363.977203,3.379774,,,,,,
1466451595.53,2.499468,-0.023721,-0.780590,-0.065266,-1.508200,0.062764,0.598730,0.023719,0.800600,0.378016,0.001275,-0.110262,-92.648026,364.178497,7.592075,,,,,,
1466451595.52,2.514557,-0.024625,-0.780436,-0.043961,-1.490177,0.069059,0.586569,0.024623,0.809525,0.366815,-0.019252,-0.170334,-92.648026,364.178497,7.592075,,,,,,
1466451595.54,2.484747,-0.022896,-0.780695,-0.059856,-1.449785,0.056017,0.610462,0.022894,0.791715,0.344784,-0.009421,-0.053281,-92.648026,364.178497,7.592075,,,,,,
1466451595.56,2.459424,-0.021234,-0.780744,-0.070139,-1.172626,0.045753,0.630335,0.021233,0.776033,0.378042,-0.006096,-0.022676,-91.903351,364.288818,10.709095,,,,,,
1466451595.55,2.471317,-0.022089,-0.780766,-0.058609,-1.299019,0.058266,0.621050,0.022087,0.783459,0.305647,-0.008583,0.037708,-91.903351,364.288818,10.709095,,,,,,
1466451595.57,2.447208,-0.020542,-0.780723,-0.053170,-1.231025,0.042942,0.639778,0.020541,0.768285,0.345146,-0.000582,-0.014532,-91.903351,364.288818,10.709095,,,,,,
1466451595.58,2.435595,-0.019856,-0.780541,-0.063653,-1.123737,0.027357,0.648666,0.019855,0.760814,0.324250,0.021954,0.070561,-90.287170,372.862671,-16.785160,,,,,,
1466451595.59,2.426623,-0.019285,-0.780265,-0.065365,-0.814710,0.010515,0.655473,0.019284,0.754973,0.320495,-0.000791,0.049272,-90.287170,372.862671,-16.785160,,,,,,
1466451595.60,2.419986,-0.018746,-0.779779,-0.071484,-0.620362,-0.003484,0.660475,0.018745,0.750614,0.308763,0.015008,0.077160,-90.287170,372.862671,-16.785160,,,,,,
1466451595.61,2.414734,-0.018338,-0.779115,-0.072365,-0.513052,-0.028640,0.664414,0.018337,0.747140,0.360306,0.019841,0.078269,-90.435371,372.924347,-14.456463,,,,,,
1466451595.62,2.410130,-0.018095,-0.778445,-0.064797,-0.433400,-0.036583,0.667849,0.018094,0.744076,0.343534,0.003390,0.090640,-90.435371,372.924347,-14.456463,,,,,,
1466451595.63,2.406563,-0.017912,-0.777666,-0.063583,-0.329318,-0.046815,0.670501,0.017911,0.741692,0.335785,0.014316,0.133903,-90.435371,372.924347,-14.456463,,,,,,
1466451595.64,2.404103,-0.017902,-0.776811,-0.057034,-0.231582,-0.066581,0.672324,0.017901,0.740040,0.351449,0.008847,0.136302,-91.082962,372.866364,-11.605461,,,,,,
1466451595.65,2.402370,-0.017915,-0.775982,-0.056936,-0.145591,-0.061798,0.673606,0.017914,0.738874,0.311090,-0.008179,0.159411,-91.082962,372.866364,-11.605461,,,,,,
1466451595.66,2.401196,-0.017905,-0.775054,-0.059043,-0.136019,-0.067183,0.674473,0.017904,0.738083,0.369503,0.010111,0.164887,-91.082962,372.866364,-11.605461,,,,,,
1466451595.67,2.398824,-0.017980,-0.774292,-0.047558,-0.267702,-0.059946,0.676221,0.017979,0.736480,0.344821,-0.012409,0.145967,-91.596115,372.764862,-10.798519,,,,,,
1466451595.69,2.389778,-0.017867,-0.772832,-0.061986,-0.716870,-0.045434,0.682857,0.017866,0.730334,0.512410,-0.027769,0.015439,-91.596115,372.764862,-10.798519,,,,,,
1466451595.68,2.395506,-0.017937,-0.773580,-0.045541,-0.336755,-0.046737,0.678661,0.017936,0.734232,0.356083,0.026849,0.214757,-91.596115,372.764862,-10.798519,,,,,,
1466451595.70,2.378750,-0.017942,-0.772363,-0.017896,-1.203224,-0.032760,0.690868,0.017941,0.722758,0.374424,0.033207,0.189199,-92.570343,372.576141,-8.824631,,,,,,
1466451595.72,2.357534,-0.018301,-0.771393,-0.005646,-0.830440,-0.070213,0.706040,0.018300,0.707935,0.289138,0.018520,0.262936,-92.570343,372.576141,-8.824631,,,,,,
1466451595.71,2.366633,-0.017964,-0.771921,-0.034881,-1.169226,-0.037248,0.699574,0.017963,0.714334,0.285655,0.004620,0.258856,-92.570343,372.576141,-8.824631,,,,,,
1466451595.73,2.349468,-0.018880,-0.770797,-0.000313,-0.834670,-0.077632,0.711720,0.018879,0.702209,0.210689,0.021114,0.354141,-93.017517,372.513123,-6.466801,,,,,,
1466451595.74,2.341857,-0.019253,-0.770251,-0.013993,-0.689225,-0.067913,0.717039,0.019251,0.696767,0.052523,-0.004862,0.359339,-93.017517,372.513123,-6.466801,,,,,,
1466451595.75,2.339349,-0.019639,-0.769749,-0.014319,-0.088265,-0.064231,0.718779,0.019638,0.694961,0.187974,0.005524,0.274811,-93.017517,372.513123,-6.466801,,,,,,
1466451595.76,2.337223,-0.019980,-0.768759,-0.048764,-0.443852,-0.098227,0.720250,0.019979,0.693427,0.659556,-0.020925,0.028161,-94.170151,372.260437,-3.774860,,,,,,
1466451595.77,2.320102,-0.020472,-0.768478,0.035337,-2.071776,-0.037904,0.732009,0.020470,0.680988,0.263353,0.012077,0.179043,-94.170151,372.260437,-3.774860,,,,,,
1466451595.78,2.302328,-0.020640,-0.768410,-0.019317,-1.465526,-0.017279,0.743994,0.020639,0.667868,-0.038656,-0.021188,0.400263,-94.170151,372.260437,-3.774860,,,,,,
1466451595.79,2.297010,-0.020691,-0.767695,-0.045552,-0.366451,-0.059325,0.747534,0.020689,0.663901,0.281412,-0.005110,0.360345,-94.774445,372.121735,-1.824245,,,,,,
1466451595.80,2.287878,-0.020976,-0.767302,-0.001900,-1.198958,-0.042351,0.753561,0.020974,0.657043,0.273828,0.024055,0.237809,-94.774445,372.121735,-1.824245,,,,,,
1466451595.81,2.270308,-0.021240,-0.767153,0.008991,-1.838195,-0.028751,0.764984,0.021238,0.643699,0.206741,-0.003706,0.224664,-94.774445,372.121735,-1.824245,,,,,,
1466451595.82,2.254206,-0.021835,-0.767148,0.043520,-1.505813,-0.051026,0.775239,0.021833,0.631290,0.211180,0.032778,0.344769,-95.283699,371.983276,3.090809,,,,,,
1466451595.83,2.241011,-0.022307,-0.766825,-0.007286,-1.280659,-0.062069,0.783494,0.022305,0.620999,0.140899,-0.023572,0.330066,-95.283699,371.983276,3.090809,,,,,,
1466451595.84,2.227787,-0.023050,-0.766618,0.043731,-1.367726,-0.071052,0.791623,0.023048,0.610574,0.179156,0.014901,0.298209,-95.283699,371.983276,3.090809,,,,,,
1466451595.85,2.213507,-0.023704,-0.766388,0.011737,-1.402761,-0.066606,0.800249,0.023702,0.599199,0.082945,-0.004064,0.292372,-95.538971,371.886505,5.730328,,,,,,
1466451595.86,2.201239,-0.024478,-0.766170,0.035446,-1.187206,-0.075385,0.807524,0.024475,0.589326,0.133882,0.005020,0.332946,-95.538971,371.886505,5.730328,,,,,,
1466451595.87,2.189878,-0.025132,-0.766011,0.019515,-1.121425,-0.054525,0.814154,0.025130,0.580105,0.049020,0.006517,0.315159,-95.538971,371.886505,5.730328,,,,,,
1466451595.88,2.180124,-0.025640,-0.765750,0.006988,-0.920741,-0.054732,0.819764,0.025637,0.572128,0.070129,0.003644,0.311890,-96.152031,371.631470,10.244709,,,,,,
1466451595.89,2.171887,-0.026018,-0.765491,-0.002476,-0.812456,-0.046905,0.824440,0.026015,0.565351,0.115776,0.001588,0.297396,-96.152031,371.631470,10.244709,,,,,,
1466451595.90,2.163255,-0.026291,-0.765139,-0.016444,-0.896360,-0.035748,0.829284,0.026288,0.558209,0.139421,-0.007031,0.275958,-96.152031,371.631470,10.244709,,,,,,
1466451595.91,2.153735,-0.026488,-0.764835,-0.012276,-0.967506,-0.034233,0.834556,0.026485,0.550286,0.100869,0.002187,0.292121,-96.332535,371.533844,11.947262,,,,,,
1466451595.92,2.143991,-0.026601,-0.764538,-0.018676,-0.960100,-0.023641,0.839875,0.026598,0.542127,0.087966,-0.002870,0.309496,-96.332535,371.533844,11.947262,,,,,,
1466451595.93,2.134527,-0.026860,-0.764335,0.000498,-0.969636,-0.034207,0.844963,0.026856,0.534150,0.158669,0.016006,0.335158,-96.332535,371.533844,11.947262,,,,,,
1466451595.94,2.123654,-0.027164,-0.764161,0.004583,-1.115093,-0.037548,0.850713,0.027161,0.524928,0.149912,-0.003327,0.307393,-96.312363,371.397919,15.735977,,,,,,
1466451595.95,2.111778,-0.027686,-0.764183,0.034279,-1.217027,-0.042202,0.856875,0.027683,0.514781,0.167432,0.005749,0.336477,-96.312363,371.397919,15.735977,,,,,,
1466451595.96,2.098806,-0.028381,-0.764287,0.051200,-1.336969,-0.059528,0.863463,0.028377,0.503613,0.196809,0.014866,0.346546,-96.312363,371.397919,15.735977,,,,,,
1466451595.97,2.083494,-0.029201,-0.764545,0.064738,-1.579067,-0.057996,0.871053,0.029197,0.490320,0.162806,-0.013282,0.318029,-96.221710,371.327545,17.813313,,,,,,
1466451595.98,2.068912,-0.030082,-0.764703,0.055416,-1.392150,-0.071951,0.878087,0.030077,0.477555,0.076091,0.002821,0.388412,-96.221710,371.327545,17.813313,,,,,,
1466451595.99,2.056698,-0.030934,-0.764678,0.034410,-1.168087,-0.077635,0.883831,0.030929,0.466782,0.030247,-0.019241,0.391433,-96.221710,371.327545,17.813313,,,,,,
1466451596.00,2.046478,-0.031757,-0.764741,0.044215,-0.973811,-0.068200,0.888532,0.031751,0.457714,-0.018766,0.008608,0.420811,-96.075493,371.119629,22.356468,,,,,,
1466451596.01,2.038031,-0.032541,-0.764667,0.026317,-0.820888,-0.074499,0.892345,0.032535,0.450181,0.021474,0.008526,0.420471,-96.075493,371.119629,22.356468,,,,,,
1466451596.02,2.029320,-0.033186,-0.764703,0.033646,-0.884662,-0.051738,0.896213,0.033180,0.442381,0.011868,-0.008995,0.377154,-96.075493,371.119629,22.356468,,,,,,
1466451596.03,2.019409,-0.033981,-0.764718,0.024959,-1.050246,-0.069868,0.900529,0.033975,0.433466,0.139143,-0.001626,0.393393,-96.175934,370.998657,23.881227,,,,,,
1466451596.04,2.007207,-0.034658,-0.764665,0.035340,-1.254132,-0.063257,0.905730,0.034652,0.422436,0.045609,-0.000823,0.385899,-96.175934,370.998657,23.881227,,,,,,
1466451596.05,1.995842,-0.035364,-0.764820,0.034523,-1.048156,-0.059227,0.910450,0.035356,0.412104,-0.077504,-0.010774,0.419332,-96.175934,370.998657,23.881227,,,,,,
1466451596.06,1.988351,-0.036032,-0.764739,0.027519,-0.690325,-0.061479,0.913490,0.036025,0.405263,-0.036171,0.023225,0.531550,-96.013580,370.795013,27.432428,,,,,,
1466451596.07,1.980063,-0.036790,-0.764944,0.047474,-0.912246,-0.062196,0.916792,0.036782,0.397668,-0.003035,-0.005745,0.415870,-96.013580,370.795013,27.432428,,,,,,
1466451596.08,1.968046,-0.037424,-0.765203,0.055509,-1.269066,-0.041854,0.921483,0.037415,0.386613,-0.002538,0.009536,0.395614,-96.013580,370.795013,27.432428,,,,,,
1466451596.09,1.954726,-0.038138,-0.765751,0.079902,-1.351887,-0.045568,0.926525,0.038129,0.374295,0.010837,0.013873,0.435672,-96.035690,370.694061,28.690800,,,,,,
1466451596.10,1.941081,-0.038773,-0.766205,0.060755,-1.341253,-0.047783,0.931524,0.038763,0.361609,-0.071111,-0.011511,0.463342,-96.035690,370.694061,28.690800,,,,,,
1466451596.11,1.928735,-0.039553,-0.766713,0.075891,-1.171349,-0.057349,0.935889,0.039543,0.350070,-0.153128,-0.002205,0.525418,-95.630241,370.642242,30.647470,,,,,,
1466451596.12,1.920769,-0.040511,-0.766829,0.034004,-0.648857,-0.084086,0.938611,0.040500,0.342591,-0.276548,-0.043033,0.569869,-95.630241,370.642242,30.647470,,,,,,
1466451596.13,1.921232,-0.041507,-0.766916,0.040570,0.328022,-0.098721,0.938414,0.041495,0.343012,-0.536132,0.009805,0.626501,-95.630241,370.642242,30.647470,,,,,,
1466451596.14,1.933715,-0.042503,-0.766673,0.004838,1.548058,-0.108537,0.934020,0.042490,0.354684,-0.618743,-0.000910,0.647468,-95.630241,370.642242,30.647470,,,,,,
1466451596.15,1.955266,-0.043553,-0.766344,0.011078,2.295535,-0.102575,0.926118,0.043539,0.374712,-0.530992,0.008173,0.674726,-95.576294,370.454620,32.994476,,,,,,
1466451596.16,1.979534,-0.044305,-0.765932,-0.014411,2.394213,-0.073414,0.916723,0.044291,0.397062,-0.382955,-0.010859,0.455920,-95.576294,370.454620,32.994476,,,,,,
1466451596.17,1.994128,-0.044893,-0.765973,0.039161,0.997857,-0.043315,0.910807,0.044878,0.410386,0.078695,0.017408,0.232070,-95.576294,370.454620,32.994476,,,,,,
1466451596.18,1.987024,-0.045043,-0.766684,0.086304,-1.222555,0.028138,0.913693,0.045028,0.403903,0.135166,0.025300,0.020230,-99.011040,370.126556,25.753159,,,,,,
1466451596.19,1.973591,-0.045088,-0.767500,0.062027,-1.061137,0.022844,0.919034,0.045073,0.391593,-0.476422,-0.018263,0.132623,-99.011040,370.126556,25.753159,,,,,,
1466451596.20,1.984047,-0.045673,-0.767460,0.007245,1.806010,-0.086735,0.914865,0.045658,0.401169,-0.929727,-0.012439,0.712585,-99.011040,370.126556,25.753159,,,,,,
1466451596.21,2.015171,-0.046997,-0.766637,-0.022661,3.316105,-0.167554,0.901883,0.046979,0.429418,-0.728192,-0.076429,0.785425,-98.308258,370.208496,27.226173,,,,,,
1466451596.22,2.044256,-0.048398,-0.766047,0.022268,2.668324,-0.142157,0.888954,0.048379,0.455434,-0.542412,-0.041788,0.301997,-98.308258,370.208496,27.226173,,,,,,
1466451596.23,2.062962,-0.049535,-0.765834,0.029420,1.626610,-0.105812,0.880230,0.049515,0.471956,-0.348919,-0.018951,0.008390,-98.308258,370.208496,27.226173,,,,,,
1466451596.24,2.074724,-0.050433,-0.766019,0.075496,1.073279,-0.062911,0.874579,0.050412,0.482255,-0.334647,0.006168,-0.041733,-102.085289,369.743805,18.116415,,,,,,
1466451596.25,2.084836,-0.051002,-0.766554,0.068965,1.051888,-0.005304,0.869633,0.050980,0.491059,-0.506504,0.013916,0.101027,-102.085289,369.743805,18.116415,,,,,,
1466451596.26,2.098813,-0.051264,-0.767075,0.053538,1.505251,0.004611,0.862673,0.051242,0.503160,-0.644854,0.014386,0.088866,-102.085289,369.743805,18.116415,,,,,,
1466451596.27,2.112114,-0.051495,-0.767640,0.063775,1.183511,0.009833,0.855894,0.051472,0.514583,-0.458296,-0.002049,-0.005488,-102.799210,369.670074,15.377518,,,,,,
1466451596.28,2.120255,-0.051613,-0.768459,0.079204,0.782089,0.031526,0.851672,0.051590,0.521530,-0.549837,-0.000580,-0.103836,-102.799210,369.670074,15.377518,,,,,,
1466451596.29,2.130522,-0.051965,-0.769052,0.062668,1.126215,-0.004712,0.846257,0.051942,0.530237,-0.563054,-0.030152,-0.049280,-102.799210,369.670074,15.377518,,,,,,
1466451596.30,2.145984,-0.052261,-0.769519,0.059107,1.697440,0.001282,0.837945,0.052237,0.543249,-0.681847,-0.053550,-0.039831,-103.207565,369.749298,9.682522,,,,,,
1466451596.31,2.165145,-0.052631,-0.770000,0.049845,1.953339,-0.000332,0.827366,0.052607,0.559194,-0.633610,-0.018427,-0.032232,-103.207565,369.749298,9.682522,,,,,,
1466451596.32,2.184277,-0.052655,-0.770239,0.022067,1.890683,0.008549,0.816516,0.052631,0.574919,-0.585864,-0.027682,-0.206374,-103.489136,369.753937,5.671066,,,,,,
1466451596.33,2.204360,-0.052656,-0.770559,0.019091,2.100860,0.029581,0.804806,0.052632,0.591200,-0.720928,0.016292,-0.157713,-103.489136,369.753937,5.671066,,,,,,
1466451596.34,2.230417,-0.052253,-0.770763,-0.010953,2.792062,0.042248,0.789146,0.052229,0.611981,-0.646278,-0.030516,-0.156368,-103.489136,369.753937,5.671066,,,,,,
1466451596.35,2.262458,-0.051564,-0.770862,-0.044453,3.306951,0.076241,0.769163,0.051541,0.636970,-0.504622,0.006946,-0.298088,-103.489136,369.753937,5.671066,,,,,,
1466451596.36,2.295565,-0.050630,-0.770993,-0.054106,3.252801,0.077635,0.747694,0.050608,0.662113,-0.271421,-0.037394,-0.473880,-103.043381,369.895599,-4.408688,,,,,,
1466451596.37,2.324815,-0.049739,-0.770749,-0.081191,2.819704,0.042004,0.728042,0.049719,0.683727,-0.227325,-0.057455,-0.517666,-103.043381,369.895599,-4.408688,,,,,,
1466451596.38,2.352872,-0.049235,-0.770381,-0.054467,2.841035,0.002512,0.708593,0.049215,0.703899,-0.270482,-0.066931,-0.419476,-103.043381,369.895599,-4.408688,,,,,,
1466451596.39,2.384132,-0.048738,-0.769779,-0.090166,3.227573,-0.008463,0.686263,0.048719,0.725720,-0.298842,-0.039670,-0.388898,-102.104904,370.037842,-10.328423,,,,,,
1466451596.40,2.418250,-0.048028,-0.769144,-0.095256,3.437771,0.005116,0.661131,0.048009,0.748733,-0.213392,-0.020192,-0.474579,-102.104904,370.037842,-10.328423,,,,,,
1466451596.41,2.450582,-0.046932,-0.768628,-0.124467,3.125516,0.043236,0.636614,0.046915,0.769754,-0.146792,-0.025781,-0.563028,-102.104904,370.037842,-10.328423,,,,,,
1466451596.42,2.478984,-0.045620,-0.768336,-0.116465,2.746393,0.065847,0.614535,0.045604,0.787570,-0.057483,-0.033550,-0.567142,-99.947250,370.132233,-21.743771,,,,,,
1466451596.43,2.504723,-0.044339,-0.768197,-0.112484,2.521295,0.065133,0.594097,0.044325,0.803171,0.021748,-0.045286,-0.568659,-99.947250,370.132233,-21.743771,,,,,,
1466451596.44,2.528421,-0.043198,-0.768117,-0.087182,2.302583,0.054821,0.574927,0.043185,0.817064,0.114022,-0.034320,-0.574495,-99.947250,370.132233,-21.743771,,,,,,
1466451596.46,2.564491,-0.042008,-0.768664,-0.017954,1.467974,0.059060,0.545116,0.041995,0.837308,0.207646,-0.012973,-0.632947,-98.181976,370.312286,-26.252289,,,,,,
1466451596.45,2.548602,-0.042482,-0.768317,-0.034410,1.929867,0.056147,0.558339,0.042469,0.828525,0.189463,-0.028111,-0.589984,-98.181976,370.312286,-26.252289,,,,,,
1466451596.47,2.575453,-0.041698,-0.769259,0.012292,0.981624,0.072785,0.535912,0.041686,0.843244,0.154213,-0.024123,-0.654142,-98.181976,370.312286,-26.252289,,,,,,
1466451596.48,2.583045,-0.041364,-0.770045,0.012988,0.702343,0.084118,0.529502,0.041352,0.847300,0.168298,-0.012024,-0.625514,-95.223328,370.588013,-32.514397,,,,,,
1466451596.49,2.588650,-0.041068,-0.770875,0.021275,0.521826,0.087387,0.524751,0.041057,0.850265,0.161956,-0.019267,-0.612976,-95.223328,370.588013,-32.514397,,,,,,
1466451596.50,2.593116,-0.040661,-0.771751,0.005186,0.446414,0.099553,0.520957,0.040650,0.852615,0.163400,-0.023270,-0.594009,-95.223328,370.588013,-32.514397,,,,,,
1466451596.51,2.597863,-0.040079,-0.772411,-0.019236,0.477257,0.085497,0.516916,0.040068,0.855098,0.143225,-0.004118,-0.590907,-94.151596,370.738464,-33.890358,,,,,,
1466451596.52,2.603508,-0.039401,-0.773064,-0.031849,0.609986,0.085716,0.512094,0.039391,0.858025,0.193884,-0.010384,-0.552834,-94.151596,370.738464,-33.890358,,,,,,
1466451596.53,2.610215,-0.038468,-0.773472,-0.063686,0.689643,0.083056,0.506347,0.038459,0.861472,0.195206,-0.012290,-0.575339,-94.151596,370.738464,-33.890358,,,,,,
1466451596.54,2.617751,-0.037417,-0.773865,-0.076363,0.777764,0.087813,0.499861,0.037408,0.865298,0.265871,-0.022424,-0.547121,-92.076889,371.101227,-35.578548,,,,,,
1466451596.55,2.625434,-0.036274,-0.774163,-0.085971,0.751235,0.083712,0.493218,0.036266,0.869149,0.317481,-0.018169,-0.574990,-92.076889,371.101227,-35.578548,,,,,,
1466451596.56,2.632146,-0.035051,-0.774472,-0.094629,0.640809,0.085461,0.487395,0.035044,0.872478,0.364366,-0.025111,-0.572246,-92.076889,371.101227,-35.578548,,,,,,
1466451596.57,2.637765,-0.033869,-0.774891,-0.073465,0.548401,0.093512,0.482504,0.033863,0.875239,0.376779,-0.024128,-0.483256,-90.898972,371.312286,-36.396217,,,,,,
1466451596.58,2.643671,-0.032809,-0.775343,-0.076570,0.607884,0.085685,0.477344,0.032803,0.878104,0.465802,-0.009305,-0.473060,-90.898972,371.312286,-36.396217,,,,,,
1466451596.59,2.649564,-0.031793,-0.775703,-0.067005,0.588776,0.082621,0.472176,0.031787,0.880931,0.436271,-0.031345,-0.442622,-90.898972,371.312286,-36.396217,,,,,,
1466451596.60,2.656091,-0.030894,-0.776024,-0.066876,0.666331,0.066168,0.466429,0.030889,0.884019,0.503297,-0.010931,-0.452043,-88.701630,371.745056,-37.386139,,,,,,
1466451596.61,2.662600,-0.029866,-0.776258,-0.082863,0.654657,0.067290,0.460680,0.029862,0.887064,0.509062,-0.020050,-0.473047,-88.701630,371.745056,-37.386139,,,,,,
1466451596.62,2.668944,-0.028685,-0.776486,-0.097815,0.633402,0.076988,0.455058,0.028681,0.890000,0.551915,-0.018427,-0.458145,-88.701630,371.745056,-37.386139,,,,,,
1466451596.63,2.674982,-0.027332,-0.776683,-0.114906,0.590935,0.078302,0.449694,0.027328,0.892765,0.604414,0.001907,-0.421924,-87.692871,371.922089,-38.000107,,,,,,
1466451596.64,2.680554,-0.025926,-0.776828,-0.124531,0.553783,0.076396,0.444729,0.025923,0.895290,0.625034,-0.014906,-0.365398,-87.692871,371.922089,-38.000107,,,,,,
1466451596.65,2.686583,-0.024375,-0.776811,-0.143592,0.616474,0.063211,0.439341,0.024372,0.897990,0.673193,-0.010014,-0.314036,-87.692871,371.922089,-38.000107,,,,,,
1466451596.66,2.692975,-0.022830,-0.776691,-0.142534,0.628187,0.051442,0.433608,0.022828,0.900813,0.762452,0.001250,-0.264979,-85.673126,372.356903,-38.347958,,,,,,
1466451596.67,2.697742,-0.021374,-0.776564,-0.134276,0.415831,0.049588,0.429322,0.021372,0.902898,0.785293,-0.008280,-0.201727,-85.673126,372.356903,-38.347958,,,,,,
1466451596.68,2.700396,-0.019979,-0.776416,-0.132363,0.227917,0.041189,0.426937,0.019978,0.904061,0.843998,0.009273,-0.182946,-85.673126,372.356903,-38.347958,,,,,,
1466451596.69,2.701257,-0.018719,-0.776193,-0.119804,0.039995,0.033864,0.426168,0.018718,0.904450,0.820780,0.007359,-0.072480,-84.843071,372.556763,-38.252205,,,,,,
1466451596.70,2.700679,-0.017608,-0.775962,-0.108230,-0.088456,0.022972,0.426700,0.017607,0.904222,0.855557,0.026018,-0.014757,-84.843071,372.556763,-38.252205,,,,,,
1466451596.71,2.698356,-0.016729,-0.775657,-0.089279,-0.282735,0.009308,0.428806,0.016729,0.903242,0.858899,0.011531,-0.022611,-84.843071,372.556763,-38.252205,,,,,,
1466451596.72,2.694031,-0.015933,-0.775273,-0.088441,-0.487622,-0.004309,0.432713,0.015933,0.901391,0.901027,0.018552,-0.010079,-84.383141,372.827637,-36.594276,,,,,,
1466451596.73,2.687016,-0.015245,-0.774842,-0.078148,-0.780667,-0.008848,0.439031,0.015244,0.898343,0.869380,0.008391,0.091007,-84.383141,372.827637,-36.594276,,,,,,
1466451596.74,2.677376,-0.014629,-0.774439,-0.068840,-1.002583,-0.009575,0.447674,0.014628,0.894077,0.815586,0.016179,0.188290,-84.383141,372.827637,-36.594276,,,,,,
1466451596.75,2.667064,-0.014120,-0.773921,-0.069925,-1.046069,-0.026335,0.456873,0.014119,0.889420,0.863500,0.012324,0.180130,-84.823250,372.880524,-35.003262,,,,,,
1466451596.76,2.654804,-0.013722,-0.773351,-0.057451,-1.300885,-0.033240,0.467746,0.013721,0.883757,0.847913,0.015606,0.234881,-84.823250,372.880524,-35.003262,,,,,,
1466451596.77,2.639453,-0.013509,-0.772821,-0.041834,-1.593933,-0.037773,0.481258,0.013508,0.876475,0.791493,0.015392,0.303457,-84.823250,372.880524,-35.003262,,,,,,
1466451596.79,2.605394,-0.013355,-0.771476,-0.030281,-1.764813,-0.064366,0.510826,0.013355,0.859580,0.747947,0.019299,0.409249,-86.741234,372.875519,-29.998127,,,,,,
1466451596.78,2.622797,-0.013353,-0.772166,-0.046182,-1.685210,-0.049978,0.495790,0.013352,0.868340,0.765776,0.018264,0.362602,-86.741234,372.875519,-29.998127,,,,,,
1466451596.80,2.586291,-0.013464,-0.770812,-0.024135,-1.958064,-0.063148,0.527152,0.013464,0.849664,0.694665,0.008891,0.444739,-86.741234,372.875519,-29.998127,,,,,,
1466451596.81,2.565823,-0.013617,-0.770168,-0.020003,-2.066358,-0.066722,0.544430,0.013617,0.838696,0.715580,0.010172,0.463825,-88.114868,372.802795,-26.719917,,,,,,
1466451596.82,2.543575,-0.013930,-0.769574,-0.001110,-2.288275,-0.068505,0.562950,0.013929,0.826373,0.707039,0.019701,0.486432,-88.114868,372.802795,-26.719917,,,,,,
1466451596.83,2.517783,-0.014312,-0.769176,0.004743,-2.678025,-0.042637,0.584071,0.014311,0.811576,0.567448,-0.003386,0.544808,-88.114868,372.802795,-26.719917,,,,,,
1466451596.84,2.490754,-0.014708,-0.768803,0.015407,-2.697087,-0.062731,0.605788,0.014707,0.795490,0.676438,0.017412,0.532284,-91.019180,372.593842,-18.693542,,,,,,
1466451596.85,2.462205,-0.015263,-0.768514,0.030021,-2.926449,-0.059149,0.628244,0.015262,0.777867,0.626319,0.019223,0.587215,-91.019180,372.593842,-18.693542,,,,,,
1466451596.86,2.430420,-0.016061,-0.768362,0.063685,-3.254557,-0.059187,0.652639,0.016060,0.757499,0.554942,0.019325,0.626549,-91.019180,372.593842,-18.693542,,,,,,
1466451596.87,2.397620,-0.017089,-0.768302,0.072239,-3.261933,-0.081485,0.677118,0.017088,0.735676,0.596427,0.028703,0.623806,-92.331711,372.486908,-13.728237,,,,,,
