timestamp,attitude_roll,attitude_pitch,attitude_yaw,rotation_rate_x,rotation_rate_y,rotation_rate_z,gravity_x,gravity_y,gravity_z,user_acc_x,user_acc_y,user_acc_z,magnetic_field_x,magnetic_field_y,magnetic_field_z,latitude(degree),longitude(degree),altitude(meter),speed(m/s),course(degree),timestamp
1466440914.25,-0.087925,-0.011590,0.000626,-0.002111,0.001918,0.000263,-0.087806,0.011590,-0.996070,-0.015481,-0.008126,-0.015145,31.406193,16.978718,3.339868,,,,,,
1466440914.26,-0.087248,-0.011819,0.000601,0.005356,0.009358,-0.002970,-0.087131,0.011818,-0.996127,0.026721,0.016624,0.019274,31.406679,16.979057,3.333570,,,,,,
1466440914.27,-0.087672,-0.011657,0.000612,0.001045,-0.024633,0.002561,-0.087553,0.011657,-0.996092,-0.011446,-0.010589,-0.024950,31.406679,16.979057,3.333570,,,,,,
1466440914.28,-0.087651,-0.011724,0.000627,0.001106,0.023150,0.001197,-0.087533,0.011724,-0.996093,-0.006247,0.006343,0.008162,31.406679,16.979057,3.333570,,,,,,
1466440914.29,-0.087572,-0.011678,0.000641,0.001059,-0.012953,0.002488,-0.087454,0.011678,-0.996100,0.005179,-0.003407,-0.003488,31.405701,16.979078,3.342669,,,,,,
1466440914.30,-0.087789,-0.011657,0.000652,0.000036,0.016782,0.000172,-0.087671,0.011656,-0.996081,-0.015479,-0.000594,-0.007489,31.405701,16.979078,3.342669,,,,,,
1466440914.31,-0.087443,-0.011710,0.000662,0.000009,-0.003393,0.001363,-0.087326,0.011709,-0.996111,0.015396,0.002741,0.002993,31.405701,16.979078,3.342669,,,,,,
1466440914.32,-0.087648,-0.011648,0.000672,0.003203,-0.003396,0.001366,-0.087530,0.011648,-0.996094,-0.007517,-0.001974,-0.010040,31.405861,16.977211,3.350644,,,,,,
1466440914.33,-0.087530,-0.011692,0.000670,-0.002112,0.001919,0.000263,-0.087412,0.011692,-0.996104,0.004603,0.002255,0.000849,31.405861,16.977211,3.350644,,,,,,
1466440914.34,-0.087624,-0.011664,0.000678,0.002141,-0.001271,0.001351,-0.087506,0.011664,-0.996096,-0.004291,-0.000677,-0.004591,31.405861,16.977211,3.350644,,,,,,
,,,,,,,,,,,,,,,,29.719994,-95.399257,9.906107,-1.000000,-1.000000,1466440845.10
,,,,,,,,,,,,,,,,29.719948,-95.399114,9.906107,-1.000000,-1.000000,1466440828.93
1466440914.35,-0.087543,-0.011653,0.000686,-0.001037,0.008292,-0.000841,-0.087426,0.011653,-0.996103,0.000099,-0.000956,-0.004004,31.406248,16.977097,3.347597,,,,,,
,,,,,,,,,,,,,,,,29.719994,-95.399257,9.906107,-1.000000,-1.000000,1466440845.10
1466440914.36,-0.087535,-0.011656,0.000694,0.001074,-0.003394,0.001364,-0.087417,0.011655,-0.996104,0.000442,0.000521,-0.005575,31.406248,16.977097,3.347597,,,,,,
1466440914.37,-0.087559,-0.011671,0.000687,0.001085,0.000861,-0.001856,-0.087441,0.011670,-0.996101,-0.002036,0.001635,-0.004707,31.406248,16.977097,3.347597,,,,,,
,,,,,,,,,,,,,,,,29.720291,-95.400281,9.906107,-1.000000,-1.000000,1466440914.38
1466440914.38,-0.087568,-0.011662,0.000684,0.000024,0.005106,-0.000820,-0.087450,0.011662,-0.996101,-0.003157,-0.000462,-0.002038,31.406610,16.976677,3.346301,,,,,,
1466440914.39,-0.087484,-0.011655,0.000678,0.002147,-0.000204,-0.000784,-0.087366,0.011654,-0.996108,0.002909,0.000629,-0.003556,31.406610,16.976677,3.346301,,,,,,
,,,,,,,,,,,,,,,,29.720432,-95.400766,9.906107,-1.000000,-1.000000,1466440914.39
,,,,,,,,,,,,,,,,29.720503,-95.401009,9.906107,-1.000000,-1.000000,1466440914.40
1466440914.40,-0.087520,-0.011627,0.000678,0.001075,-0.004453,0.000306,-0.087403,0.011627,-0.996105,0.001084,-0.000564,-0.008121,31.406610,16.976677,3.346301,,,,,,
1466440914.41,-0.087496,-0.011627,0.000675,0.000012,0.003985,0.000250,-0.087378,0.011627,-0.996107,-0.000573,-0.001388,-0.005846,31.406179,16.977060,3.348417,,,,,,
1466440914.42,-0.087484,-0.011617,0.000677,0.000009,-0.000260,-0.000788,-0.087367,0.011617,-0.996108,0.000209,-0.000905,-0.003663,31.406179,16.977060,3.348417,,,,,,
,,,,,,,,,,,,,,,,29.720538,-95.401130,9.906107,-1.000000,-1.000000,1466440914.41
1466440914.43,-0.087475,-0.011621,0.000659,0.001079,0.001866,-0.001865,-0.087358,0.011621,-0.996109,-0.000517,0.000708,-0.002777,31.406132,16.977314,3.347580,,,,,,
1466440914.44,-0.087581,-0.011615,0.000649,0.000021,0.007175,-0.001899,-0.087463,0.011615,-0.996100,-0.009278,-0.000293,0.001334,31.406132,16.977314,3.347580,,,,,,
1466440914.45,-0.087676,-0.011623,0.000631,0.000057,0.037962,-0.001028,-0.087558,0.011623,-0.996092,-0.021588,0.000767,0.012632,31.406132,16.977314,3.347580,,,,,,
1466440914.46,-0.087449,-0.011624,0.000612,-0.003047,0.111221,-0.000426,-0.087332,0.011624,-0.996111,-0.038294,-0.001705,0.027148,31.406132,16.977314,3.347580,,,,,,
1466440914.47,-0.086450,-0.011668,0.000566,-0.005021,0.230146,-0.004367,-0.086337,0.011668,-0.996198,-0.054960,-0.000011,0.041928,31.405973,16.978722,3.341933,,,,,,
1466440914.48,-0.082896,-0.011738,0.000492,-0.007995,0.402166,-0.007578,-0.082795,0.011737,-0.996497,-0.070418,0.000714,0.057411,31.405973,16.978722,3.341933,,,,,,
1466440914.49,-0.077282,-0.011866,0.000380,-0.015180,0.612412,-0.011033,-0.077199,0.011865,-0.996945,-0.083628,-0.000925,0.064633,31.405973,16.978722,3.341933,,,,,,
1466440914.50,-0.069432,-0.012063,0.000228,-0.021270,0.847080,-0.014640,-0.069372,0.012063,-0.997518,-0.092036,0.001075,0.075353,31.365606,16.985010,3.672711,,,,,,
1466440914.51,-0.059112,-0.012294,0.000028,-0.025205,1.100861,-0.019428,-0.059073,0.012293,-0.998178,-0.108728,0.000311,0.087152,31.365606,16.985010,3.672711,,,,,,
1466440914.52,-0.045879,-0.012632,-0.000215,-0.039730,1.399244,-0.024508,-0.045859,0.012631,-0.998868,-0.109201,-0.003842,0.091977,31.365606,16.985010,3.672711,,,,,,
1466440914.53,-0.030268,-0.013080,-0.000514,-0.047982,1.604188,-0.030059,-0.030261,0.013080,-0.999456,-0.097913,0.003156,0.076498,31.288134,16.993326,4.249733,,,,,,
1466440914.54,-0.013117,-0.013668,-0.000856,-0.064836,1.744363,-0.034148,-0.013116,0.013668,-0.999821,-0.054023,-0.003322,0.044514,31.288134,16.993326,4.249733,,,,,,
1466440914.55,0.003691,-0.014454,-0.001218,-0.082016,1.624397,-0.036606,0.003691,0.014454,-0.999889,0.017214,0.000256,-0.031941,31.288134,16.993326,4.249733,,,,,,
1466440914.56,0.017884,-0.015212,-0.001537,-0.068505,1.367422,-0.030724,0.017881,0.015211,-0.999724,0.107867,0.001024,-0.070405,30.938311,17.018702,6.242228,,,,,,
1466440914.57,0.029778,-0.015724,-0.001762,-0.045423,1.106186,-0.021611,0.029770,0.015723,-0.999433,0.181290,0.004388,-0.125521,30.938311,17.018702,6.242228,,,,,,
1466440914.58,0.037563,-0.015990,-0.001901,-0.018299,0.670816,-0.012467,0.037550,0.015989,-0.999167,0.194231,0.000139,-0.153070,30.938311,17.018702,6.242228,,,,,,
1466440914.59,0.041489,-0.015982,-0.001971,0.005727,0.308717,-0.005914,0.041472,0.015982,-0.999012,0.169237,0.004541,-0.125042,30.755003,17.027746,7.068674,,,,,,
1466440914.60,0.042585,-0.015827,-0.001992,0.018175,0.052805,-0.000039,0.042567,0.015826,-0.998968,0.087346,0.003049,-0.072290,30.755003,17.027746,7.068674,,,,,,
1466440914.61,0.042742,-0.015645,-0.001971,0.014948,0.031562,0.003284,0.042724,0.015644,-0.998964,-0.023208,-0.005360,0.005846,30.755003,17.027746,7.068674,,,,,,
1466440914.62,0.044375,-0.015525,-0.001963,0.014110,0.208889,0.000043,0.044355,0.015524,-0.998895,-0.032972,0.005090,0.039377,30.657259,17.034708,7.465376,,,,,,
1466440914.63,0.046602,-0.015517,-0.001974,-0.005045,0.215272,-0.001081,0.046579,0.015517,-0.998794,-0.038294,-0.003035,0.007156,30.657259,17.034708,7.465376,,,,,,
,,,,,,,,,,,,,,,,29.719919,-95.399105,9.000000,-1.000000,-1.000000,1466440914.66
1466440914.64,0.048946,-0.015600,-0.001977,-0.007133,0.248189,-0.001290,0.048921,0.015599,-0.998681,-0.023866,-0.000386,0.014123,30.628265,17.035580,7.581491,,,,,,
1466440914.65,0.051890,-0.015682,-0.001994,-0.008123,0.306592,-0.002721,0.051861,0.015682,-0.998531,-0.001232,0.002080,0.005688,30.628265,17.035580,7.581491,,,,,,
1466440914.66,0.054914,-0.015738,-0.002013,-0.003879,0.295969,-0.001586,0.054880,0.015737,-0.998369,0.005332,0.001810,-0.009688,30.628265,17.035580,7.581491,,,,,,
1466440914.67,0.058102,-0.015720,-0.002047,0.004693,0.336319,-0.003959,0.058062,0.015719,-0.998189,-0.001422,0.003354,0.008153,30.628265,17.035580,7.581491,,,,,,
1466440914.68,0.061800,-0.015750,-0.002103,-0.004834,0.376678,-0.006351,0.061753,0.015750,-0.997967,-0.023926,0.001065,0.010113,30.537607,17.036589,7.936617,,,,,,
1466440914.69,0.066278,-0.015722,-0.002173,0.005956,0.489227,-0.008110,0.066221,0.015722,-0.997681,-0.060651,0.003413,0.048966,30.537607,17.036589,7.936617,,,,,,
1466440914.70,0.073585,-0.015738,-0.002306,-0.005323,0.825839,-0.015555,0.073510,0.015738,-0.997170,-0.119973,-0.005117,0.102578,30.537607,17.036589,7.936617,,,,,,
1466440914.71,0.085007,-0.015915,-0.002494,-0.018640,1.238895,-0.021352,0.084894,0.015914,-0.996263,-0.153665,-0.003356,0.121324,30.469542,17.040466,8.185972,,,,,,
1466440914.72,0.099806,-0.016280,-0.002722,-0.038458,1.560643,-0.027648,0.099627,0.016280,-0.994892,-0.183245,-0.003768,0.126773,30.469542,17.040466,8.185972,,,,,,
1466440914.73,0.119053,-0.016774,-0.003007,-0.049519,2.071391,-0.036184,0.118756,0.016774,-0.992782,-0.222866,-0.001850,0.187377,30.469542,17.040466,8.185972,,,,,,
1466440914.74,0.144353,-0.017501,-0.003385,-0.072155,2.684089,-0.049629,0.143830,0.017500,-0.989448,-0.241853,-0.001097,0.221168,29.978920,17.059784,9.798409,,,,,,
1466440914.75,0.175817,-0.018403,-0.003815,-0.085221,3.292526,-0.059845,0.174883,0.018402,-0.984417,-0.216051,-0.001129,0.220394,29.978920,17.059784,9.798409,,,,,,
1466440914.76,0.213397,-0.019467,-0.004316,-0.097185,3.928572,-0.071297,0.211740,0.019466,-0.977132,-0.202799,0.002781,0.241369,29.978920,17.059784,9.798409,,,,,,
1466440914.77,0.258728,-0.020633,-0.004858,-0.103599,4.750422,-0.080716,0.255796,0.020631,-0.966511,-0.213865,-0.001405,0.307499,29.356133,17.074711,11.508799,,,,,,
1466440914.78,0.311568,-0.022219,-0.005323,-0.153846,5.422593,-0.093497,0.306476,0.022218,-0.951619,-0.240436,-0.007584,0.297597,29.356133,17.074711,11.508799,,,,,,
1466440914.79,0.370133,-0.024009,-0.005784,-0.148806,6.029968,-0.106881,0.361635,0.024007,-0.932011,-0.226869,0.003550,0.350666,29.356133,17.074711,11.508799,,,,,,
1466440914.80,0.437720,-0.026008,-0.006212,-0.170947,7.042956,-0.119643,0.423732,0.026006,-0.905414,-0.222880,0.005351,0.459934,26.514627,17.100525,17.038990,,,,,,
1466440914.81,0.517885,-0.028067,-0.006635,-0.168247,8.329889,-0.138356,0.494849,0.028063,-0.868526,-0.261084,0.002333,0.563777,26.514627,17.100525,17.038990,,,,,,
1466440914.82,0.609545,-0.030837,-0.006762,-0.246676,9.433201,-0.166643,0.572223,0.030832,-0.819519,-0.356830,0.009634,0.662628,26.514627,17.100525,17.038990,,,,,,
1466440914.83,0.714229,-0.033966,-0.006649,-0.255517,10.849691,-0.190438,0.654657,0.033960,-0.755163,-0.264780,0.009085,0.812307,23.669893,17.101101,20.810312,,,,,,
1466440914.84,0.834020,-0.037567,-0.006088,-0.310048,12.330993,-0.221071,0.740116,0.037558,-0.671430,-0.181888,0.016290,0.938047,23.669893,17.101101,20.810312,,,,,,
1466440914.85,0.968700,-0.041467,-0.004948,-0.335786,13.863218,-0.242415,0.823442,0.041455,-0.565885,-0.103959,0.021289,1.088666,23.669893,17.101101,20.810312,,,,,,
1466440914.87,1.224151,-0.044666,-0.001486,-0.252998,8.947424,0.031192,0.939580,0.044651,-0.339406,2.744304,0.063427,-1.095134,12.067932,16.962250,29.196363,,,,,,
1466440914.86,1.117622,-0.045136,-0.003150,-0.325841,15.090504,-0.193687,0.898146,0.045120,-0.437376,0.073427,0.022751,1.212141,12.067932,16.962250,29.196363,,,,,,
1466440914.88,1.298014,-0.047805,-0.000072,-0.119065,7.421345,-0.272052,0.961925,0.047786,-0.269104,1.777547,0.082890,-1.198440,12.067932,16.962250,29.196363,,,,,,
1466440914.89,1.386660,-0.051098,0.001963,-0.244264,8.689083,-0.237550,0.981812,0.051076,-0.182859,-0.317642,-0.037511,0.555845,4.272604,16.834118,31.370974,,,,,,
1466440914.90,1.461572,-0.052842,0.002922,-0.123501,7.460324,-0.159469,0.992653,0.052817,-0.108855,-0.444420,0.012582,0.351104,4.272604,16.834118,31.370974,,,,,,
1466440914.91,1.557151,-0.054891,0.005299,-0.279553,10.346436,-0.196886,0.998401,0.054863,-0.013625,-0.303195,0.005439,0.930907,4.272604,16.834118,31.370974,,,,,,
1466440914.92,1.671964,-0.056892,0.008078,-0.264111,11.606814,-0.214355,0.993277,0.056861,0.100831,-0.093909,0.020593,0.794570,-6.375268,16.555239,31.161844,,,,,,
1466440914.93,1.792617,-0.058599,0.011387,-0.311144,12.291730,-0.229342,0.973824,0.058566,0.219628,0.006584,0.013990,0.731956,-6.375268,16.555239,31.161844,,,,,,
1466440914.94,1.926579,-0.059999,0.015085,-0.317869,13.706081,-0.247799,0.935688,0.059963,0.347697,0.199597,0.023609,0.947820,-6.375268,16.555239,31.161844,,,,,,
1466440914.95,2.069274,-0.060860,0.019376,-0.358554,14.368678,-0.256253,0.876685,0.060822,0.477204,0.339394,0.037994,0.896087,-13.540812,16.340738,28.903412,,,,,,
1466440914.96,2.217765,-0.061274,0.023743,-0.349250,14.971818,-0.274928,0.796417,0.061236,0.601639,0.524811,0.016554,0.942490,-13.540812,16.340738,28.903412,,,,,,
1466440914.97,2.370590,-0.060889,0.028390,-0.372262,15.293569,-0.281227,0.695563,0.060851,0.715883,0.686624,0.038010,0.896864,-13.540812,16.340738,28.903412,,,,,,
1466440914.98,2.524406,-0.059914,0.032875,-0.364718,15.362587,-0.283781,0.577705,0.059879,0.814047,0.792092,0.045834,0.858332,-27.336193,15.793552,17.002258,,,,,,
1466440914.99,2.677602,-0.058076,0.037213,-0.384041,15.248963,-0.275637,0.446766,0.058043,0.892766,0.892406,0.035204,0.805675,-27.336193,15.793552,17.002258,,,,,,
1466440915.00,2.827955,-0.055742,0.041125,-0.357850,14.905992,-0.274524,0.308042,0.055714,0.949740,0.998080,0.041149,0.721387,-31.295704,15.535119,8.063475,,,,,,
1466440915.01,2.970810,-0.053008,0.044538,-0.348353,14.005548,-0.258223,0.169715,0.052984,0.984068,1.058358,0.030329,0.496492,-31.295704,15.535119,8.063475,,,,,,
1466440915.02,3.104123,-0.050034,0.047316,-0.309071,13.083854,-0.241759,0.037414,0.050014,0.998048,1.088212,0.039433,0.403564,-31.295704,15.535119,8.063475,,,,,,
1466440915.03,-3.057859,-0.047101,0.049461,-0.285207,11.767154,-0.214317,-0.083543,0.047083,0.995391,1.056871,0.027105,0.201203,-31.295704,15.535119,8.063475,,,,,,
1466440915.04,-2.950796,-0.044196,0.051071,-0.254027,10.330483,-0.192502,-0.189456,0.044181,0.980895,1.034869,0.032280,0.035539,-31.124098,15.221001,-9.240804,,,,,,
1466440915.05,-2.859032,-0.041665,0.052168,-0.216648,8.762115,-0.158147,-0.278574,0.041653,0.959511,1.012186,0.022861,-0.143975,-31.124098,15.221001,-9.240804,,,,,,
1466440915.06,-2.786249,-0.039478,0.052874,-0.169168,6.750981,-0.125262,-0.347641,0.039468,0.936797,0.984467,0.024756,-0.359602,-31.124098,15.221001,-9.240804,,,,,,
1466440915.07,-2.733313,-0.037926,0.053306,-0.119466,4.815231,-0.091783,-0.396746,0.037917,0.917145,0.936983,0.016160,-0.451554,-28.749989,15.170649,-15.135061,,,,,,
1466440915.08,-2.700001,-0.036879,0.053528,-0.070893,2.836994,-0.052716,-0.427089,0.036871,0.903458,0.847163,0.010019,-0.525757,-28.749989,15.170649,-15.135061,,,,,,
1466440915.09,-2.685352,-0.036484,0.053679,-0.019963,1.024424,-0.024267,-0.440283,0.036476,0.897118,0.766013,0.012672,-0.515694,-28.749989,15.170649,-15.135061,,,,,,
1466440915.10,-2.687345,-0.036494,0.053714,0.010972,-0.600197,0.002985,-0.438495,0.036486,0.897993,0.652377,0.012540,-0.475767,-25.758333,15.156137,-19.813643,,,,,,
1466440915.11,-2.702218,-0.036991,0.053668,0.049961,-1.740649,0.030400,-0.425083,0.036983,0.904399,0.536869,0.001301,-0.348399,-25.758333,15.156137,-19.813643,,,,,,
1466440915.12,-2.728214,-0.037736,0.053532,0.069761,-2.913983,0.049488,-0.401419,0.037727,0.915117,0.525748,0.017372,-0.347353,-25.758333,15.156137,-19.813643,,,,,,
1466440915.13,-2.767067,-0.038954,0.053274,0.111757,-4.207330,0.075737,-0.365554,0.038945,0.929975,0.541015,0.008175,-0.358289,-26.085407,15.153212,-19.383299,,,,,,
1466440915.14,-2.819669,-0.040495,0.052844,0.138707,-5.617459,0.099510,-0.316133,0.040484,0.947851,0.551270,0.010435,-0.360113,-26.085407,15.153212,-19.383299,,,,,,
1466440915.15,-2.885090,-0.042416,0.052183,0.172319,-6.810980,0.120866,-0.253471,0.042403,0.966413,0.522300,0.008851,-0.262113,-26.085407,15.153212,-19.383299,,,,,,
1466440915.16,-2.962303,-0.044543,0.051253,0.194158,-8.051219,0.143569,-0.178154,0.044528,0.982995,0.573890,0.019620,-0.202843,-29.131916,15.165289,-14.391872,,,,,,
1466440915.17,-3.052032,-0.046965,0.049922,0.230990,-9.217147,0.169013,-0.089343,0.046948,0.994894,0.530413,0.006168,-0.084432,-29.131916,15.165289,-14.391872,,,,,,
1466440915.18,3.132314,-0.049448,0.048246,0.242643,-10.104835,0.179915,0.009267,0.049428,0.998735,0.546458,0.019710,0.053817,-29.131916,15.165289,-14.391872,,,,,,
1466440915.19,3.024997,-0.051958,0.046088,0.274625,-10.889579,0.205093,0.116174,0.051934,0.991870,0.508261,0.010810,0.190961,-31.077082,15.207258,-9.419929,,,,,,
1466440915.20,2.911608,-0.054317,0.043574,0.273917,-11.457638,0.206526,0.227627,0.054290,0.972234,0.527912,0.030350,0.316172,-31.077082,15.207258,-9.419929,,,,,,
1466440915.21,2.795266,-0.056494,0.040688,0.293910,-11.636048,0.214051,0.338903,0.056464,0.939125,0.454493,0.016412,0.465767,-31.077082,15.207258,-9.419929,,,,,,
1466440915.22,2.678077,-0.058234,0.037663,0.278908,-11.723090,0.208195,0.446338,0.058201,0.892970,0.389478,0.024898,0.538015,-32.067265,15.436126,4.381473,,,,,,
1466440915.23,2.562011,-0.059726,0.034398,0.288779,-11.492683,0.206760,0.546698,0.059690,0.835200,0.267465,0.023745,0.630575,-32.067265,15.436126,4.381473,,,,,,
1466440915.24,2.450973,-0.060618,0.031193,0.255402,-10.942647,0.201148,0.635845,0.060581,0.769435,0.175358,0.023739,0.683369,-32.067265,15.436126,4.381473,,,,,,
1466440915.25,2.345283,-0.061187,0.028043,0.257143,-10.413853,0.191447,0.713442,0.061149,0.698041,0.096220,0.022209,0.666171,-30.136248,15.612604,11.568655,,,,,,
1466440915.26,2.246884,-0.061401,0.025066,0.226269,-9.576052,0.177646,0.778557,0.061362,0.624567,-0.026985,0.017983,0.674078,-30.136248,15.612604,11.568655,,,,,,
1466440915.27,2.157633,-0.061311,0.022426,0.205016,-8.710642,0.161553,0.831132,0.061272,0.552690,-0.072282,0.010734,0.643188,-30.136248,15.612604,11.568655,,,,,,
1466440915.28,2.077302,-0.061069,0.020001,0.186022,-7.745418,0.142707,0.872815,0.061031,0.484220,-0.197751,0.013112,0.597277,-23.086594,15.977612,22.304836,,,,,,
1466440915.29,2.008853,-0.060683,0.018058,0.148182,-6.533832,0.116975,0.903911,0.060646,0.423400,-0.257564,0.008980,0.593080,-23.086594,15.977612,22.304836,,,,,,
1466440915.30,1.952437,-0.060299,0.016358,0.133772,-5.306351,0.098618,0.926368,0.060263,0.371767,-0.373924,0.007471,0.536757,-23.086594,15.977612,22.304836,,,,,,
1466440915.31,1.908658,-0.059911,0.015149,0.088488,-4.086270,0.073890,0.941773,0.059875,0.330875,-0.379410,-0.001388,0.486858,-19.493231,16.118498,25.416306,,,,,,
1466440915.32,1.876846,-0.059580,0.014254,0.070897,-2.851349,0.053354,0.951839,0.059544,0.300759,-0.448452,0.006267,0.445578,-19.493231,16.118498,25.416306,,,,,,
1466440915.33,1.857987,-0.059370,0.013741,0.032078,-1.566507,0.030355,0.957354,0.059335,0.282760,-0.468233,-0.000085,0.438111,-19.493231,16.118498,25.416306,,,,,,
1466440915.34,1.851868,-0.059296,0.013583,0.007096,-0.289099,0.005287,0.959070,0.059261,0.276898,-0.491251,-0.002132,0.425403,-15.419006,16.262148,27.992453,,,,,,
1466440915.35,1.858457,-0.059317,0.013781,-0.027505,0.968126,-0.014341,0.957224,0.059282,0.283211,-0.486795,0.000898,0.412148,-15.419006,16.262148,27.992453,,,,,,
1466440915.36,1.877232,-0.059475,0.014334,-0.054715,2.172262,-0.035758,0.951729,0.059440,0.301129,-0.458412,-0.001823,0.406467,-15.419006,16.262148,27.992453,,,,,,
1466440915.37,1.907476,-0.059734,0.015212,-0.080972,3.285086,-0.057666,0.942173,0.059698,0.329766,-0.401783,0.002283,0.381980,-15.431434,16.261286,27.986105,,,,,,
1466440915.38,1.947736,-0.060042,0.016370,-0.102079,4.268352,-0.073433,0.928120,0.060006,0.367414,-0.358006,0.003898,0.347338,-15.431434,16.261286,27.986105,,,,,,
1466440915.39,1.998386,-0.060399,0.017832,-0.130566,5.301542,-0.094844,0.908308,0.060363,0.413923,-0.280348,-0.000228,0.359576,-15.431434,16.261286,27.986105,,,,,,
1466440915.40,2.058527,-0.060662,0.019659,-0.153862,6.252885,-0.105093,0.881774,0.060625,0.467760,-0.261153,0.002379,0.339170,-19.220823,16.127495,25.617268,,,,,,
1466440915.41,2.128554,-0.060935,0.021726,-0.172861,7.201143,-0.132348,0.846869,0.060897,0.528303,-0.143882,0.006470,0.387957,-19.220823,16.127495,25.617268,,,,,,
1466440915.42,2.205584,-0.061025,0.024105,-0.194396,7.844630,-0.144921,0.803699,0.060987,0.591903,-0.063739,-0.000272,0.351304,-22.418293,16.002087,22.959396,,,,,,
1466440915.43,2.289053,-0.060947,0.026621,-0.204244,8.473237,-0.154195,0.751556,0.060909,0.656851,0.036957,0.023121,0.359918,-22.418293,16.002087,22.959396,,,,,,
1466440915.44,2.376586,-0.060639,0.029267,-0.215547,8.796037,-0.158360,0.691269,0.060602,0.720052,0.159683,-0.002984,0.335978,-22.418293,16.002087,22.959396,,,,,,
1466440915.45,2.467286,-0.060081,0.031959,-0.219355,9.139030,-0.171159,0.623229,0.060045,0.779731,0.201035,0.018995,0.329827,-22.418293,16.002087,22.959396,,,,,,
1466440915.46,2.559913,-0.059264,0.034667,-0.225622,9.242018,-0.167554,0.548463,0.059229,0.834074,0.311827,0.009710,0.322313,-28.882763,15.686941,14.334803,,,,,,
1466440915.47,2.651187,-0.058196,0.037264,-0.220517,9.064700,-0.168566,0.470186,0.058163,0.880649,0.374769,0.013858,0.236340,-28.882763,15.686941,14.334803,,,,,,
1466440915.48,2.741082,-0.056959,0.039660,-0.217497,8.937262,-0.160312,0.389256,0.056928,0.919369,0.396953,0.024371,0.241917,-31.073376,15.532689,8.886027,,,,,,
1466440915.49,2.827854,-0.055526,0.041914,-0.205209,8.547573,-0.157856,0.308141,0.055497,0.949721,0.466578,0.008239,0.178407,-31.073376,15.532689,8.886027,,,,,,
1466440915.50,2.908315,-0.054068,0.043887,-0.193348,7.830826,-0.144833,0.230830,0.054041,0.971492,0.537359,0.028478,0.043843,-31.073376,15.532689,8.886027,,,,,,
1466440915.51,2.979877,-0.052610,0.045550,-0.165751,6.930374,-0.128514,0.160789,0.052585,0.985587,0.555459,0.008099,-0.044883,-31.073376,15.532689,8.886027,,,,,,
1466440915.52,3.044959,-0.051191,0.046924,-0.156914,6.350599,-0.115289,0.096356,0.051169,0.994031,0.497271,0.017953,-0.038815,-32.391098,15.308418,-1.499857,,,,,,
1466440915.53,3.100922,-0.049891,0.048091,-0.127387,5.282396,-0.103238,0.040609,0.049871,0.997930,0.582042,0.009639,-0.146154,-32.391098,15.308418,-1.499857,,,,,,
1466440915.54,-3.138197,-0.048872,0.048939,-0.099057,4.126034,-0.079991,-0.003392,0.048852,0.998800,0.542683,0.016013,-0.272192,-32.010731,15.245999,-5.352863,,,,,,
1466440915.55,-3.104779,-0.048029,0.049540,-0.074830,3.097085,-0.055418,-0.036762,0.048011,0.998170,0.492008,0.005349,-0.264222,-32.010731,15.245999,-5.352863,,,,,,
1466440915.56,-3.080139,-0.047448,0.049963,-0.051436,2.239110,-0.040433,-0.061346,0.047430,0.996989,0.444830,0.009485,-0.248912,-32.010731,15.245999,-5.352863,,,,,,
1466440915.57,-3.066208,-0.047103,0.050190,-0.025226,1.084882,-0.020395,-0.075230,0.047086,0.996054,0.458470,0.003207,-0.311880,-31.523973,15.212353,-7.784860,,,,,,
1466440915.58,-3.064728,-0.047108,0.050224,0.008324,-0.156423,0.002326,-0.076704,0.047091,0.995941,0.464430,0.003446,-0.372223,-31.523973,15.212353,-7.784860,,,,,,
1466440915.59,-3.073818,-0.047363,0.050080,0.032634,-1.129079,0.020159,-0.067646,0.047345,0.996585,0.402363,0.011523,-0.339405,-31.523973,15.212353,-7.784860,,,,,,
1466440915.60,-3.091875,-0.047848,0.049790,0.050638,-2.040141,0.035471,-0.049641,0.047830,0.997621,0.370670,0.009131,-0.284532,-31.276974,15.199597,-8.746637,,,,,,
1466440915.61,-3.118994,-0.048560,0.049322,0.075069,-2.915114,0.053756,-0.022570,0.048541,0.998566,0.327166,0.005704,-0.259995,-31.276974,15.199597,-8.746637,,,,,,
1466440915.62,3.129607,-0.049435,0.048669,0.091195,-3.620195,0.070968,0.011971,0.049415,0.998707,0.293037,0.008965,-0.213077,-31.276974,15.199597,-8.746637,,,,,,
1466440915.64,3.037207,-0.051634,0.046799,0.133835,-5.249072,0.099321,0.104057,0.051611,0.993231,0.323708,0.007608,-0.182196,-31.627863,15.215769,-7.344334,,,,,,
1466440915.63,3.087787,-0.050431,0.047853,0.106188,-4.390028,0.082197,0.053711,0.050410,0.997283,0.323501,0.006994,-0.172576,-31.627863,15.215769,-7.344334,,,,,,
1466440915.65,2.979353,-0.052904,0.045564,0.144659,-5.948820,0.109043,0.161303,0.052879,0.985487,0.327909,0.014718,-0.116591,-31.627863,15.215769,-7.344334,,,,,,
1466440915.66,2.916180,-0.054285,0.044118,0.169654,-6.384189,0.118185,0.223179,0.054258,0.973266,0.244548,0.006747,-0.017486,-31.627863,15.215769,-7.344334,,,,,,
1466440915.67,2.850395,-0.055562,0.042523,0.160774,-6.670875,0.121039,0.286657,0.055533,0.956423,0.225306,0.002969,0.080336,-32.392830,15.305991,-1.487243,,,,,,
1466440915.68,2.779918,-0.056842,0.040721,0.187870,-7.128543,0.130323,0.353269,0.056811,0.933795,0.220339,0.002896,0.072827,-32.392830,15.305991,-1.487243,,,,,,
1466440915.69,2.707936,-0.058065,0.038823,0.181445,-7.163571,0.127343,0.419484,0.058033,0.905906,0.158779,0.009701,0.159798,-32.282623,15.384403,2.633064,,,,,,
1466440915.70,2.637167,-0.059134,0.036910,0.182687,-7.034011,0.119080,0.482460,0.059099,0.873922,0.092339,0.006056,0.257761,-32.282623,15.384403,2.633064,,,,,,
1466440915.71,2.567582,-0.060062,0.034939,0.179651,-6.902354,0.121445,0.542025,0.060026,0.838216,0.038496,0.004794,0.272456,-32.282623,15.384403,2.633064,,,,,,
1466440915.72,2.500935,-0.060832,0.033012,0.170509,-6.561493,0.112911,0.596617,0.060795,0.800220,-0.005995,0.004192,0.311673,-30.209797,15.593244,11.401728,,,,,,
1466440915.73,2.438233,-0.061413,0.031189,0.156129,-6.156913,0.100779,0.645564,0.061374,0.761236,-0.054897,0.001583,0.318964,-30.209797,15.593244,11.401728,,,,,,
1466440915.74,2.380054,-0.061958,0.029434,0.155681,-5.675898,0.091376,0.688712,0.061918,0.722386,-0.097297,0.002520,0.327998,-30.209797,15.593244,11.401728,,,,,,
1466440915.75,2.327745,-0.062302,0.027907,0.124536,-5.053643,0.078926,0.725525,0.062262,0.685374,-0.160095,0.010339,0.334401,-28.459196,15.702013,15.142710,,,,,,
1466440915.76,2.283353,-0.062598,0.026553,0.119213,-4.221158,0.063055,0.755211,0.062557,0.652490,-0.225746,0.007481,0.357306,-28.459196,15.702013,15.142710,,,,,,
1466440915.77,2.245149,-0.062776,0.025474,0.087944,-3.691290,0.055443,0.779573,0.062734,0.623162,-0.183991,-0.006933,0.283500,-28.459196,15.702013,15.142710,,,,,,
1466440915.78,2.213141,-0.063030,0.024461,0.092032,-3.002141,0.036223,0.799103,0.062989,0.597885,-0.235993,0.001816,0.284653,-28.459196,15.702013,15.142710,,,,,,
1466440915.79,2.189324,-0.063174,0.023824,0.053692,-2.174954,0.022481,0.813108,0.063132,0.578679,-0.262189,-0.001975,0.282527,-24.992428,15.872058,20.229607,,,,,,
1466440915.80,2.173938,-0.063366,0.023338,0.046275,-1.308498,0.009589,0.821905,0.063324,0.566094,-0.315511,0.004822,0.273277,-24.992428,15.872058,20.229607,,,,,,
1466440915.81,2.167674,-0.063533,0.023170,0.015485,-0.409104,-0.007792,0.825426,0.063490,0.560929,-0.327226,0.001421,0.295745,-24.992428,15.872058,20.229607,,,,,,
1466440915.82,2.169294,-0.063726,0.023221,0.005806,0.345872,-0.023181,0.824506,0.063683,0.562258,-0.315839,0.003014,0.260663,-23.344351,15.939013,22.062862,,,,,,
1466440915.83,2.178891,-0.063894,0.023529,-0.025090,1.171985,-0.033715,0.819063,0.063850,0.570139,-0.298189,-0.005318,0.228232,-23.344351,15.939013,22.062862,,,,,,
1466440915.84,2.196781,-0.064070,0.024070,-0.035771,1.978987,-0.048367,0.808724,0.064026,0.584693,-0.287377,0.007904,0.241585,-23.344351,15.939013,22.062862,,,,,,
1466440915.85,2.221982,-0.064199,0.024837,-0.059363,2.681933,-0.060250,0.793727,0.064155,0.604881,-0.254573,0.016763,0.215889,-23.597832,15.925273,21.801575,,,,,,
1466440915.86,2.253020,-0.064295,0.025786,-0.070383,3.226655,-0.067935,0.774569,0.064251,0.629218,-0.178850,0.004307,0.171685,-23.597832,15.925273,21.801575,,,,,,
1466440915.87,2.288979,-0.064371,0.026870,-0.080415,3.707675,-0.077349,0.751443,0.064326,0.656655,-0.135461,0.003316,0.166114,-23.597832,15.925273,21.801575,,,,,,
1466440915.89,2.374107,-0.064260,0.029418,-0.102759,4.563508,-0.085932,0.692895,0.064215,0.718173,-0.071206,0.012262,0.122204,-25.886667,15.817275,19.117397,,,,,,
1466440915.88,2.329641,-0.064379,0.028085,-0.092627,4.152586,-0.083344,0.724128,0.064335,0.686658,-0.090827,0.009106,0.157595,-25.886667,15.817275,19.117397,,,,,,
1466440915.90,2.423647,-0.064080,0.030871,-0.117049,5.041350,-0.097458,0.656489,0.064036,0.751613,-0.051966,0.009923,0.205327,-27.443274,15.738089,16.880756,,,,,,
1466440915.91,2.475584,-0.063748,0.032448,-0.124277,5.218678,-0.099642,0.616598,0.063705,0.784697,0.025309,0.002259,0.144014,-27.443274,15.738089,16.880756,,,,,,
1466440915.92,2.529297,-0.063436,0.033995,-0.118716,5.398138,-0.107149,0.573591,0.063393,0.816685,0.073030,0.003944,0.115902,-27.443274,15.738089,16.880756,,,,,,
1466440915.93,2.584193,-0.062914,0.035610,-0.133501,5.497949,-0.105661,0.527935,0.062872,0.846955,0.114033,0.013223,0.105819,-29.041790,15.646382,14.055098,,,,,,
1466440915.94,2.638860,-0.062365,0.037138,-0.121872,5.438469,-0.101018,0.480886,0.062325,0.874565,0.138576,0.007957,0.085395,-29.041790,15.646382,14.055098,,,,,,
1466440915.95,2.692652,-0.061720,0.038623,-0.125196,5.330176,-0.103536,0.433185,0.061681,0.899192,0.205151,-0.001104,0.032571,-29.041790,15.646382,14.055098,,,,,,
1466440915.96,2.743775,-0.061073,0.039985,-0.110679,5.029662,-0.095250,0.386685,0.061035,0.920190,0.227740,-0.003021,0.002936,-31.457045,15.465773,7.552807,,,,,,
1466440915.97,2.791791,-0.060461,0.041263,-0.101486,4.717489,-0.094347,0.342085,0.060425,0.937724,0.236970,-0.007690,-0.010280,-31.457045,15.465773,7.552807,,,,,,
1466440915.98,2.836137,-0.059899,0.042399,-0.086007,4.326734,-0.090817,0.300188,0.059863,0.952000,0.279829,-0.006076,-0.079823,-31.457045,15.465773,7.552807,,,,,,
1466440915.99,2.874931,-0.059420,0.043370,-0.068684,3.726771,-0.074263,0.263048,0.059385,0.962953,0.287016,0.007448,-0.133241,-32.080959,15.391003,4.439548,,,,,,
1466440916.00,2.908021,-0.059003,0.044167,-0.057701,3.157619,-0.063232,0.231051,0.058969,0.971153,0.303571,0.010505,-0.161354,-32.080959,15.391003,4.439548,,,,,,
1466440916.01,2.934537,-0.058710,0.044800,-0.036228,2.458927,-0.053506,0.205225,0.058676,0.976954,0.289664,-0.015875,-0.172862,-32.080959,15.391003,4.439548,,,,,,
1466440916.02,2.954320,-0.058614,0.045253,-0.013594,1.846226,-0.038996,0.185860,0.058581,0.980828,0.232521,-0.006594,-0.137597,-32.080959,15.391003,4.439548,,,,,,
1466440916.03,2.969775,-0.058592,0.045614,-0.007731,1.432112,-0.033200,0.170680,0.058558,0.983585,0.237935,0.015417,-0.158725,-32.433769,15.291029,-0.125253,,,,,,
1466440916.04,2.979736,-0.058641,0.045828,0.005345,0.838528,-0.018820,0.160874,0.058607,0.985233,0.241912,0.020601,-0.199436,-32.433769,15.291029,-0.125253,,,,,,
1466440916.05,2.983561,-0.058761,0.045906,0.012028,0.236462,-0.007586,0.157103,0.058727,0.985834,0.238298,0.031773,-0.209925,-32.421196,15.266073,-1.262392,,,,,,
1466440916.06,2.981685,-0.058981,0.045850,0.028338,-0.330570,0.003438,0.158950,0.058947,0.985525,0.245362,-0.000918,-0.164084,-32.421196,15.266073,-1.262392,,,,,,
1466440916.07,2.973901,-0.059329,0.045665,0.036102,-0.917774,0.015644,0.166613,0.059295,0.984238,0.215406,0.030244,-0.191071,-32.421196,15.266073,-1.262392,,,,,,
1466440916.08,2.961258,-0.059694,0.045370,0.045101,-1.370130,0.027005,0.179039,0.059658,0.982031,0.174446,0.031925,-0.156546,-32.418358,15.259447,-1.407032,,,,,,
1466440916.09,2.944433,-0.060054,0.044958,0.041383,-1.778937,0.034888,0.195531,0.060018,0.978859,0.158610,0.040003,-0.131203,-32.418358,15.259447,-1.407032,,,,,,
1466440916.10,2.923949,-0.060397,0.044440,0.047309,-2.132547,0.046691,0.215536,0.060361,0.974629,0.166956,0.014316,-0.116001,-32.418358,15.259447,-1.407032,,,,,,
1466440916.11,2.899277,-0.060829,0.043804,0.058433,-2.596569,0.052806,0.239507,0.060791,0.968990,0.241191,-0.000763,-0.141689,-32.437325,15.276905,-0.465582,,,,,,
1466440916.12,2.868716,-0.061387,0.043063,0.077913,-3.188015,0.060792,0.268995,0.061348,0.961186,0.199419,-0.001274,-0.104405,-32.437325,15.276905,-0.465582,,,,,,
1466440916.13,2.834092,-0.062010,0.042157,0.085981,-3.536308,0.069371,0.302096,0.061970,0.951261,0.179502,0.004970,-0.049085,-32.437325,15.276905,-0.465582,,,,,,
1466440916.14,2.796691,-0.062639,0.041191,0.090987,-3.787961,0.072019,0.337441,0.062598,0.939263,0.155601,0.008248,-0.031029,-32.260113,15.352160,3.062167,,,,,,
1466440916.15,2.756380,-0.063276,0.040136,0.099094,-4.108641,0.078296,0.375004,0.063234,0.924864,0.106853,-0.018739,0.015306,-32.260113,15.352160,3.062167,,,,,,
1466440916.16,2.714842,-0.064082,0.039012,0.123576,-4.129863,0.068874,0.413065,0.064038,0.908447,0.091268,-0.045773,0.102829,-32.260113,15.352160,3.062167,,,,,,
1466440916.17,2.673192,-0.064879,0.037910,0.119268,-4.177628,0.063847,0.450510,0.064833,0.890414,0.043173,-0.021544,0.097791,-32.260113,15.352160,3.062167,,,,,,
1466440916.19,2.592187,-0.066183,0.035718,0.081238,-3.912202,0.078111,0.521037,0.066135,0.850968,-0.089153,0.098065,0.048523,-31.316730,15.466553,8.113501,,,,,,
1466440916.18,2.631881,-0.065742,0.036793,0.124709,-4.092671,0.057997,0.486871,0.065695,0.871000,0.012213,0.050867,0.089343,-31.316730,15.466553,8.113501,,,,,,
1466440916.20,2.555114,-0.066431,0.034628,0.077355,-3.607471,0.079389,0.552211,0.066382,0.831058,-0.074077,0.081980,0.064786,-30.540686,15.526632,10.581624,,,,,,
1466440916.21,2.521799,-0.066333,0.033667,0.038392,-3.252827,0.083513,0.579590,0.066284,0.812208,-0.085770,0.032028,0.092821,-30.540686,15.526632,10.581624,,,,,,
1466440916.22,2.490590,-0.066341,0.032677,0.069529,-3.059571,0.073816,0.604652,0.066293,0.793726,-0.070121,-0.058969,0.211339,-30.540686,15.526632,10.581624,,,,,,
1466440916.23,2.462795,-0.066388,0.031871,0.044485,-2.680447,0.054382,0.626474,0.066340,0.776614,-0.082087,-0.046106,0.155378,-29.698017,15.590152,12.678936,,,,,,
1466440916.24,2.438642,-0.066595,0.031173,0.070531,-2.315153,0.035086,0.645039,0.066546,0.761247,-0.118351,-0.040316,0.188216,-29.698017,15.590152,12.678936,,,,,,
1466440916.25,2.418950,-0.066758,0.030568,0.040231,-1.847956,0.036384,0.659896,0.066709,0.748390,-0.163878,0.023334,0.146904,-29.698017,15.590152,12.678936,,,,,,
1466440916.26,2.403584,-0.066858,0.030093,0.042901,-1.430646,0.025253,0.671313,0.066809,0.738157,-0.153948,-0.000021,0.146639,-28.210728,15.684663,15.618158,,,,,,
1466440916.27,2.393104,-0.066906,0.029754,0.021101,-0.982553,0.023486,0.679010,0.066857,0.731079,-0.178567,0.005394,0.151062,-28.210728,15.684663,15.618158,,,,,,
1466440916.28,2.387310,-0.067008,0.029553,0.020753,-0.436743,0.004096,0.683230,0.066958,0.727127,-0.173327,-0.015323,0.172653,-28.210728,15.684663,15.618158,,,,,,
1466440916.29,2.387030,-0.067051,0.029544,-0.001983,0.103741,-0.004639,0.683431,0.067000,0.726934,-0.186483,0.010240,0.141596,-27.790806,15.709211,16.330109,,,,,,
1466440916.30,2.391704,-0.067073,0.029691,-0.010959,0.580507,-0.011896,0.680025,0.067022,0.730119,-0.180131,0.030054,0.134703,-27.790806,15.709211,16.330109,,,,,,
1466440916.31,2.412676,-0.068077,0.030770,-0.033851,1.009555,-0.012484,0.664519,0.068024,0.744169,-0.149947,0.017105,0.107974,-27.790806,15.709211,16.330109,,,,,,
1466440916.32,2.425751,-0.067945,0.031135,-0.035488,1.396063,-0.019167,0.654738,0.067892,0.752800,-0.114852,0.002664,0.109413,-27.790806,15.709211,16.330109,,,,,,
1466440916.33,2.442030,-0.067805,0.031604,-0.041481,1.695521,-0.030631,0.642404,0.067753,0.763366,-0.073190,-0.029652,0.105470,-28.128090,15.669157,15.781909,,,,,,
1466440916.34,2.461268,-0.067700,0.032176,-0.046415,1.998152,-0.037857,0.627604,0.067649,0.775588,-0.077586,-0.005484,0.089021,-28.128090,15.669157,15.781909,,,,,,
1466440916.35,2.483853,-0.067561,0.032859,-0.053444,2.324150,-0.047359,0.609935,0.067509,0.789570,-0.046123,-0.004002,0.098949,-28.585546,15.644830,14.962836,,,,,,
1466440916.36,2.508426,-0.067360,0.033569,-0.060721,2.471733,-0.044034,0.590358,0.067309,0.804330,-0.024380,0.024458,0.034278,-28.585546,15.644830,14.962836,,,,,,
1466440916.37,2.533596,-0.067114,0.034297,-0.061697,2.540754,-0.045533,0.569939,0.067063,0.818946,-0.019508,0.005309,0.049661,-28.585546,15.644830,14.962836,,,,,,
1466440916.38,2.561061,-0.066812,0.035055,-0.069881,2.808329,-0.046154,0.547245,0.066762,0.834306,0.001110,0.010035,0.062728,-29.859993,15.564911,12.324574,,,,,,
1466440916.39,2.589567,-0.066484,0.035853,-0.067711,2.833823,-0.050570,0.523254,0.066435,0.849583,0.047714,-0.006147,0.021892,-29.859993,15.564911,12.324574,,,,,,
1466440916.40,2.618020,-0.066158,0.036666,-0.071936,2.859311,-0.051799,0.498884,0.066110,0.864144,0.025225,0.006476,0.027198,-29.859993,15.564911,12.324574,,,,,,
1466440916.41,2.647420,-0.065761,0.037464,-0.072907,2.944192,-0.050204,0.473279,0.065713,0.878458,0.053119,0.007376,0.033987,-30.517000,15.520275,10.659002,,,,,,
1466440916.43,2.704103,-0.064895,0.038962,-0.069987,2.730759,-0.045669,0.422775,0.064849,0.903911,0.103287,0.012101,-0.029278,-30.517000,15.520275,10.659002,,,,,,
1466440916.42,2.676366,-0.065331,0.038233,-0.073010,2.865613,-0.047582,0.447669,0.065285,0.891813,0.081827,0.009331,-0.014189,-30.517000,15.520275,10.659002,,,,,,
1466440916.44,2.730699,-0.064436,0.039645,-0.070091,2.651117,-0.043041,0.398600,0.064391,0.914862,0.105138,0.006058,-0.016088,-31.566841,15.433231,7.150559,,,,,,
1466440916.45,2.755588,-0.063987,0.040268,-0.064023,2.400520,-0.038270,0.375720,0.063943,0.924525,0.147611,0.004218,-0.065592,-31.566841,15.433231,7.150559,,,,,,
1466440916.46,2.777126,-0.063617,0.040810,-0.051641,2.085159,-0.036279,0.355730,0.063574,0.932424,0.142179,-0.005270,-0.069753,-31.566841,15.433231,7.150559,,,,,,
1466440916.47,2.796792,-0.063265,0.041308,-0.050789,1.917390,-0.034162,0.337333,0.063223,0.939260,0.154732,0.000757,-0.061071,-31.905869,15.398261,5.539817,,,,,,
1466440916.48,2.813411,-0.062898,0.041549,-0.041646,1.631648,0.008088,0.321685,0.062856,0.944758,0.199662,0.003718,-0.131739,-31.905869,15.398261,5.539817,,,,,,
1466440916.49,2.816603,-0.062283,0.042416,-0.082887,-0.892948,-0.103853,0.318680,0.062243,0.945816,1.946472,0.077452,-1.079407,-31.905869,15.398261,5.539817,,,,,,
1466440916.50,2.764212,-0.063467,0.040874,0.247043,-5.789617,0.119851,0.367745,0.063424,0.927761,-0.228768,-0.042306,-0.668362,-32.206669,15.342095,3.623678,,,,,,
1466440916.51,2.738745,-0.063493,0.040683,-0.102871,-1.390131,-0.002826,0.391250,0.063450,0.918095,0.198731,0.042217,0.692089,-32.206669,15.342095,3.623678,,,,,,
1466440916.52,2.722281,-0.063482,0.040202,0.105793,-2.186711,0.047085,0.406312,0.063439,0.911530,0.193771,-0.034676,-0.131867,-32.206669,15.342095,3.623678,,,,,,
1466440916.53,2.680224,-0.064236,0.038930,0.091894,-4.725569,0.097056,0.444256,0.064192,0.893597,0.434482,0.012666,-0.549298,-31.810762,15.388565,6.086709,,,,,,
1466440916.54,2.628840,-0.064944,0.037637,0.154135,-5.222462,0.077881,0.489544,0.064899,0.869560,0.521702,-0.013858,-0.083687,-31.810762,15.388565,6.086709,,,,,,
1466440916.55,2.569209,-0.065817,0.035650,0.166685,-6.182458,0.127557,0.540464,0.065769,0.838792,0.234514,0.022838,-0.087709,-31.810762,15.388565,6.086709,,,,,,
1466440916.56,2.502282,-0.066348,0.033673,0.169044,-6.847151,0.132792,0.595329,0.066299,0.800742,0.414284,0.017761,-0.024405,-30.285595,15.531301,11.284595,,,,,,
1466440916.57,2.428382,-0.067045,0.031310,0.202233,-7.538422,0.144612,0.652795,0.066994,0.754566,0.300284,0.001075,0.048870,-30.285595,15.531301,11.284595,,,,,,
1466440916.58,2.352339,-0.067547,0.028763,0.217158,-7.515084,0.149803,0.708209,0.067495,0.702769,0.087110,-0.004324,0.319249,-30.285595,15.531301,11.284595,,,,,,
1466440916.59,2.283225,-0.067868,0.026614,0.152325,-6.616693,0.117493,0.755034,0.067815,0.652169,-0.106215,-0.001653,0.367622,-28.367737,15.659344,15.356990,,,,,,
1466440916.60,2.224281,-0.067728,0.024940,0.131116,-5.696105,0.113827,0.792150,0.067676,0.606563,-0.180135,0.044781,0.408436,-28.367737,15.659344,15.356990,,,,,,
1466440916.61,2.171645,-0.067661,0.023256,0.118046,-5.090853,0.103631,0.822969,0.067610,0.564049,-0.237260,0.015215,0.361946,-28.367737,15.659344,15.356990,,,,,,
1466440916.62,2.128108,-0.067370,0.021939,0.093802,-4.059807,0.088625,0.846755,0.067319,0.527707,-0.314452,0.021732,0.392566,-23.486635,15.907686,21.934086,,,,,,
1466440916.63,2.096344,-0.066460,0.020617,0.050325,-2.881508,0.199346,0.863140,0.066411,0.500579,-0.192501,0.028407,0.335282,-23.486635,15.907686,21.934086,,,,,,
1466440916.64,2.052306,-0.065833,0.019394,0.063296,-5.361734,0.159562,0.884377,0.065785,0.462114,1.160041,-0.123570,-0.723833,-23.486635,15.907686,21.934086,,,,,,
1466440916.65,1.951363,-0.063351,0.017202,0.093026,-11.982500,0.350138,0.926592,0.063308,0.370701,0.299360,0.136444,-1.297993,-21.736511,15.998597,23.608250,,,,,,
1466440916.66,1.918363,-0.060688,0.015450,0.019075,1.999469,0.221925,0.938474,0.060651,0.339983,-3.171735,0.203112,4.222242,-21.736511,15.998597,23.608250,,,,,,
1466440916.67,2.004834,-0.059940,0.019464,-0.501766,8.144183,-0.130080,0.905646,0.059904,0.419783,0.409845,-0.101072,0.580492,-21.736511,15.998597,23.608250,,,,,,
1466440916.68,2.012365,-0.060744,0.020194,0.216464,-1.582262,-0.079007,0.902415,0.060707,0.426570,1.001882,-0.104408,-1.775142,-19.387419,16.079664,25.521616,,,,,,
1466440916.69,1.991198,-0.062422,0.018901,0.040114,-1.283778,-0.091700,0.911147,0.062381,0.407333,0.054551,-0.112369,-0.148223,-19.387419,16.079664,25.521616,,,,,,
1466440916.70,2.013112,-0.062869,0.020173,-0.074925,2.940103,-0.107661,0.901977,0.062827,0.427188,-0.088073,-0.005271,0.420468,-19.387419,16.079664,25.521616,,,,,,
1466440916.71,2.025758,-0.062940,0.020840,-0.050728,0.309747,0.002532,0.896499,0.062898,0.438558,0.372407,0.049254,-0.659322,-19.071245,16.080175,25.758419,,,,,,
1466440916.72,2.011578,-0.062588,0.020029,0.086159,-1.652715,0.080972,0.902648,0.062547,0.425811,0.331163,0.052718,-0.571487,-19.071245,16.080175,25.758419,,,,,,
1466440916.73,2.001187,-0.061855,0.019627,-0.034080,-0.735272,0.080420,0.907065,0.061816,0.416428,-0.071966,0.017270,0.136794,-19.071245,16.080175,25.758419,,,,,,
1466440916.74,1.997773,-0.061150,0.019615,-0.007985,-0.330691,0.060878,0.908521,0.061112,0.413347,-0.116651,-0.012162,0.283659,-19.323029,16.061398,25.581881,,,,,,
1466440916.75,1.993134,-0.060837,0.019287,0.013182,-0.475034,0.035193,0.910446,0.060799,0.409136,-0.132995,-0.032784,0.237166,-19.323029,16.061398,25.581881,,,,,,
1466440916.76,1.991779,-0.060702,0.019235,-0.001047,0.029391,0.009662,0.911007,0.060665,0.407905,-0.207943,0.004628,0.394219,-19.323029,16.061398,25.581881,,,,,,
1466440916.77,1.995956,-0.060705,0.019260,-0.007899,0.493429,-0.002835,0.909295,0.060668,0.411707,-0.173135,-0.004118,0.307226,-19.099752,16.079035,25.737999,,,,,,
1466440916.78,2.000057,-0.060595,0.019339,-0.007044,0.350044,0.012967,0.907605,0.060558,0.415435,-0.039609,0.023030,0.086457,-19.099752,16.079035,25.737999,,,,,,
1466440916.79,2.002276,-0.060414,0.019212,0.000190,0.190744,0.023553,0.906691,0.060377,0.417452,0.057298,0.010271,-0.090761,-19.099752,16.079035,25.737999,,,,,,
1466440916.80,2.002962,-0.060101,0.019296,-0.023442,0.025114,0.024569,0.906421,0.060065,0.418082,0.095120,-0.007483,-0.154548,-19.327671,16.084299,25.563980,,,,,,
1466440916.81,2.002622,-0.059803,0.019359,-0.017124,-0.033285,0.023877,0.906579,0.059768,0.417782,0.030585,-0.006103,-0.082882,-19.327671,16.084299,25.563980,,,,,,
1466440916.82,2.003853,-0.059548,0.019481,-0.022145,0.198208,0.016033,0.906079,0.059513,0.418903,-0.038967,-0.006992,0.066601,-19.327671,16.084299,25.563980,,,,,,
1466440916.83,2.007914,-0.059334,0.019617,-0.020758,0.451984,0.012314,0.904381,0.059299,0.422585,-0.024483,0.006161,0.039695,-19.328379,16.083876,25.563711,,,,,,
1466440916.84,2.011792,-0.059107,0.019788,-0.025158,0.339435,0.013015,0.902748,0.059073,0.426095,0.058098,-0.000449,-0.099282,-19.328379,16.083876,25.563711,,,,,,
1466440916.85,2.013778,-0.058863,0.019930,-0.023257,0.165284,0.019432,0.901913,0.058829,0.427892,0.065448,0.008401,-0.131277,-19.328379,16.083876,25.563711,,,,,,
1466440916.86,2.016094,-0.058617,0.020016,-0.017802,0.268279,0.017727,0.900932,0.058583,0.429987,0.024849,0.002864,-0.043604,-19.601742,16.072483,25.361927,,,,,,
1466440916.87,2.019382,-0.058366,0.020176,-0.026236,0.331997,0.015190,0.899527,0.058333,0.432953,0.030069,-0.001753,-0.042343,-19.601742,16.072483,25.361927,,,,,,
1466440916.88,2.022233,-0.058136,0.020321,-0.020982,0.272540,0.013439,0.898301,0.058103,0.435522,0.037581,-0.001844,-0.070501,-19.601742,16.072483,25.361927,,,,,,
1466440916.89,2.025147,-0.057965,0.020453,-0.021999,0.304406,0.008980,0.897037,0.057932,0.438142,0.029614,-0.006968,-0.041169,-19.737720,16.068188,25.258986,,,,,,
1466440916.90,2.028801,-0.057822,0.020610,-0.020829,0.382987,0.005295,0.895438,0.057789,0.441420,0.015741,-0.002232,-0.023406,-19.737720,16.068188,25.258986,,,,,,
1466440916.91,2.032690,-0.057665,0.020795,-0.025092,0.382984,0.007420,0.893722,0.057633,0.444903,0.026734,-0.004502,-0.044879,-19.737720,16.068188,25.258986,,,,,,
1466440916.92,2.036325,-0.057462,0.020986,-0.025132,0.356430,0.010780,0.892110,0.057430,0.448154,0.029399,0.003773,-0.058109,-20.065571,16.053602,25.008705,,,,,,
1466440916.93,2.040006,-0.057246,0.021165,-0.026174,0.374481,0.010666,0.890465,0.057214,0.451441,0.031181,0.000220,-0.054316,-20.065571,16.053602,25.008705,,,,,,
1466440916.94,2.043842,-0.057044,0.021362,-0.024033,0.379795,0.008506,0.888737,0.057013,0.454859,0.048779,0.001397,-0.075236,-20.065571,16.053602,25.008705,,,,,,
1466440916.95,2.037641,-0.056566,0.021014,-0.024098,0.316048,0.002520,0.891565,0.056536,0.449351,0.078482,-0.003176,-0.107279,-20.244139,16.044889,24.870003,,,,,,
1466440916.96,2.040314,-0.056489,0.021210,-0.018842,0.252355,-0.003462,0.890364,0.056459,0.451734,0.089662,-0.007371,-0.126219,-20.244139,16.044889,24.870003,,,,,,
1466440916.97,2.042452,-0.056467,0.021417,-0.018899,0.198218,-0.008444,0.889398,0.056437,0.453637,0.092124,-0.005504,-0.131738,-20.244139,16.044889,24.870003,,,,,,
1466440916.98,2.032314,-0.056024,0.020940,-0.014723,0.127013,-0.010120,0.893973,0.055995,0.444609,0.088922,-0.005030,-0.130965,-20.295259,16.042288,24.829983,,,,,,
1466440916.99,2.032936,-0.056050,0.021118,-0.014832,0.039945,-0.009574,0.893695,0.056020,0.445164,0.084775,-0.001287,-0.137639,-20.295259,16.042288,24.829983,,,,,,
1466440917.00,2.024593,-0.056326,0.020789,-0.010643,-0.014263,-0.007101,0.897364,0.056297,0.437686,0.053762,0.004067,-0.101504,-20.295259,16.042288,24.829983,,,,,,
1466440917.01,2.024643,-0.056321,0.020905,-0.010614,0.014397,-0.004088,0.897342,0.056291,0.437731,0.029568,0.002547,-0.060991,-20.050354,16.054478,25.020344,,,,,,
1466440917.02,2.020476,-0.056471,0.020786,-0.011680,0.010128,-0.005126,0.899151,0.056441,0.433984,0.024281,0.002076,-0.058343,-20.050354,16.054478,25.020344,,,,,,
1466440917.03,2.020220,-0.056422,0.020952,-0.018134,-0.036597,-0.001646,0.899264,0.056392,0.433755,0.022214,0.004139,-0.063074,-20.050354,16.054478,25.020344,,,,,,
1466440917.04,2.018343,-0.056651,0.021043,-0.019168,-0.014306,-0.002852,0.900065,0.056621,0.432061,-0.002772,0.003514,-0.028603,-19.735058,16.057138,25.268089,,,,,,
1466440917.05,2.018587,-0.056587,0.021224,-0.019108,0.034534,-0.002094,0.899963,0.056557,0.432282,-0.016876,0.004417,0.009308,-19.735058,16.057138,25.268089,,,,,,
1466440917.06,2.020410,-0.056927,0.021513,-0.022294,0.040915,-0.002138,0.899156,0.056897,0.433913,-0.016039,0.006351,0.016511,-19.735058,16.057138,25.268089,,,,,,
1466440917.07,2.020805,-0.056838,0.021736,-0.024423,0.041978,-0.002147,0.898989,0.056807,0.434271,-0.025164,0.008439,0.033243,-19.697639,16.047514,25.303381,,,,,,
1466440917.08,2.026312,-0.057507,0.022219,-0.023304,0.091898,0.001797,0.896550,0.057475,0.439198,-0.043507,0.012548,0.067089,-19.697639,16.047514,25.303381,,,,,,
1466440917.09,2.027598,-0.057366,0.022410,-0.024323,0.133300,0.004729,0.895992,0.057335,0.440354,-0.041057,0.016487,0.070541,-19.697639,16.047514,25.303381,,,,,,
1466440917.10,2.030762,-0.057916,0.022758,-0.028662,0.074907,0.008283,0.894565,0.057883,0.443173,-0.016956,0.013436,0.034595,-19.942717,16.005110,25.137722,,,,,,
1466440917.11,2.031366,-0.057725,0.022906,-0.020160,0.065341,0.010480,0.894308,0.057693,0.443718,-0.032491,0.013398,0.051689,-19.942717,16.005110,25.137722,,,,,,
1466440917.12,2.037651,-0.058002,0.023335,-0.023265,0.141813,0.013189,0.891486,0.057970,0.449323,-0.040351,0.009352,0.084307,-19.942717,16.005110,25.137722,,,,,,
1466440917.13,2.039111,-0.057754,0.023500,-0.024342,0.134378,0.014299,0.890842,0.057722,0.450631,-0.023334,0.002551,0.059013,-19.942717,16.005110,25.137722,,,,,,
1466440917.14,2.041569,-0.057436,0.023732,-0.023366,0.065367,0.015797,0.889748,0.057405,0.452827,-0.007607,-0.000825,0.031212,-20.242638,15.968323,24.920452,,,,,,
1466440917.15,2.042239,-0.057187,0.023838,-0.019097,0.078098,0.018915,0.889457,0.057156,0.453430,-0.021125,-0.000928,0.066559,-20.242638,15.968323,24.920452,,,,,,
1466440917.16,2.043515,-0.056966,0.023933,-0.017946,0.140755,0.014265,0.888890,0.056935,0.454570,-0.019093,-0.024312,0.098577,-20.314402,15.961611,24.866299,,,,,,
1466440917.17,2.044571,-0.056873,0.024087,-0.021190,0.077090,-0.000241,0.888414,0.056843,0.455510,0.010756,-0.055149,0.058802,-20.314402,15.961611,24.866299,,,,,,
1466440917.18,2.050674,-0.056025,0.024427,0.009736,0.102615,-0.009948,0.885659,0.055995,0.460947,-0.009240,-0.016872,0.119726,-20.314402,15.961611,24.866299,,,,,,
1466440917.19,2.052706,-0.056213,0.024455,-0.002864,0.227940,-0.020327,0.884712,0.056183,0.462740,-0.027122,0.000869,0.096113,-20.369316,15.955924,24.824989,,,,,,
1466440917.20,2.053797,-0.056299,0.024655,-0.006294,0.050603,-0.012832,0.884202,0.056270,0.463703,0.029098,-0.008403,0.013836,-20.369316,15.955924,24.824989,,,,,,
1466440917.21,2.053813,-0.056447,0.024540,0.016003,0.009167,-0.007227,0.884187,0.056417,0.463714,0.002593,0.015879,0.016969,-20.369316,15.955924,24.824989,,,,,,
1466440917.22,2.055410,-0.056858,0.024651,-0.006276,0.078192,-0.004490,0.883425,0.056828,0.465114,0.001905,0.009045,0.021443,-20.594589,15.944638,24.645729,,,,,,
1466440917.23,2.055531,-0.056905,0.024603,0.008500,-0.022693,-0.001714,0.883367,0.056875,0.465219,0.032985,0.000712,-0.034998,-20.594589,15.944638,24.645729,,,,,,
1466440917.24,2.054425,-0.056938,0.024555,0.007305,-0.126749,-0.001062,0.883879,0.056907,0.464241,0.047441,-0.000571,-0.067635,-20.594589,15.944638,24.645729,,,,,,
1466440917.25,2.053411,-0.057012,0.024451,0.012679,-0.086403,-0.001310,0.884345,0.056981,0.463343,0.028573,-0.001042,-0.042506,-20.643728,15.939540,24.607889,,,,,,
1466440917.26,2.048804,-0.056474,0.024246,0.001985,-0.134182,-0.007406,0.886498,0.056444,0.459278,0.046211,-0.012560,-0.058643,-20.643728,15.939540,24.607889,,,,,,
1466440917.27,2.046886,-0.056561,0.024198,0.011474,-0.203212,-0.003770,0.887373,0.056531,0.457574,0.039690,-0.004208,-0.077264,-20.643728,15.939540,24.607889,,,,,,
1466440917.28,2.045113,-0.056648,0.024185,0.001951,-0.160727,-0.007239,0.888178,0.056617,0.455998,0.017919,0.000161,-0.039616,-20.643728,15.939540,24.607889,,,,,,
1466440917.29,2.043877,-0.056692,0.024179,0.002002,-0.115078,-0.004332,0.888739,0.056662,0.454898,0.000452,0.005579,-0.022861,-20.422949,15.954595,24.781740,,,,,,
1466440917.30,2.041393,-0.056351,0.024147,-0.003349,-0.135259,-0.003146,0.889883,0.056321,0.452699,0.009913,-0.007874,-0.022065,-20.422949,15.954595,24.781740,,,,,,
1466440917.31,2.040302,-0.056368,0.024175,-0.000103,-0.090671,-0.001293,0.890375,0.056338,0.451727,-0.006480,0.006528,0.001138,-20.350048,15.954275,24.841846,,,,,,
1466440917.32,2.040040,-0.056368,0.024211,-0.006383,-0.007842,-0.003948,0.890494,0.056339,0.451494,-0.018897,0.005017,0.020415,-20.350048,15.954275,24.841846,,,,,,
1466440917.33,2.039906,-0.056374,0.024346,-0.009589,-0.023755,-0.008109,0.890554,0.056344,0.451374,0.005838,-0.029458,0.012417,-20.350048,15.954275,24.841846,,,,,,
1466440917.34,2.039542,-0.056906,0.024362,0.005324,-0.022695,-0.010231,0.890691,0.056875,0.451037,0.007487,0.010050,0.002577,-20.247677,15.951224,24.927307,,,,,,
1466440917.35,2.039538,-0.056977,0.024452,-0.008494,-0.003576,-0.010364,0.890690,0.056946,0.451031,0.008847,0.003586,-0.012768,-20.247677,15.951224,24.927307,,,,,,
1466440917.36,2.038827,-0.057025,0.024530,-0.000093,-0.093839,-0.007661,0.891008,0.056994,0.450397,0.029204,-0.017565,-0.040576,-20.247677,15.951224,24.927307,,,,,,
1466440917.37,2.037634,-0.057146,0.024539,0.003076,-0.120374,-0.011749,0.891538,0.057115,0.449330,0.034091,-0.012010,-0.027242,-20.247707,15.943807,24.932026,,,,,,
1466440917.38,2.035475,-0.056961,0.024553,0.000974,-0.108682,-0.018210,0.892516,0.056931,0.447409,0.022218,-0.007279,-0.014807,-20.247707,15.943807,24.932026,,,,,,
1466440917.39,2.034056,-0.057143,0.024592,0.003044,-0.156464,-0.017909,0.893140,0.057112,0.446137,0.018511,-0.001341,-0.022050,-20.247707,15.943807,24.932026,,,,,,
1466440917.40,2.032179,-0.057291,0.024621,0.005111,-0.193687,-0.014480,0.893969,0.057260,0.444456,0.015867,0.005408,-0.020857,-20.113892,15.938263,25.043634,,,,,,
1466440917.41,2.030030,-0.057414,0.024625,0.004005,-0.221302,-0.011115,0.894916,0.057382,0.442531,0.010587,0.006491,-0.009120,-20.113892,15.938263,25.043634,,,,,,
1466440917.42,2.027902,-0.057353,0.024646,0.005047,-0.239352,-0.011000,0.895858,0.057322,0.440627,0.005219,-0.003748,0.011064,-20.113892,15.938263,25.043634,,,,,,
1466440917.44,2.023551,-0.057624,0.024672,0.007229,-0.203243,-0.014417,0.897753,0.057593,0.436718,-0.002123,-0.001410,0.068988,-20.016939,15.935402,25.123013,,,,,,
1466440917.43,2.025615,-0.057468,0.024664,0.004009,-0.220236,-0.012185,0.896858,0.057436,0.438574,-0.004371,-0.007800,0.040628,-20.016939,15.935402,25.123013,,,,,,
1466440917.45,2.022862,-0.058528,0.024775,0.004027,-0.211725,-0.015434,0.898006,0.058495,0.436077,0.000263,0.018852,0.037190,-20.016939,15.935402,25.123013,,,,,,
1466440917.46,2.020424,-0.058644,0.024751,0.008221,-0.249976,-0.006675,0.899061,0.058610,0.433883,-0.006422,0.013777,0.042054,-19.853148,15.923098,25.260405,,,,,,
1466440917.47,2.017885,-0.058697,0.024721,0.002882,-0.255294,-0.002389,0.900157,0.058663,0.431597,-0.011531,0.008384,0.045987,-19.853148,15.923098,25.260405,,,,,,
1466440917.48,2.015306,-0.058701,0.024656,0.007126,-0.258496,0.002958,0.901267,0.058668,0.429275,0.000986,-0.007993,0.062470,-19.853148,15.923098,25.260405,,,,,,
1466440917.49,2.014538,-0.058543,0.024691,0.007101,-0.274418,0.005187,0.901605,0.058509,0.428586,0.001929,-0.002433,0.055728,-19.729309,15.923637,25.356907,,,,,,
1466440917.50,2.011842,-0.058596,0.024620,0.008187,-0.273330,-0.004399,0.902754,0.058562,0.426153,0.002947,0.000336,0.046168,-19.729309,15.923637,25.356907,,,,,,
1466440917.51,2.008987,-0.058677,0.024550,0.010300,-0.288194,-0.005368,0.903962,0.058643,0.423572,0.004073,0.007336,0.046094,-19.729309,15.923637,25.356907,,,,,,
1466440917.52,2.005930,-0.058749,0.024470,0.009202,-0.309438,-0.002043,0.905249,0.058715,0.420804,0.004144,0.006410,0.033160,-19.501724,15.929145,25.528919,,,,,,
1466440917.53,2.003189,-0.058861,0.024405,0.011295,-0.334925,0.000248,0.906393,0.058827,0.418319,0.007517,0.002467,0.019960,-19.501724,15.929145,25.528919,,,,,,
1466440917.54,1.999609,-0.058881,0.024290,0.011251,-0.364664,0.003628,0.907884,0.058847,0.415071,0.016951,0.004538,0.021743,-19.501724,15.929145,25.528919,,,,,,
1466440917.56,1.991708,-0.058909,0.024003,0.013316,-0.414573,0.005007,0.911134,0.058875,0.407884,0.019866,0.004755,-0.005678,-19.355293,15.932424,25.638081,,,,,,
1466440917.55,1.995773,-0.058892,0.024148,0.014414,-0.388029,0.004842,0.909469,0.058858,0.411585,0.017869,-0.001210,0.006354,-19.355293,15.932424,25.638081,,,,,,
1466440917.57,1.986844,-0.059158,0.023823,0.015400,-0.449619,0.006293,0.913093,0.059123,0.403441,0.016731,0.007268,-0.002272,-19.355293,15.932424,25.638081,,,,,,
1466440917.58,1.982231,-0.059140,0.023665,0.013249,-0.463427,0.008506,0.914946,0.059106,0.399226,0.008593,0.007133,-0.003840,-18.935141,15.948621,25.939978,,,,,,
1466440917.59,1.977549,-0.059104,0.023493,0.014304,-0.467681,0.010663,0.916807,0.059070,0.394938,0.005938,0.007459,-0.002070,-18.935141,15.948621,25.939978,,,,,,
1466440917.60,1.972903,-0.059039,0.023321,0.012179,-0.459194,0.013801,0.918635,0.059005,0.390676,0.000249,0.003236,0.003611,-18.935141,15.948621,25.939978,,,,,,
1466440917.62,1.964362,-0.059010,0.023024,0.009041,-0.413537,0.014575,0.921940,0.058976,0.382816,-0.004551,0.002548,0.005200,-18.690853,15.959335,26.110003,,,,,,
1466440917.61,1.968587,-0.059114,0.023183,0.007947,-0.436896,0.014721,0.920309,0.059080,0.386706,-0.005850,0.003756,0.002866,-18.690853,15.959335,26.110003,,,,,,
1466440917.63,1.960394,-0.058879,0.022906,0.004805,-0.390184,0.017618,0.923459,0.058845,0.379158,-0.007794,0.004235,0.010216,-18.690853,15.959335,26.110003,,,,,,
1466440917.64,1.956695,-0.058731,0.022765,0.006967,-0.360461,0.019563,0.924863,0.058697,0.375743,-0.007764,-0.001171,0.021214,-18.234249,15.979243,26.418865,,,,,,
1466440917.65,1.953649,-0.058509,0.022654,0.004879,-0.325421,0.020405,0.926015,0.058475,0.372929,-0.001821,-0.001438,0.009059,-18.234249,15.979243,26.418865,,,,,,
1466440917.66,1.950510,-0.058353,0.022539,0.003835,-0.312673,0.018195,0.927190,0.058320,0.370023,0.009440,-0.003663,-0.011945,-18.234249,15.979243,26.418865,,,,,,
1466440917.67,1.947233,-0.058195,0.022441,0.003812,-0.330724,0.018309,0.928406,0.058162,0.366987,0.006805,-0.003093,-0.004194,-18.049049,15.989666,26.539461,,,,,,
1466440917.68,1.943978,-0.058034,0.022336,0.004888,-0.320110,0.019308,0.929605,0.058001,0.363966,0.002631,-0.002093,0.012667,-18.049049,15.989666,26.539461,,,,,,
1466440917.69,1.941627,-0.057633,0.022274,0.003877,-0.283993,0.014823,0.930479,0.057601,0.361788,0.001787,-0.006179,0.017988,-18.049049,15.989666,26.539461,,,,,,
1466440917.70,1.938899,-0.057504,0.022199,0.002828,-0.271251,0.014742,0.931470,0.057472,0.359251,0.006610,-0.003547,0.003557,-17.714027,16.007557,26.753542,,,,,,
1466440917.71,1.936160,-0.057395,0.022115,0.003893,-0.274431,0.012634,0.932456,0.057363,0.356701,0.012612,-0.004598,-0.007015,-17.714027,16.007557,26.753542,,,,,,
1466440917.72,1.933348,-0.057281,0.022058,0.000692,-0.281859,0.011613,0.933461,0.057249,0.354080,0.009486,-0.002867,-0.002212,-17.563278,16.014139,26.848822,,,,,,
1466440917.73,1.930906,-0.057221,0.022003,0.002832,-0.273364,0.011562,0.934326,0.057190,0.351800,0.003189,0.001526,0.011740,-17.563278,16.014139,26.848822,,,,,,
1466440917.74,1.928833,-0.057181,0.021948,0.005004,-0.239384,0.011351,0.935056,0.057150,0.349863,0.000323,0.001551,0.013464,-17.563278,16.014139,26.848822,,,,,,
1466440917.75,1.926398,-0.056940,0.021866,0.002915,-0.210710,0.009040,0.935918,0.056910,0.347590,0.005992,-0.004145,-0.004695,-17.418907,16.018827,26.939922,,,,,,
1466440917.76,1.924073,-0.056709,0.021830,-0.000286,-0.216019,0.009071,0.936736,0.056679,0.345417,0.004670,-0.004097,-0.002415,-17.418907,16.018827,26.939922,,,,,,
1466440917.77,1.922079,-0.056439,0.021762,0.004006,-0.190535,0.007852,0.937437,0.056409,0.343555,0.004030,-0.005430,0.002698,-17.418907,16.018827,26.939922,,,,,,
1466440917.78,1.920207,-0.056231,0.021721,-0.000220,-0.171409,0.003470,0.938089,0.056201,0.341803,0.006567,-0.004733,-0.000708,-17.418907,16.018827,26.939922,,,,,,
1466440917.79,1.918369,-0.056250,0.021659,0.005101,-0.173536,0.003489,0.938715,0.056220,0.340078,0.005316,0.001534,-0.000310,-17.167723,16.031683,27.093081,,,,,,
1466440917.80,1.916750,-0.056260,0.021609,0.004063,-0.152300,0.003355,0.939264,0.056230,0.338557,0.003973,0.000944,0.000768,-17.167723,16.031683,27.093081,,,,,,
1466440917.81,1.915335,-0.056371,0.021562,0.005138,-0.142747,0.004360,0.939736,0.056341,0.337226,0.001350,0.004542,0.002129,-17.167723,16.031683,27.093081,,,,,,
1466440917.82,1.914008,-0.056395,0.021499,0.004088,-0.127887,0.006394,0.940182,0.056365,0.335978,0.002766,0.002290,0.001943,-16.982807,16.038420,27.205402,,,,,,
1466440917.84,1.911097,-0.056278,0.021360,0.001964,-0.121521,0.007417,0.941162,0.056248,0.333242,0.006424,-0.001316,-0.007116,-16.982807,16.038420,27.205402,,,,,,
1466440917.83,1.912571,-0.056385,0.021424,0.005170,-0.114085,0.006309,0.940664,0.056355,0.334627,0.007426,0.001506,-0.005984,-16.982807,16.038420,27.205402,,,,,,
1466440917.85,1.909889,-0.056262,0.021296,0.003031,-0.116218,0.009513,0.941565,0.056233,0.332105,0.002939,0.002208,0.001482,-16.907246,16.042635,27.249947,,,,,,
1466440917.86,1.909033,-0.056194,0.021252,0.002004,-0.089666,0.007217,0.941852,0.056164,0.331301,0.000744,0.000034,0.004896,-16.907246,16.042635,27.249947,,,,,,
1466440917.87,1.908126,-0.056027,0.021202,0.000961,-0.070557,0.008161,0.942161,0.055998,0.330449,0.006951,-0.003019,-0.003072,-16.831738,16.047485,27.293798,,,,,,
1466440917.88,1.907229,-0.055791,0.021156,0.000966,-0.068432,0.007083,0.942470,0.055762,0.329608,0.006566,-0.005805,-0.005404,-16.831738,16.047485,27.293798,,,,,,
1466440917.89,1.906640,-0.055562,0.021132,-0.000076,-0.050381,0.006970,0.942676,0.055534,0.329057,0.007352,-0.005577,0.001448,-16.831738,16.047485,27.293798,,,,,,
1466440917.90,1.906275,-0.055435,0.021125,0.001026,-0.027010,0.002567,0.942802,0.055406,0.328716,0.003334,-0.003435,-0.000316,-16.731752,16.057367,27.349405,,,,,,
1466440917.91,1.906025,-0.055295,0.021133,-0.003204,-0.005770,0.001365,0.942892,0.055267,0.328482,0.007334,-0.004211,-0.003073,-16.731752,16.057367,27.349405,,,,,,
1466440917.92,1.905702,-0.055137,0.021156,-0.004272,-0.007894,0.001378,0.943006,0.055109,0.328180,0.007739,-0.004999,-0.007502,-16.731752,16.057367,27.349405,,,,,,
1466440917.93,1.905545,-0.055041,0.021180,-0.004264,-0.003645,0.000287,0.943063,0.055013,0.328034,0.006950,-0.002920,-0.001740,-16.731752,16.057367,27.349405,,,,,,
1466440917.94,1.905575,-0.054967,0.021209,-0.004244,0.011223,-0.000870,0.943057,0.054940,0.328064,0.009473,-0.002114,0.001923,-16.694061,16.059391,27.371243,,,,,,
1466440917.95,1.905405,-0.054826,0.021239,-0.004232,0.017598,-0.003038,0.943120,0.054798,0.327907,0.014858,-0.005573,-0.009807,-16.694061,16.059391,27.371243,,,,,,
1466440917.96,1.904959,-0.054752,0.021267,-0.003185,-0.000450,-0.005053,0.943270,0.054724,0.327487,0.014235,-0.003806,-0.016574,-16.694061,16.059391,27.371243,,,,,,
1466440917.97,1.904435,-0.054738,0.021258,0.000009,-0.002576,-0.006100,0.943442,0.054710,0.326993,0.013925,-0.002388,-0.016766,-16.687197,16.059015,27.375648,,,,,,
1466440917.98,1.903814,-0.054790,0.021237,0.002129,-0.010012,-0.006051,0.943642,0.054762,0.326406,0.011970,-0.000136,-0.020238,-16.687197,16.059015,27.375648,,,,,,
1466440917.99,1.903171,-0.054879,0.021230,-0.000021,-0.021703,-0.002787,0.943847,0.054851,0.325797,0.009552,0.002491,-0.016822,-16.687197,16.059015,27.375648,,,,,,
1466440918.00,1.902709,-0.054938,0.021225,-0.000017,-0.018519,-0.002807,0.943994,0.054910,0.325361,0.008490,0.001685,-0.008512,-16.626753,16.058920,27.412457,,,,,,
1466440918.01,1.902540,-0.054987,0.021231,-0.000000,-0.006836,-0.003945,0.944047,0.054959,0.325200,0.003554,0.001086,-0.001912,-16.626753,16.058920,27.412457,,,,,,
1466440918.02,1.902339,-0.055007,0.021249,-0.003193,-0.002594,-0.001846,0.944111,0.054979,0.325010,0.004985,0.000334,-0.006406,-16.626753,16.058920,27.412457,,,,,,
1466440918.03,1.902239,-0.055076,0.021280,-0.002119,0.001658,-0.004000,0.944140,0.055048,0.324914,0.004773,0.002157,-0.003152,-16.611105,16.058163,27.422386,,,,,,
1466440918.04,1.902261,-0.055088,0.021311,-0.004243,0.011206,-0.000869,0.944132,0.055060,0.324935,0.006033,0.000696,-0.001540,-16.611105,16.058163,27.422386,,,,,,
1466440918.05,1.902426,-0.055143,0.021342,-0.002100,0.021822,-0.000934,0.944076,0.055115,0.325090,0.005372,0.002854,0.000639,-16.611105,16.058163,27.422386,,,,,,
1466440918.06,1.902432,-0.055133,0.021350,-0.001028,0.026071,-0.002024,0.944074,0.055105,0.325096,0.007754,-0.000815,-0.008979,-16.610767,16.053629,27.425245,,,,,,
1466440918.07,1.902190,-0.055142,0.021360,-0.003175,0.013325,-0.000881,0.944153,0.055114,0.324866,0.011841,0.000824,-0.016105,-16.610767,16.053629,27.425245,,,,,,
1466440918.08,1.901792,-0.055144,0.021369,-0.003186,0.000586,-0.002930,0.944282,0.055116,0.324491,0.012795,-0.000230,-0.017255,-16.610767,16.053629,27.425245,,,,,,
1466440918.10,1.900689,-0.055155,0.021363,-0.001083,-0.020656,-0.002795,0.944638,0.055127,0.323449,0.014087,0.000278,-0.017114,-16.604340,16.053061,27.429470,,,,,,
1466440918.09,1.901306,-0.055133,0.021373,-0.001073,-0.012159,-0.002848,0.944440,0.055105,0.324032,0.014453,-0.000524,-0.014615,-16.604340,16.053061,27.429470,,,,,,
1466440918.11,1.899961,-0.055202,0.021366,-0.002178,-0.042958,-0.001592,0.944871,0.055174,0.322760,0.012709,0.001970,-0.013373,-16.604340,16.053061,27.429470,,,,,,
1466440918.12,1.899349,-0.055223,0.021359,-0.000052,-0.044025,-0.000519,0.945067,0.055195,0.322182,0.007386,0.001049,-0.005638,-16.544098,16.052483,27.466183,,,,,,
1466440918.13,1.898846,-0.055204,0.021369,-0.000057,-0.048272,-0.000492,0.945230,0.055176,0.321707,0.006537,-0.000611,0.000086,-16.544098,16.052483,27.466183,,,,,,
1466440918.14,1.898429,-0.055186,0.021371,-0.001119,-0.044027,0.000545,0.945365,0.055158,0.321313,0.007531,-0.000364,0.004798,-16.544098,16.052483,27.466183,,,,,,
1466440918.15,1.898198,-0.055172,0.021401,-0.002171,-0.037649,-0.001625,0.945440,0.055144,0.321095,0.005564,-0.000731,0.010646,-16.513508,16.052387,27.484642,,,,,,
1466440918.16,1.898150,-0.055155,0.021417,-0.000031,-0.027033,-0.000625,0.945457,0.055128,0.321049,0.006356,-0.000486,0.015499,-16.513508,16.052387,27.484642,,,,,,
1466440918.17,1.898314,-0.055146,0.021467,-0.002143,-0.015348,-0.001765,0.945404,0.055118,0.321205,0.003296,-0.000355,0.018837,-16.495323,16.051586,27.496025,,,,,,
1466440918.18,1.898525,-0.055130,0.021509,-0.003192,-0.005783,-0.003954,0.945338,0.055102,0.321404,0.004675,-0.001665,0.016792,-16.495323,16.051586,27.496025,,,,,,
1466440918.19,1.898776,-0.055170,0.021565,-0.002125,-0.002600,-0.002909,0.945255,0.055142,0.321641,0.003491,0.001621,0.016601,-16.495323,16.051586,27.496025,,,,,,
1466440918.20,1.899164,-0.055188,0.021609,-0.002113,0.009079,-0.001918,0.945129,0.055160,0.322008,0.002854,0.000810,0.018370,-16.511772,16.046482,27.489134,,,,,,
1466440918.21,1.899581,-0.055262,0.021660,-0.003167,0.017576,-0.001973,0.944991,0.055233,0.322401,0.003130,0.003803,0.015566,-16.511772,16.046482,27.489134,,,,,,
1466440918.22,1.900043,-0.055358,0.021710,-0.003168,0.018636,-0.000915,0.944837,0.055329,0.322835,0.003116,0.005218,0.015407,-16.511772,16.046482,27.489134,,,,,,
1466440918.23,1.900498,-0.055366,0.021757,-0.003162,0.022885,-0.000942,0.944689,0.055338,0.323265,0.006223,0.001730,0.014168,-16.511772,16.046482,27.489134,,,,,,
1466440918.24,1.900850,-0.055376,0.021784,-0.002100,0.022882,0.000124,0.944575,0.055348,0.323597,0.008092,0.001232,0.008313,-16.562771,16.039135,27.462729,,,,,,
1466440918.25,1.900966,-0.055367,0.021790,-0.001047,0.013325,0.000185,0.944538,0.055339,0.323706,0.011364,-0.000194,0.002176,-16.562771,16.039135,27.462729,,,,,,
1466440918.26,1.900901,-0.055395,0.021783,0.000003,0.001644,0.000259,0.944557,0.055367,0.323645,0.012123,0.002174,-0.002478,-16.562771,16.039135,27.462729,,,,,,
1466440918.27,1.900595,-0.055411,0.021770,-0.000014,-0.012161,0.000345,0.944656,0.055382,0.323355,0.013413,0.001579,-0.007651,-16.575745,16.038088,27.455507,,,,,,
1466440918.28,1.900098,-0.055446,0.021752,0.001023,-0.034460,0.000486,0.944814,0.055418,0.322885,0.012598,0.002581,-0.006845,-16.575745,16.038088,27.455507,,,,,,
1466440918.29,1.899556,-0.055473,0.021725,0.002071,-0.045085,0.002682,0.944988,0.055445,0.322373,0.008076,0.002645,-0.002381,-16.566147,16.038439,27.461096,,,,,,
1466440918.30,1.899077,-0.055472,0.021691,0.002070,-0.044027,0.003740,0.945142,0.055443,0.321920,0.008395,0.001945,0.001246,-16.566147,16.038439,27.461096,,,,,,
1466440918.31,1.898477,-0.055472,0.021654,0.000997,-0.049339,0.004837,0.945335,0.055443,0.321352,0.007286,0.002540,-0.004138,-16.566147,16.038439,27.461096,,,,,,
1466440918.32,1.897801,-0.055458,0.021637,-0.001142,-0.056771,0.004881,0.945553,0.055430,0.320714,0.007862,0.002233,-0.004323,-16.508448,16.041641,27.493956,,,,,,
1466440918.33,1.897156,-0.055415,0.021614,-0.000083,-0.057840,0.007017,0.945762,0.055387,0.320105,0.008477,0.001223,-0.000525,-16.508448,16.041641,27.493956,,,,,,
1466440918.34,1.896523,-0.055362,0.021605,-0.001145,-0.057837,0.005952,0.945967,0.055333,0.319507,0.007616,0.000560,0.000699,-16.508448,16.041641,27.493956,,,,,,
1466440918.35,1.895861,-0.055314,0.021566,0.002045,-0.061024,0.005975,0.946181,0.055286,0.318882,0.007738,0.000317,0.000134,-16.471121,16.043266,27.515385,,,,,,
1466440918.36,1.895252,-0.055265,0.021545,0.000984,-0.057838,0.005954,0.946377,0.055237,0.318306,0.005328,0.000778,0.000389,-16.471121,16.043266,27.515385,,,,,,
1466440918.37,1.894671,-0.055216,0.021531,-0.001140,-0.053590,0.005925,0.946565,0.055188,0.317757,0.006255,0.000903,0.001090,-16.471121,16.043266,27.515385,,,,,,
1466440918.38,1.894121,-0.055173,0.021503,-0.000071,-0.048285,0.006957,0.946742,0.055145,0.317237,0.007314,0.001328,0.000100,-16.399374,16.047234,27.555897,,,,,,
1466440918.39,1.893490,-0.055151,0.021482,0.000996,-0.048283,0.005894,0.946943,0.055123,0.316640,0.008273,0.002372,-0.005513,-16.399374,16.047234,27.555897,,,,,,
1466440918.40,1.892736,-0.055121,0.021439,0.000989,-0.052535,0.006985,0.947183,0.055093,0.315926,0.008963,0.001884,-0.009881,-16.399374,16.047234,27.555897,,,,,,
1466440918.41,1.891913,-0.055114,0.021398,0.000990,-0.055716,0.004876,0.947443,0.055086,0.315147,0.008505,0.002577,-0.012183,-16.365650,16.049212,27.574789,,,,,,
1466440918.42,1.891060,-0.055058,0.021357,0.000972,-0.060022,0.007032,0.947714,0.055030,0.314339,0.007684,0.000771,-0.012002,-16.365650,16.049212,27.574789,,,,,,
1466440918.43,1.890333,-0.055003,0.021336,-0.000080,-0.051525,0.005913,0.947945,0.054976,0.313652,0.007041,0.000841,-0.009361,-16.365650,16.049212,27.574789,,,,,,
1466440918.44,1.889590,-0.054887,0.021312,-0.001147,-0.051529,0.006977,0.948184,0.054860,0.312950,0.005048,-0.002415,-0.011253,-16.275749,16.054777,27.624712,,,,,,
1466440918.45,1.888915,-0.054807,0.021298,-0.001135,-0.045153,0.004808,0.948399,0.054779,0.312311,0.006755,-0.000824,-0.009378,-16.275749,16.054777,27.624712,,,,,,
1466440918.46,1.888297,-0.054675,0.021296,-0.003261,-0.044089,0.003735,0.948599,0.054648,0.311726,0.006952,-0.004401,-0.007954,-16.275749,16.054777,27.624712,,,,,,
1466440918.47,1.887777,-0.054599,0.021276,-0.001124,-0.036661,0.004755,0.948765,0.054572,0.311235,0.004818,-0.001502,-0.004075,-16.233435,16.057287,27.648142,,,,,,
1466440918.48,1.887348,-0.054505,0.021289,-0.004302,-0.027098,0.002564,0.948903,0.054478,0.310829,0.005854,-0.002766,-0.006217,-16.233435,16.057287,27.648142,,,,,,
1466440918.49,1.886896,-0.054446,0.021303,-0.002166,-0.024970,0.000424,0.949047,0.054419,0.310402,0.007496,-0.002386,-0.008567,-16.233435,16.057287,27.648142,,,,,,
1466440918.50,1.886587,-0.054413,0.021317,-0.003220,-0.015417,0.001427,0.949144,0.054386,0.310108,0.005583,-0.000385,-0.005649,-16.172094,16.059584,27.682734,,,,,,
1466440918.51,1.886320,-0.054409,0.021328,-0.001095,-0.018604,0.001449,0.949227,0.054382,0.309856,0.007316,0.001267,-0.003154,-16.172094,16.059584,27.682734,,,,,,
1466440918.52,1.886134,-0.054346,0.021351,-0.003216,-0.012233,0.001407,0.949288,0.054320,0.309679,0.005454,-0.001906,-0.000704,-16.172094,16.059584,27.682734,,,,,,
1466440918.53,1.886008,-0.054411,0.021363,-0.002150,-0.007992,0.003510,0.949324,0.054384,0.309559,0.003633,0.005537,-0.000508,-16.155670,16.059055,27.692627,,,,,,
1466440918.54,1.885876,-0.054386,0.021400,-0.005350,-0.012238,0.003534,0.949366,0.054359,0.309434,0.002187,0.000893,-0.000520,-16.155670,16.059055,27.692627,,,,,,
1466440918.55,1.885820,-0.054326,0.021425,-0.003213,-0.004809,0.004554,0.949386,0.054299,0.309382,0.003006,0.000358,0.001455,-16.155670,16.059055,27.692627,,,,,,
1466440918.56,1.885835,-0.054185,0.021457,-0.004274,-0.003744,0.003482,0.949389,0.054159,0.309398,0.008314,-0.004812,0.005436,-16.140884,16.056572,27.702688,,,,,,
1466440918.57,1.885862,-0.054056,0.021476,-0.003205,-0.001617,0.002406,0.949387,0.054030,0.309426,0.010879,-0.004622,0.006446,-16.140884,16.056572,27.702688,,,,,,
1466440918.58,1.885885,-0.053991,0.021508,-0.003199,-0.001608,-0.000788,0.949384,0.053965,0.309449,0.010303,-0.002375,0.005294,-16.140884,16.056572,27.702688,,,,,,
1466440918.59,1.885894,-0.054000,0.021530,-0.002135,-0.002670,-0.000780,0.949380,0.053974,0.309457,0.009497,0.000347,0.004859,-16.138103,16.056791,27.704182,,,,,,
1466440918.60,1.885781,-0.054045,0.021559,-0.002149,-0.015409,-0.001765,0.949413,0.054019,0.309350,0.006459,0.002729,0.002082,-16.138103,16.056791,27.704182,,,,,,
1466440918.61,1.885597,-0.054093,0.021567,-0.003231,-0.020732,0.003590,0.949467,0.054066,0.309174,0.005168,0.004726,0.002288,-16.138103,16.056791,27.704182,,,,,,
1466440918.62,1.885458,-0.054108,0.021568,-0.001103,-0.021795,0.003598,0.949510,0.054081,0.309041,0.003631,0.002956,0.006800,-16.131636,16.053686,27.709745,,,,,,
1466440918.63,1.885256,-0.054043,0.021562,0.001025,-0.022857,0.003607,0.949575,0.054016,0.308852,0.008524,-0.000824,0.004045,-16.131636,16.053686,27.709745,,,,,,
1466440918.64,1.884980,-0.053958,0.021572,-0.001108,-0.026042,0.003625,0.949665,0.053932,0.308590,0.009320,-0.002250,0.001972,-16.131636,16.053686,27.709745,,,,,,
1466440918.65,1.884877,-0.053896,0.021571,-0.000028,-0.017541,0.001444,0.949700,0.053870,0.308494,0.008033,-0.001929,0.009194,-16.131636,16.053686,27.709745,,,,,,
1466440918.66,1.884853,-0.053838,0.021591,-0.001088,-0.013293,0.001417,0.949710,0.053812,0.308472,0.007611,-0.001993,0.009796,-16.108696,16.054893,27.722389,,,,,,
1466440918.67,1.884888,-0.053835,0.021609,-0.001079,-0.007980,0.000319,0.949700,0.053809,0.308505,0.004814,0.000299,0.009870,-16.108696,16.054893,27.722389,,,,,,
1466440918.68,1.885112,-0.053891,0.021637,-0.001064,0.003701,0.000245,0.949628,0.053865,0.308717,0.001331,0.003676,0.013931,-16.108696,16.054893,27.722389,,,,,,
1466440918.69,1.885408,-0.053909,0.021650,0.000004,0.010066,0.002335,0.949535,0.053883,0.308998,0.004170,0.002987,0.013115,-16.108183,16.054138,27.723124,,,,,,
1466440918.70,1.885739,-0.053955,0.021672,-0.001053,0.014318,0.001243,0.949430,0.053929,0.309311,0.003191,0.004054,0.012924,-16.108183,16.054138,27.723124,,,,,,
1466440918.71,1.886201,-0.053915,0.021703,-0.002104,0.024938,0.001175,0.949290,0.053889,0.309750,0.005834,-0.000010,0.015506,-16.123877,16.052338,27.715044,,,,,,
1466440918.72,1.886660,-0.053878,0.021734,-0.003165,0.028125,0.001154,0.949149,0.053852,0.310187,0.005868,-0.000523,0.012399,-16.123877,16.052338,27.715044,,,,,,
1466440918.73,1.887044,-0.053783,0.021763,-0.002099,0.026008,-0.000960,0.949035,0.053757,0.310553,0.008805,-0.005082,0.010461,-16.123877,16.052338,27.715044,,,,,,
1466440918.74,1.887427,-0.053747,0.021801,-0.003160,0.027074,-0.002032,0.948918,0.053721,0.310917,0.011364,-0.002024,0.010189,-16.167690,16.049644,27.691069,,,,,,
1466440918.75,1.887846,-0.053749,0.021836,-0.001033,0.023891,-0.003074,0.948787,0.053724,0.311315,0.008641,-0.000943,0.013560,-16.167690,16.049644,27.691069,,,,,,
1466440918.76,1.888183,-0.053781,0.021856,-0.001035,0.021768,-0.003061,0.948681,0.053755,0.311633,0.008824,0.000810,0.008893,-16.167690,16.049644,27.691069,,,,,,
1466440918.77,1.888418,-0.053778,0.021875,0.000019,0.013274,-0.003006,0.948608,0.053752,0.311856,0.010621,-0.001109,0.008273,-16.189634,16.047586,27.679438,,,,,,
1466440918.78,1.888643,-0.053783,0.021894,-0.001049,0.011151,-0.002994,0.948537,0.053757,0.312070,0.010279,-0.000351,0.010196,-16.189634,16.047586,27.679438,,,,,,
1466440918.79,1.888743,-0.053798,0.021888,0.002141,0.007964,-0.002971,0.948505,0.053772,0.312164,0.009732,-0.000534,0.003738,-16.189634,16.047586,27.679438,,,,,,
1466440918.80,1.888572,-0.053818,0.021887,0.001057,-0.007963,-0.002872,0.948557,0.053792,0.312002,0.012319,-0.000310,-0.003820,-16.189634,16.047586,27.679438,,,,,,
1466440918.81,1.888165,-0.053801,0.021883,-0.000027,-0.021770,-0.001722,0.948685,0.053775,0.311616,0.013610,-0.001712,-0.007616,-16.215363,16.045643,27.665503,,,,,,
1466440918.82,1.887804,-0.053810,0.021884,-0.000032,-0.029197,-0.003804,0.948797,0.053784,0.311274,0.010203,-0.000912,-0.001917,-16.215363,16.045643,27.665503,,,,,,
1466440918.83,1.887644,-0.053805,0.021897,0.001042,-0.019644,-0.002798,0.948847,0.053779,0.311122,0.005224,-0.001472,0.006749,-16.215363,16.045643,27.665503,,,,,,
1466440918.84,1.887626,-0.053856,0.021911,-0.000008,-0.007963,-0.002873,0.948850,0.053830,0.311104,0.005816,0.001803,0.007103,-16.185089,16.045307,27.683416,,,,,,
1466440918.85,1.887505,-0.053890,0.021912,0.001051,-0.011152,-0.001787,0.948886,0.053864,0.310989,0.006482,0.000930,0.001328,-16.185089,16.045307,27.683416,,,,,,
1466440918.86,1.887283,-0.053919,0.021905,-0.000020,-0.016461,-0.001755,0.948953,0.053893,0.310778,0.006521,0.000840,-0.001192,-16.185089,16.045307,27.683416,,,,,,
1466440918.87,1.887160,-0.053967,0.021909,-0.000016,-0.011155,-0.000724,0.948989,0.053941,0.310660,0.004532,0.002334,0.001505,-16.182608,16.044264,27.685472,,,,,,
1466440918.88,1.887238,-0.053993,0.021901,-0.000002,0.001585,0.000260,0.948964,0.053966,0.310734,0.003032,0.002049,0.007183,-16.182608,16.044264,27.685472,,,,,,
1466440918.89,1.887333,-0.054005,0.021921,-0.002126,0.003713,-0.000820,0.948934,0.053979,0.310823,0.005534,0.001243,0.005613,-16.182608,16.044264,27.685472,,,,,,
1466440918.90,1.887383,-0.054007,0.021922,0.000004,0.004773,-0.000824,0.948918,0.053981,0.310871,0.007137,0.000386,0.002758,-16.179617,16.043219,27.687826,,,,,,
1466440918.91,1.887387,-0.054004,0.021924,0.001070,0.003714,-0.001881,0.948917,0.053978,0.310874,0.010601,-0.000389,0.001351,-16.179617,16.043219,27.687826,,,,,,
1466440918.92,1.887415,-0.054059,0.021914,0.000005,0.004773,-0.000824,0.948905,0.054033,0.310900,0.007805,0.003279,0.001325,-16.179617,16.043219,27.687826,,,,,,
1466440918.94,1.887503,-0.054115,0.021896,0.000002,0.005829,0.001297,0.948875,0.054089,0.310983,0.004357,0.003498,0.002860,-16.181105,16.043110,27.687019,,,,,,
1466440918.93,1.887444,-0.054068,0.021914,0.001062,0.000522,0.000268,0.948896,0.054042,0.310927,0.007769,0.001149,0.002992,-16.181105,16.043110,27.687019,,,,,,
1466440918.95,1.887516,-0.054121,0.021896,-0.001069,0.000521,0.001330,0.948871,0.054094,0.310995,0.006375,0.001524,0.001505,-16.181105,16.043110,27.687019,,,,,,
1466440918.96,1.887505,-0.054160,0.021870,0.003186,-0.000546,0.002405,0.948872,0.054133,0.310984,0.005183,0.001546,0.002310,-16.186348,16.043203,27.683899,,,,,,
1466440918.97,1.887572,-0.054174,0.021867,0.000001,0.006888,0.002355,0.948851,0.054148,0.311047,0.004152,0.002889,0.002887,-16.186348,16.043203,27.683899,,,,,,
1466440918.98,1.887641,-0.054165,0.021847,0.001065,0.009005,0.004471,0.948830,0.054138,0.311113,0.005028,0.002121,0.000029,-16.186348,16.043203,27.683899,,,,,,
1466440918.99,1.887706,-0.054167,0.021829,0.001070,0.013252,0.004444,0.948809,0.054140,0.311175,0.005369,0.002912,-0.002459,-16.188622,16.043755,27.682255,,,,,,
1466440919.00,1.887757,-0.054155,0.021825,-0.002126,0.010071,0.003396,0.948794,0.054129,0.311224,0.005079,0.001657,-0.002141,-16.188622,16.043755,27.682255,,,,,,
1466440919.01,1.887844,-0.054139,0.021821,-0.001067,0.009003,0.005533,0.948768,0.054113,0.311306,0.004693,0.002406,0.002293,-16.188622,16.043755,27.682255,,,,,,
1466440919.02,1.887944,-0.054098,0.021804,0.000002,0.013246,0.006572,0.948739,0.054071,0.311402,0.006324,0.001700,0.000366,-16.195457,16.045444,27.677273,,,,,,
1466440919.03,1.888012,-0.054051,0.021794,-0.002125,0.015370,0.006556,0.948720,0.054024,0.311467,0.005885,0.001487,-0.003789,-16.195457,16.045444,27.677273,,,,,,
1466440919.04,1.888079,-0.053966,0.021795,-0.003193,0.013247,0.006568,0.948704,0.053940,0.311532,0.005596,-0.000534,-0.001702,-16.195457,16.045444,27.677273,,,,,,
1466440919.05,1.888164,-0.053882,0.021788,-0.002128,0.013246,0.006569,0.948681,0.053856,0.311614,0.006977,-0.000573,-0.000075,-16.198675,16.046892,27.674551,,,,,,
1466440919.06,1.888212,-0.053803,0.021774,-0.001065,0.010063,0.005526,0.948671,0.053777,0.311660,0.008696,-0.000356,-0.000808,-16.198675,16.046892,27.674551,,,,,,
1466440919.07,1.888286,-0.053703,0.021771,-0.001066,0.011121,0.006584,0.948652,0.053677,0.311733,0.010500,-0.001248,0.000081,-16.198675,16.046892,27.674551,,,,,,
1466440919.08,1.888341,-0.053598,0.021773,-0.002129,0.012183,0.006577,0.948641,0.053573,0.311787,0.011458,-0.001754,-0.001514,-16.200867,16.049934,27.671503,,,,,,
1466440919.09,1.888350,-0.053447,0.021796,-0.006385,0.013249,0.005502,0.948645,0.053422,0.311798,0.012017,-0.004441,-0.002945,-16.200867,16.049934,27.671503,,,,,,
1466440919.10,1.888312,-0.053310,0.021802,-0.002138,0.001570,0.004515,0.948664,0.053284,0.311764,0.012517,-0.004212,-0.000347,-16.200867,16.049934,27.671503,,,,,,
1466440919.11,1.888099,-0.053157,0.021773,0.002108,-0.010110,0.003529,0.948738,0.053132,0.311564,0.014396,-0.006364,-0.002833,-16.198830,16.050900,27.672138,,,,,,
1466440919.12,1.887877,-0.053095,0.021767,-0.001083,-0.011165,0.001404,0.948811,0.053070,0.311355,0.012524,-0.002213,-0.003417,-16.198830,16.050900,27.672138,,,,,,
1466440919.13,1.887632,-0.053061,0.021748,0.003164,-0.021783,0.000410,0.948889,0.053037,0.311123,0.011286,-0.001523,-0.000179,-16.198830,16.050900,27.672138,,,,,,
1466440919.14,1.887441,-0.053015,0.021757,-0.000020,-0.017528,-0.001748,0.948950,0.052990,0.310943,0.011423,-0.003093,0.002839,-16.172894,16.055010,27.684919,,,,,,
1466440919.15,1.887170,-0.052990,0.021732,0.002099,-0.026024,-0.001692,0.949036,0.052965,0.310685,0.009368,-0.002535,0.002898,-16.172894,16.055010,27.684919,,,,,,
1466440919.16,1.886922,-0.052967,0.021717,0.002099,-0.027083,-0.002750,0.949114,0.052942,0.310450,0.009336,-0.002893,0.004033,-16.172894,16.055010,27.684919,,,,,,
1466440919.17,1.886605,-0.052947,0.021715,0.001038,-0.026018,-0.003822,0.949213,0.052922,0.310150,0.011587,-0.002996,0.000061,-16.158939,16.055973,27.692511,,,,,,
1466440919.18,1.886275,-0.052946,0.021722,0.001037,-0.028139,-0.004872,0.949316,0.052921,0.309837,0.012308,-0.002354,-0.000602,-16.158939,16.055973,27.692511,,,,,,
1466440919.19,1.885929,-0.052954,0.021746,-0.000032,-0.033445,-0.005904,0.949422,0.052929,0.309508,0.009150,-0.001965,0.000367,-16.158939,16.055973,27.692511,,,,,,
1466440919.20,1.885510,-0.053018,0.021744,0.001030,-0.035569,-0.005890,0.949549,0.052993,0.309110,0.009069,0.000230,0.000507,-16.124084,16.055771,27.712934,,,,,,
1466440919.21,1.885220,-0.053071,0.021757,0.002101,-0.032381,-0.006973,0.949636,0.053046,0.308833,0.007212,-0.000616,0.003911,-16.124084,16.055771,27.712934,,,,,,
1466440919.22,1.884961,-0.053159,0.021767,0.002097,-0.032387,-0.004845,0.949712,0.053134,0.308585,0.004665,0.002347,0.005364,-16.106241,16.054649,27.723959,,,,,,
1466440919.23,1.884751,-0.053255,0.021772,0.001040,-0.026015,-0.004886,0.949771,0.053230,0.308384,0.002698,0.002862,0.006145,-16.106241,16.054649,27.723959,,,,,,
1466440919.24,1.884541,-0.053333,0.021772,0.001042,-0.022832,-0.003842,0.949832,0.053308,0.308184,0.004422,0.002188,0.004026,-16.106241,16.054649,27.723959,,,,,,
1466440919.25,1.884305,-0.053432,0.021777,0.001051,-0.019641,-0.005991,0.949900,0.053407,0.307958,0.007696,0.002959,0.000468,-16.106241,16.054649,27.723959,,,,,,
1466440919.26,1.883978,-0.053516,0.021767,0.001042,-0.024953,-0.004893,0.949996,0.053490,0.307646,0.007859,0.002509,-0.001464,-16.086464,16.051584,27.737211,,,,,,
1466440919.27,1.883709,-0.053597,0.021759,0.002100,-0.029204,-0.003801,0.950075,0.053572,0.307389,0.006377,0.002657,0.002669,-16.086464,16.051584,27.737211,,,,,,
1466440919.28,1.883441,-0.053637,0.021743,0.004236,-0.021776,-0.002781,0.950155,0.053612,0.307134,0.005335,0.000282,0.000102,-16.086464,16.051584,27.737211,,,,,,
1466440919.29,1.883228,-0.053692,0.021710,0.001047,-0.019647,-0.003862,0.950218,0.053666,0.306930,0.004387,0.000427,0.002549,-16.072390,16.051031,27.745689,,,,,,
1466440919.30,1.882965,-0.053736,0.021669,0.005306,-0.019650,-0.003858,0.950296,0.053710,0.306680,0.007758,-0.000152,0.000281,-16.072390,16.051031,27.745689,,,,,,
1466440919.31,1.882709,-0.053835,0.021655,-0.000014,-0.018583,-0.004935,0.950369,0.053809,0.306435,0.006265,0.003213,-0.001214,-16.060299,16.051935,27.752167,,,,,,
1466440919.32,1.882475,-0.053886,0.021616,0.005303,-0.020715,-0.002787,0.950439,0.053860,0.306212,0.004792,0.000812,0.000093,-16.060299,16.051935,27.752167,,,,,,
1466440919.33,1.882305,-0.053952,0.021598,0.002117,-0.015401,-0.003888,0.950487,0.053926,0.306049,0.005003,0.001433,0.001446,-16.060299,16.051935,27.752167,,,,,,
1466440919.34,1.882142,-0.054021,0.021579,0.003181,-0.014343,-0.002830,0.950534,0.053994,0.305893,0.006742,0.002311,0.000061,-16.060299,16.051935,27.752167,,,,,,
1466440919.35,1.882036,-0.054064,0.021559,0.003180,-0.012225,-0.000714,0.950564,0.054038,0.305791,0.004453,0.001672,0.002573,-16.038300,16.053686,27.763874,,,,,,
1466440919.36,1.882032,-0.054087,0.021546,0.002128,-0.003727,-0.001833,0.950564,0.054061,0.305787,0.004606,0.000245,0.003966,-16.038300,16.053686,27.763874,,,,,,
1466440919.37,1.882075,-0.054089,0.021537,0.003199,-0.000539,-0.002916,0.950551,0.054063,0.305828,0.005535,-0.001603,0.004170,-16.038300,16.053686,27.763874,,,,,,
1466440919.38,1.882106,-0.054126,0.021526,0.002138,0.000526,-0.003988,0.950539,0.054100,0.305857,0.004280,-0.000297,0.004049,-16.033783,16.054663,27.765919,,,,,,
1466440919.39,1.882216,-0.054129,0.021533,0.001085,0.010083,-0.004049,0.950505,0.054103,0.305962,0.005916,-0.001567,0.003044,-16.033783,16.054663,27.765919,,,,,,
1466440919.40,1.882336,-0.054165,0.021536,0.001083,0.012201,-0.001934,0.950467,0.054139,0.306075,0.006122,0.000671,0.001130,-16.033783,16.054663,27.765919,,,,,,
1466440919.41,1.882401,-0.054202,0.021521,0.001078,0.013210,-0.003003,0.950445,0.054175,0.306136,0.007227,0.000421,-0.001601,-16.038298,16.054529,27.763388,,,,,,
1466440919.42,1.882505,-0.054282,0.021520,0.002137,0.008962,-0.002976,0.950409,0.054255,0.306233,0.006424,0.003209,0.001247,-16.038298,16.054529,27.763388,,,,,,
1466440919.43,1.882598,-0.054372,0.021502,0.001077,0.014268,-0.001946,0.950376,0.054345,0.306321,0.005450,0.003470,0.000335,-16.044502,16.054392,27.759884,,,,,,
1466440919.44,1.882704,-0.054416,0.021508,0.001073,0.012142,-0.000868,0.950341,0.054389,0.306421,0.006705,0.002542,0.000449,-16.044502,16.054392,27.759884,,,,,,
1466440919.45,1.882840,-0.054424,0.021515,-0.001060,0.011078,0.000200,0.950299,0.054398,0.306550,0.006549,0.000824,0.002944,-16.044502,16.054392,27.759884,,,,,,
1466440919.46,1.882948,-0.054421,0.021509,-0.001057,0.013202,0.000187,0.950266,0.054394,0.306653,0.007009,0.000172,0.001376,-16.060078,16.053078,27.751633,,,,,,
1466440919.47,1.883083,-0.054386,0.021506,0.001068,0.010015,0.000209,0.950226,0.054360,0.306781,0.007522,-0.001869,0.004208,-16.060078,16.053078,27.751633,,,,,,
1466440919.48,1.883248,-0.054385,0.021506,0.001079,0.015330,-0.001953,0.950176,0.054358,0.306938,0.008091,-0.000525,0.003258,-16.060078,16.053078,27.751633,,,,,,
1466440919.49,1.883391,-0.054369,0.021508,0.001079,0.012151,-0.004061,0.950133,0.054342,0.307075,0.008592,-0.002020,0.002099,-16.066200,16.053617,27.747780,,,,,,
1466440919.50,1.883515,-0.054356,0.021516,0.000014,0.015331,-0.001953,0.950096,0.054329,0.307192,0.010201,-0.000939,0.002287,-16.066200,16.053617,27.747780,,,,,,
1466440919.51,1.883621,-0.054391,0.021519,0.000010,0.010025,-0.002985,0.950061,0.054364,0.307292,0.008237,0.001056,0.002629,-16.066200,16.053617,27.747780,,,,,,
1466440919.52,1.883690,-0.054408,0.021532,0.000007,0.007901,-0.002971,0.950039,0.054381,0.307357,0.008381,-0.000151,0.001328,-16.081226,16.053190,27.739319,,,,,,
1466440919.53,1.883718,-0.054427,0.021542,-0.002126,0.006837,-0.001902,0.950029,0.054400,0.307384,0.008803,0.000303,0.000630,-16.081226,16.053190,27.739319,,,,,,
1466440919.55,1.883770,-0.054439,0.021575,-0.000000,0.003650,-0.001880,0.950013,0.054412,0.307433,0.011093,0.000687,0.001130,-16.081226,16.053190,27.739319,,,,,,
1466440919.54,1.883756,-0.054416,0.021565,0.000004,0.006836,-0.001900,0.950018,0.054389,0.307420,0.007852,-0.000617,-0.000154,-16.081226,16.053190,27.739319,,,,,,
1466440919.56,1.883832,-0.054457,0.021592,-0.000002,0.002588,-0.001873,0.949993,0.054430,0.307492,0.008808,0.000700,0.004017,-16.086313,16.051104,27.737577,,,,,,
1466440919.57,1.883864,-0.054444,0.021601,0.000001,0.002591,-0.002938,0.949984,0.054418,0.307522,0.008634,-0.001943,0.002781,-16.086313,16.051104,27.737577,,,,,,
1466440919.58,1.883835,-0.054462,0.021615,-0.000002,0.000467,-0.002924,0.949991,0.054435,0.307495,0.008627,-0.000358,0.000336,-16.089069,16.050253,27.736471,,,,,,
1466440919.59,1.883787,-0.054479,0.021625,-0.000007,-0.003780,-0.002898,0.950005,0.054452,0.307449,0.007590,0.000098,0.000123,-16.089069,16.050253,27.736471,,,,,,
1466440919.60,1.883738,-0.054528,0.021637,-0.000007,-0.003780,-0.002898,0.950018,0.054501,0.307401,0.006083,0.002003,0.000933,-16.089069,16.050253,27.736471,,,,,,
1466440919.61,1.883671,-0.054565,0.021630,-0.000010,-0.002725,-0.000776,0.950037,0.054537,0.307337,0.008444,0.001386,-0.000101,-16.087547,16.049271,27.737923,,,,,,
1466440919.62,1.883600,-0.054616,0.021637,0.001051,-0.005911,-0.000755,0.950056,0.054589,0.307269,0.008227,0.002861,0.000623,-16.087547,16.049271,27.737923,,,,,,
1466440919.63,1.883542,-0.054678,0.021637,-0.002140,-0.001665,0.000279,0.950070,0.054651,0.307213,0.007739,0.004019,0.001274,-16.087547,16.049271,27.737923,,,,,,
1466440919.64,1.883454,-0.054699,0.021625,0.001054,-0.003787,-0.000769,0.950096,0.054672,0.307128,0.007072,0.001297,-0.000182,-16.083851,16.047550,27.741060,,,,,,
1466440919.65,1.883464,-0.054685,0.021646,-0.002137,0.000458,0.000266,0.950094,0.054658,0.307138,0.005747,0.000030,0.002493,-16.083851,16.047550,27.741060,,,,,,
1466440919.66,1.883465,-0.054692,0.021640,-0.000008,0.000458,0.000268,0.950093,0.054665,0.307140,0.005778,0.000832,0.002675,-16.083851,16.047550,27.741060,,,,,,
1466440919.67,1.883505,-0.054656,0.021643,0.002120,-0.002726,-0.000774,0.950083,0.054629,0.307177,0.006796,-0.001879,0.004697,-16.081810,16.047235,27.742428,,,,,,
1466440919.68,1.883560,-0.054680,0.021645,0.000004,0.007893,-0.000843,0.950065,0.054653,0.307230,0.007195,0.001698,0.003164,-16.081810,16.047235,27.742428,,,,,,
1466440919.69,1.883621,-0.054682,0.021665,-0.003192,0.007892,0.000218,0.950046,0.054655,0.307287,0.006970,0.000719,0.000971,-16.081810,16.047235,27.742428,,,,,,
1466440919.70,1.883690,-0.054714,0.021674,0.000001,0.005770,-0.000830,0.950023,0.054686,0.307352,0.006779,0.002595,0.001837,-16.081810,16.047235,27.742428,,,,,,
1466440919.71,1.883714,-0.054713,0.021678,-0.002131,0.006827,0.001290,0.950016,0.054686,0.307375,0.006527,0.000551,0.000654,-16.086174,16.046638,27.740242,,,,,,
1466440919.72,1.883833,-0.054723,0.021693,-0.001061,0.008953,0.000214,0.949979,0.054696,0.307488,0.006427,0.001396,0.002815,-16.086174,16.046638,27.740242,,,,,,
1466440919.73,1.883884,-0.054742,0.021695,-0.002122,0.008959,-0.001917,0.949962,0.054715,0.307537,0.007008,0.001056,0.001484,-16.089279,16.046045,27.738783,,,,,,
1466440919.74,1.884025,-0.054757,0.021704,0.000012,0.014264,-0.000883,0.949918,0.054730,0.307670,0.006015,0.000522,0.002297,-16.089279,16.046045,27.738783,,,,,,
1466440919.75,1.884181,-0.054734,0.021711,-0.001051,0.015326,-0.000891,0.949871,0.054706,0.307818,0.006443,-0.001148,0.002438,-16.089279,16.046045,27.738783,,,,,,
1466440919.76,1.884343,-0.054714,0.021723,-0.001047,0.018512,-0.000911,0.949822,0.054687,0.307972,0.007178,-0.001098,0.001293,-16.102657,16.044861,27.731705,,,,,,
1466440919.77,1.884519,-0.054729,0.021732,0.000016,0.017449,-0.000903,0.949767,0.054702,0.308139,0.007462,0.000596,0.002286,-16.102657,16.044861,27.731705,,,,,,
1466440919.78,1.884672,-0.054745,0.021751,-0.002114,0.016389,-0.000898,0.949719,0.054717,0.308285,0.006809,0.000748,0.000644,-16.102657,16.044861,27.731705,,,,,,
1466440919.79,1.884879,-0.054727,0.021779,-0.003172,0.021698,-0.000933,0.949656,0.054700,0.308482,0.007604,-0.000668,0.002172,-16.112028,16.044218,27.726633,,,,,,
1466440919.80,1.885062,-0.054710,0.021792,-0.002108,0.021697,-0.000932,0.949601,0.054683,0.308656,0.007370,-0.001247,0.001006,-16.112028,16.044218,27.726633,,,,,,
1466440919.81,1.885252,-0.054693,0.021788,0.000020,0.020635,-0.000923,0.949543,0.054666,0.308836,0.007336,-0.000940,0.002138,-16.112028,16.044218,27.726633,,,,,,
1466440919.82,1.885484,-0.054636,0.021811,-0.001039,0.021703,-0.003059,0.949474,0.054609,0.309058,0.006489,-0.004240,0.002420,-16.131994,16.042723,27.715887,,,,,,
1466440919.83,1.885785,-0.054630,0.021821,0.000035,0.029135,-0.003104,0.949382,0.054603,0.309343,0.006658,-0.001441,0.004118,-16.131994,16.042723,27.715887,,,,,,
1466440919.84,1.886214,-0.054650,0.021847,-0.001014,0.039757,-0.004236,0.949247,0.054623,0.309751,0.008104,-0.000530,0.006564,-16.131994,16.042723,27.715887,,,,,,
1466440919.85,1.886672,-0.054710,0.021887,-0.001006,0.042949,-0.006385,0.949102,0.054682,0.310184,0.007807,0.001058,0.004101,-16.145912,16.042122,27.708130,,,,,,
1466440919.86,1.887124,-0.054773,0.021928,-0.002071,0.044008,-0.005328,0.948959,0.054745,0.310612,0.005661,0.001483,0.000576,-16.145912,16.042122,27.708130,,,,,,
1466440919.87,1.887522,-0.054826,0.021944,0.000049,0.041874,-0.002120,0.948832,0.054799,0.310989,0.004781,0.002116,-0.000549,-16.145912,16.042122,27.708130,,,,,,
1466440919.88,1.887837,-0.054858,0.021956,-0.001025,0.035501,-0.001017,0.948733,0.054831,0.311287,0.007200,0.001535,-0.001610,-16.197453,16.036932,27.681042,,,,,,
1466440919.89,1.888052,-0.054888,0.021973,-0.001033,0.029129,-0.000977,0.948664,0.054861,0.311491,0.010076,0.001093,-0.003263,-16.197453,16.036932,27.681042,,,,,,
1466440919.90,1.888370,-0.054843,0.021988,-0.001032,0.027012,-0.003092,0.948567,0.054815,0.311793,0.009257,-0.003576,0.005742,-16.197453,16.036932,27.681042,,,,,,
1466440919.91,1.888739,-0.054793,0.021998,0.000039,0.032321,-0.003124,0.948455,0.054765,0.312144,0.009156,-0.003603,0.007223,-16.213165,16.035604,27.672607,,,,,,
1466440919.92,1.888972,-0.054801,0.022017,0.000038,0.029138,-0.004168,0.948382,0.054774,0.312365,0.005109,-0.000498,-0.003710,-16.213165,16.035604,27.672607,,,,,,
1466440919.93,1.889126,-0.054846,0.022021,0.000024,0.019578,-0.003044,0.948331,0.054819,0.312510,0.008395,0.001639,-0.001780,-16.213165,16.035604,27.672607,,,,,,
1466440919.94,1.889301,-0.054912,0.022031,-0.001040,0.020640,-0.003052,0.948273,0.054884,0.312675,0.005340,0.003176,0.000863,-16.242409,16.034393,27.656155,,,,,,
1466440919.95,1.889507,-0.054950,0.022033,0.001088,0.023816,0.000123,0.948207,0.054923,0.312870,0.003881,0.001962,-0.000309,-16.242409,16.034393,27.656155,,,,,,
1466440919.96,1.889662,-0.054961,0.022046,-0.001051,0.016384,0.000168,0.948158,0.054933,0.313017,0.010598,0.001280,-0.000364,-16.242409,16.034393,27.656155,,,,,,
1466440919.97,1.889792,-0.054939,0.022042,0.000016,0.016386,-0.000895,0.948118,0.054911,0.313139,0.008989,-0.001490,0.001298,-16.254568,16.033316,27.649635,,,,,,
1466440919.98,1.889965,-0.054930,0.022058,-0.001042,0.021695,-0.000930,0.948065,0.054903,0.313304,0.005595,-0.000459,-0.000835,-16.254568,16.033316,27.649635,,,,,,
1466440919.99,1.890125,-0.054909,0.022067,-0.002110,0.020631,0.000141,0.948016,0.054881,0.313456,0.007215,-0.000926,-0.000818,-16.254568,16.033316,27.649635,,,,,,
1466440920.00,1.890278,-0.054879,0.022064,0.001079,0.018502,0.001222,0.947969,0.054852,0.313602,0.005416,-0.001431,-0.000354,-16.271122,16.032539,27.640348,,,,,,
1466440920.01,1.890443,-0.054926,0.022078,-0.003173,0.023813,0.001184,0.947915,0.054899,0.313758,0.006492,0.004259,-0.001074,-16.271122,16.032539,27.640348,,,,,,
1466440920.02,1.890575,-0.054935,0.022106,-0.003182,0.015321,0.000172,0.947873,0.054908,0.313882,0.007800,0.001657,0.000281,-16.271122,16.032539,27.640348,,,,,,
1466440920.03,1.890741,-0.054948,0.022124,-0.002115,0.018503,0.001218,0.947820,0.054920,0.314040,0.006159,0.002590,0.000612,-16.280235,16.032070,27.635258,,,,,,
1466440920.04,1.890902,-0.054922,0.022137,-0.001056,0.015314,0.002303,0.947771,0.054895,0.314192,0.007612,0.000632,0.001726,-16.280235,16.032070,27.635258,,,,,,
1466440920.05,1.891026,-0.054903,0.022131,-0.001060,0.012129,0.002323,0.947733,0.054875,0.314310,0.007406,0.000301,0.002859,-16.280235,16.032070,27.635258,,,,,,
1466440920.06,1.891154,-0.054881,0.022139,-0.001060,0.012129,0.002323,0.947694,0.054854,0.314432,0.006392,0.000734,0.002066,-16.296152,16.030552,27.626753,,,,,,
1466440920.07,1.891311,-0.054826,0.022142,0.000009,0.014255,0.001247,0.947648,0.054799,0.314581,0.008926,-0.001942,0.004373,-16.296152,16.030552,27.626753,,,,,,
1466440920.08,1.891375,-0.054811,0.022145,-0.001054,0.013196,0.000188,0.947628,0.054784,0.314643,0.010319,0.000239,-0.001655,-16.296152,16.030552,27.626753,,,,,,
1466440920.09,1.891535,-0.054835,0.022142,0.001075,0.013196,0.000190,0.947576,0.054808,0.314794,0.007654,0.001924,0.004877,-16.302896,16.030746,27.622660,,,,,,
1466440920.10,1.891722,-0.054843,0.022134,0.001078,0.017440,0.001227,0.947517,0.054815,0.314971,0.005623,0.001398,0.003495,-16.302896,16.030746,27.622660,,,,,,
1466440920.11,1.891900,-0.054839,0.022131,0.000011,0.013196,0.000189,0.947461,0.054811,0.315140,0.006411,0.000883,0.003540,-16.302896,16.030746,27.622660,,,,,,
1466440920.12,1.891932,-0.054879,0.022108,0.001069,0.007887,0.000223,0.947449,0.054852,0.315169,0.010788,0.002735,0.000962,-16.319330,16.030985,27.612816,,,,,,
1466440920.13,1.892054,-0.054853,0.022100,0.001069,0.011066,0.002332,0.947412,0.054825,0.315285,0.006568,-0.000550,0.003486,-16.319330,16.030985,27.612816,,,,,,
1466440920.14,1.892198,-0.054805,0.022092,0.000009,0.013193,0.001253,0.947369,0.054778,0.315422,0.009006,-0.001693,0.003624,-16.319330,16.030985,27.612816,,,,,,
1466440920.15,1.892340,-0.054764,0.022095,0.000009,0.013194,0.001253,0.947326,0.054737,0.315557,0.007584,-0.001499,0.003351,-16.319330,16.030985,27.612816,,,,,,
1466440920.16,1.892443,-0.054736,0.022097,-0.001058,0.012132,0.001259,0.947295,0.054709,0.315656,0.008271,-0.000723,0.001162,-16.330208,16.032618,27.605434,,,,,,
1466440920.17,1.892473,-0.054713,0.022085,0.001065,0.006822,0.001295,0.947287,0.054685,0.315685,0.007959,-0.000334,-0.000118,-16.330208,16.032618,27.605434,,,,,,
1466440920.18,1.892590,-0.054696,0.022087,-0.001057,0.011073,0.000201,0.947251,0.054669,0.315796,0.006805,-0.000760,0.003204,-16.330208,16.032618,27.605434,,,,,,
1466440920.19,1.892674,-0.054710,0.022083,0.001069,0.007887,0.000223,0.947224,0.054683,0.315875,0.006374,0.000890,0.001661,-16.333082,16.033283,27.603350,,,,,,
1466440920.20,1.892776,-0.054725,0.022086,-0.001060,0.010008,0.001272,0.947191,0.054697,0.315972,0.006011,0.001760,0.002723,-16.333082,16.033283,27.603350,,,,,,
1466440920.21,1.892841,-0.054704,0.022094,0.000002,0.005764,0.000236,0.947171,0.054677,0.316033,0.007357,-0.000142,0.002449,-16.338556,16.033382,27.600052,,,,,,
1466440920.22,1.892811,-0.054669,0.022075,0.001060,0.002574,0.001321,0.947182,0.054642,0.316006,0.008857,-0.000794,-0.000820,-16.338556,16.033382,27.600052,,,,,,
1466440920.23,1.892730,-0.054647,0.022080,-0.001076,-0.002734,0.001352,0.947209,0.054619,0.315929,0.010219,0.000541,-0.001659,-16.338556,16.033382,27.600052,,,,,,
1466440920.24,1.892627,-0.054614,0.022075,-0.001081,-0.004861,0.002430,0.947244,0.054587,0.315832,0.010139,-0.000250,-0.000341,-16.339146,16.033913,27.599398,,,,,,
1466440920.25,1.892579,-0.054588,0.022080,-0.001078,-0.004858,0.001366,0.947260,0.054561,0.315787,0.006781,0.000187,0.002679,-16.339146,16.033913,27.599398,,,,,,
1466440920.26,1.892545,-0.054549,0.022095,-0.003217,-0.010169,0.002462,0.947273,0.054522,0.315756,0.007958,-0.000018,0.005640,-16.339146,16.033913,27.599398,,,,,,
1466440920.27,1.892468,-0.054525,0.022107,-0.001092,-0.012296,0.003541,0.947298,0.054498,0.315683,0.005399,0.001380,0.004416,-16.334087,16.034290,27.602171,,,,,,
1466440920.28,1.892411,-0.054544,0.022096,0.001039,-0.011235,0.003536,0.947315,0.054517,0.315629,0.005062,0.003101,0.005645,-16.334087,16.034290,27.602171,,,,,,
1466440920.29,1.892290,-0.054525,0.022105,-0.002158,-0.013357,0.003546,0.947354,0.054498,0.315515,0.005557,0.001670,0.002433,-16.334087,16.034290,27.602171,,,,,,
1466440920.30,1.892050,-0.054500,0.022104,-0.001104,-0.021852,0.003601,0.947432,0.054473,0.315288,0.009264,0.000962,0.000600,-16.334087,16.034290,27.602171,,,,,,
1466440920.31,1.891739,-0.054434,0.022100,-0.002170,-0.022914,0.003606,0.947533,0.054407,0.314994,0.006980,-0.000589,-0.002249,-16.325233,16.033924,27.607618,,,,,,
1466440920.32,1.891525,-0.054407,0.022103,-0.002168,-0.019731,0.004651,0.947602,0.054381,0.314792,0.005264,0.001406,0.001965,-16.325233,16.033924,27.607618,,,,,,
1466440920.33,1.891343,-0.054357,0.022107,-0.002168,-0.019731,0.004651,0.947661,0.054330,0.314620,0.006043,0.000037,0.003510,-16.325233,16.033924,27.607618,,,,,,
1466440920.34,1.891145,-0.054337,0.022102,-0.001103,-0.019732,0.004652,0.947725,0.054310,0.314432,0.006193,0.002026,0.001516,-16.296535,16.035025,27.623928,,,,,,
1466440920.35,1.890888,-0.054263,0.022109,-0.002174,-0.025041,0.004684,0.947809,0.054236,0.314191,0.008840,-0.000418,0.001087,-16.296535,16.035025,27.623928,,,,,,
1466440920.36,1.890565,-0.054224,0.022087,-0.000040,-0.022916,0.003608,0.947913,0.054197,0.313885,0.009775,0.000445,-0.001309,-16.282536,16.035576,27.631865,,,,,,
1466440920.37,1.890215,-0.054150,0.022047,0.001017,-0.026108,0.005759,0.948026,0.054124,0.313555,0.008181,-0.001389,-0.001787,-16.282536,16.035576,27.631865,,,,,,
1466440920.38,1.889689,-0.054109,0.022007,0.001008,-0.036721,0.003696,0.948193,0.054083,0.313056,0.009234,-0.000356,-0.007102,-16.282536,16.035576,27.631865,,,,,,
1466440920.39,1.889144,-0.054079,0.021960,-0.000061,-0.036728,0.005824,0.948365,0.054052,0.312540,0.008117,0.001474,-0.006540,-16.262005,16.038290,27.642378,,,,,,
1466440920.40,1.888622,-0.054026,0.021957,-0.002195,-0.042034,0.004791,0.948531,0.054000,0.312046,0.008134,0.000657,-0.005283,-16.262005,16.038290,27.642378,,,,,,
1466440920.41,1.888161,-0.053977,0.021944,0.002061,-0.043101,0.005866,0.948677,0.053951,0.311609,0.006752,0.001301,-0.001871,-16.262005,16.038290,27.642378,,,,,,
1466440920.42,1.887771,-0.053899,0.021948,-0.005376,-0.031415,0.004721,0.948803,0.053873,0.311241,0.005192,-0.001291,-0.001014,-16.262005,16.038290,27.642378,,,,,,
1466440920.43,1.887415,-0.053842,0.021944,-0.001123,-0.027232,0.005765,0.948916,0.053816,0.310904,0.004651,0.000139,-0.002051,-16.202190,16.042673,27.674940,,,,,,
1466440920.44,1.887132,-0.053818,0.021955,-0.004303,-0.019792,0.003587,0.949006,0.053792,0.310635,0.005523,0.001399,-0.002026,-16.202190,16.042673,27.674940,,,,,,
1466440920.45,1.886857,-0.053742,0.021949,-0.001109,-0.019794,0.003590,0.949095,0.053716,0.310376,0.007280,-0.001577,-0.001493,-16.179480,16.043610,27.687679,,,,,,
1466440920.46,1.886631,-0.053659,0.021938,-0.002175,-0.018735,0.004647,0.949169,0.053634,0.310163,0.005726,-0.001845,-0.000348,-16.179480,16.043610,27.687679,,,,,,
1466440920.47,1.886403,-0.053616,0.021933,-0.001105,-0.016609,0.003570,0.949242,0.053590,0.309948,0.006980,0.000319,-0.001033,-16.179480,16.043610,27.687679,,,,,,
1466440920.48,1.886185,-0.053549,0.021909,-0.000038,-0.014487,0.003558,0.949313,0.053524,0.309741,0.006955,-0.001766,-0.000766,-16.147974,16.045479,27.704983,,,,,,
1466440920.49,1.886084,-0.053510,0.021924,-0.003215,-0.004923,0.001366,0.949346,0.053485,0.309646,0.006464,-0.000781,0.001237,-16.147974,16.045479,27.704983,,,,,,
1466440920.50,1.886178,-0.053434,0.021952,-0.002148,-0.002799,0.001354,0.949321,0.053408,0.309736,0.008030,-0.000262,0.005586,-16.147974,16.045479,27.704983,,,,,,
1466440920.51,1.886194,-0.053400,0.021930,0.003176,-0.003860,0.000302,0.949318,0.053375,0.309752,0.006676,-0.001892,0.007097,-16.137476,16.046450,27.710539,,,,,,
,,,,,,,,,,,,,,,,29.719919,-95.399105,9.000000,-1.000000,-1.000000,1466440920.53
1466440920.52,1.886328,-0.053353,0.021956,-0.002135,0.002520,-0.001872,0.949279,0.053328,0.309880,0.006761,-0.002806,0.009700,-16.137476,16.046450,27.710539,,,,,,
1466440920.53,1.886521,-0.053292,0.021964,0.002126,0.002522,-0.002931,0.949222,0.053267,0.310065,0.007107,-0.005019,0.013666,-16.137476,16.046450,27.710539,,,,,,
1466440920.54,1.886820,-0.053329,0.021982,0.000012,0.013145,-0.004064,0.949127,0.053304,0.310348,0.005844,0.000300,0.014100,-16.146412,16.046673,27.705200,,,,,,
1466440920.55,1.887271,-0.053333,0.022034,-0.001040,0.021645,-0.005183,0.948987,0.053308,0.310775,0.006732,-0.001337,0.016495,-16.146412,16.046673,27.705200,,,,,,
1466440920.56,1.887789,-0.053357,0.022078,-0.002097,0.028018,-0.005224,0.948825,0.053332,0.311267,0.005017,-0.000735,0.017148,-16.146412,16.046673,27.705200,,,,,,
1466440920.57,1.888306,-0.053368,0.022086,0.002163,0.029079,-0.005226,0.948663,0.053343,0.311757,0.006598,-0.002165,0.017085,-16.146412,16.046673,27.705200,,,,,,
1466440920.58,1.888876,-0.053389,0.022123,-0.001021,0.035456,-0.006333,0.948484,0.053364,0.312298,0.007464,-0.001637,0.016880,-16.197426,16.042336,27.677923,,,,,,
1466440920.59,1.889370,-0.053428,0.022162,-0.003134,0.049261,-0.006422,0.948328,0.053402,0.312765,0.011114,-0.000714,0.007044,-16.197426,16.042336,27.677923,,,,,,
1466440920.60,1.889642,-0.053443,0.022183,0.000044,0.034396,-0.007390,0.948242,0.053418,0.313023,0.012970,-0.002683,-0.004933,-16.228031,16.039551,27.661606,,,,,,
1466440920.61,1.889683,-0.053521,0.022190,0.004272,0.007851,-0.008283,0.948225,0.053495,0.313061,0.010683,0.000399,-0.004620,-16.228031,16.039551,27.661606,,,,,,
1466440920.62,1.889849,-0.053627,0.022198,0.003210,0.009976,-0.008298,0.948168,0.053602,0.313216,0.005720,0.000918,0.006669,-16.228031,16.039551,27.661606,,,,,,
1466440920.63,1.890186,-0.053732,0.022241,-0.003158,0.025907,-0.008404,0.948057,0.053706,0.313534,0.005312,0.002110,0.009113,-16.238216,16.038059,27.656494,,,,,,
1466440920.64,1.890547,-0.053857,0.022272,0.001104,0.030149,-0.007363,0.947937,0.053831,0.313874,0.004165,0.003298,0.003143,-16.238216,16.038059,27.656494,,,,,,
1466440920.65,1.890795,-0.053957,0.022299,-0.001032,0.028021,-0.005223,0.947855,0.053931,0.314107,0.006735,0.002924,-0.000386,-16.238216,16.038059,27.656494,,,,,,
1466440920.66,1.891124,-0.054029,0.022340,-0.002096,0.029083,-0.005231,0.947747,0.054002,0.314418,0.005225,0.002409,0.002187,-16.275969,16.031696,27.637985,,,,,,
1466440920.67,1.891441,-0.054116,0.022363,-0.003154,0.035452,-0.004208,0.947643,0.054090,0.314717,0.007298,0.002825,0.004146,-16.275969,16.031696,27.637985,,,,,,
1466440920.68,1.891745,-0.054148,0.022379,0.000028,0.028015,-0.003093,0.947546,0.054122,0.315004,0.007166,0.000322,0.002653,-16.275969,16.031696,27.637985,,,,,,
1466440920.69,1.891944,-0.054207,0.022397,-0.001039,0.025891,-0.003081,0.947480,0.054180,0.315192,0.009978,0.002140,-0.000647,-16.296480,16.028637,27.627670,,,,,,
1466440920.70,1.892118,-0.054247,0.022408,-0.001041,0.022708,-0.004126,0.947423,0.054220,0.315357,0.008555,0.000498,0.000027,-16.296480,16.028637,27.627670,,,,,,
1466440920.71,1.892227,-0.054325,0.022422,0.001077,0.013151,-0.004064,0.947385,0.054299,0.315458,0.009387,0.002937,-0.000471,-16.296480,16.028637,27.627670,,,,,,
1466440920.72,1.892258,-0.054374,0.022402,0.003199,0.006778,-0.004022,0.947372,0.054347,0.315487,0.008209,0.000386,-0.000881,-16.296480,16.028637,27.627670,,,,,,
1466440920.73,1.892281,-0.054424,0.022411,-0.000006,0.003586,-0.000812,0.947363,0.054397,0.315508,0.007700,0.002457,0.001005,-16.321583,16.025351,27.614754,,,,,,
1466440920.74,1.892273,-0.054438,0.022404,-0.000011,-0.000662,-0.000785,0.947364,0.054411,0.315500,0.007210,0.000582,0.002035,-16.321583,16.025351,27.614754,,,,,,
1466440920.75,1.892324,-0.054486,0.022404,0.002112,-0.005971,-0.000750,0.947346,0.054459,0.315547,0.006054,0.002471,0.009694,-16.324533,16.025028,27.613197,,,,,,
1466440920.76,1.892314,-0.054516,0.022365,0.002116,-0.000665,0.000281,0.947347,0.054489,0.315537,0.008204,0.001343,0.003676,-16.324533,16.025028,27.613197,,,,,,
1466440920.77,1.892254,-0.054549,0.022394,-0.002144,-0.003846,-0.000768,0.947365,0.054522,0.315480,0.008187,0.002500,-0.002049,-16.324533,16.025028,27.613197,,,,,,
1466440920.78,1.892035,-0.054603,0.022345,0.003165,-0.013408,0.000361,0.947431,0.054576,0.315272,0.006518,0.002873,-0.001276,-16.325640,16.024719,27.612724,,,,,,
1466440920.79,1.891861,-0.054571,0.022333,0.001030,-0.016595,0.001444,0.947488,0.054544,0.315107,0.005973,-0.000574,0.000903,-16.325640,16.024719,27.612724,,,,,,
1466440920.80,1.891763,-0.054539,0.022323,0.002096,-0.015534,0.001438,0.947520,0.054512,0.315015,0.005071,-0.001243,0.005465,-16.325640,16.024719,27.612724,,,,,,
1466440920.81,1.891600,-0.054510,0.022316,0.001036,-0.013407,0.000360,0.947573,0.054483,0.314861,0.007673,-0.001229,0.001133,-16.325640,16.024719,27.612724,,,,,,
1466440920.82,1.891431,-0.054466,0.022311,-0.001091,-0.013403,-0.000707,0.947628,0.054439,0.314702,0.008472,-0.002666,0.000377,-16.306690,16.027430,27.622343,,,,,,
1466440920.83,1.891312,-0.054451,0.022317,-0.001092,-0.012344,0.000351,0.947666,0.054424,0.314589,0.006679,-0.000179,0.003892,-16.306690,16.027430,27.622343,,,,,,
1466440920.84,1.891244,-0.054416,0.022311,-0.000019,-0.007032,-0.000745,0.947690,0.054389,0.314525,0.007465,-0.002265,0.004994,-16.297855,16.027802,27.627344,,,,,,
1466440920.85,1.891079,-0.054415,0.022288,0.003166,-0.014467,-0.000695,0.947742,0.054389,0.314369,0.007550,-0.000815,0.000404,-16.297855,16.027802,27.627344,,,,,,
1466440920.86,1.890986,-0.054420,0.022277,0.001039,-0.011283,0.000347,0.947771,0.054393,0.314280,0.007979,0.001057,0.003972,-16.297855,16.027802,27.627344,,,,,,
1466440920.87,1.890853,-0.054446,0.022276,0.001042,-0.012339,-0.001775,0.947811,0.054419,0.314154,0.007359,0.001169,0.002603,-16.290775,16.028934,27.630859,,,,,,
1466440920.88,1.890757,-0.054411,0.022285,-0.002163,-0.009218,0.001397,0.947843,0.054384,0.314064,0.006945,-0.001314,0.002053,-16.290775,16.028934,27.630859,,,,,,
1466440920.89,1.890672,-0.054420,0.022299,-0.001094,-0.007092,0.000321,0.947869,0.054393,0.313983,0.005424,0.001362,0.001248,-16.290775,16.028934,27.630859,,,,,,
1466440920.90,1.890574,-0.054425,0.022304,-0.000032,-0.009216,0.000335,0.947900,0.054398,0.313890,0.006065,0.000610,0.000349,-16.279633,16.028568,27.637640,,,,,,
1466440920.91,1.890511,-0.054438,0.022332,-0.004286,-0.003908,0.001362,0.947919,0.054411,0.313830,0.005877,0.002199,0.001997,-16.279633,16.028568,27.637640,,,,,,
1466440920.92,1.890380,-0.054499,0.022332,-0.000034,-0.011340,0.000348,0.947957,0.054472,0.313704,0.005870,0.003893,0.001222,-16.275555,16.027430,27.640701,,,,,,
1466440920.93,1.890303,-0.054514,0.022354,-0.003224,-0.004974,0.002433,0.947980,0.054487,0.313632,0.006045,0.003207,0.000593,-16.275555,16.027430,27.640701,,,,,,
1466440920.94,1.890130,-0.054530,0.022352,0.001023,-0.011353,0.004606,0.948034,0.054503,0.313467,0.006099,0.003892,-0.002981,-16.275555,16.027430,27.640701,,,,,,
1466440920.96,1.889363,-0.054488,0.022344,-0.000068,-0.030471,0.005789,0.948276,0.054462,0.312741,0.010113,0.002866,-0.010372,-16.275555,16.027430,27.640701,,,,,,
1466440920.95,1.889846,-0.054497,0.022355,-0.003238,-0.012414,0.004608,0.948124,0.054470,0.313199,0.008632,0.001118,-0.008801,-16.275555,16.027430,27.640701,,,,,,
1466440920.97,1.888840,-0.054442,0.022300,0.003115,-0.041088,0.004794,0.948442,0.054415,0.312245,0.008483,0.000211,-0.005544,-16.258158,16.026310,27.651588,,,,,,
1466440920.98,1.888503,-0.054384,0.022285,-0.000070,-0.032595,0.005802,0.948550,0.054357,0.311927,0.004270,-0.000173,0.002603,-16.258158,16.026310,27.651588,,,,,,
1466440920.99,1.888307,-0.054327,0.022272,-0.000061,-0.023041,0.006807,0.948614,0.054300,0.311742,0.004267,0.000265,0.006083,-16.229300,16.028391,27.667332,,,,,,
1466440921.00,1.888037,-0.054238,0.022257,-0.000054,-0.020912,0.004665,0.948703,0.054212,0.311487,0.006498,-0.001935,-0.002192,-16.229300,16.028391,27.667332,,,,,,
1466440921.01,1.887680,-0.054169,0.022246,-0.001125,-0.026221,0.004697,0.948817,0.054142,0.311150,0.007161,-0.000645,-0.003746,-16.229300,16.028391,27.667332,,,,,,
1466440921.02,1.887417,-0.054123,0.022248,-0.001130,-0.028348,0.005775,0.948902,0.054097,0.310901,0.004910,0.001567,0.002011,-16.192852,16.031927,27.686628,,,,,,
1466440921.03,1.887232,-0.054046,0.022224,-0.000055,-0.018795,0.006780,0.948963,0.054020,0.310726,0.006222,-0.000385,0.004413,-16.192852,16.031927,27.686628,,,,,,
1466440921.04,1.887090,-0.053975,0.022197,0.001013,-0.017730,0.005710,0.949011,0.053949,0.310593,0.007059,-0.000436,0.005050,-16.192852,16.031927,27.686628,,,,,,
1466440921.05,1.886934,-0.053899,0.022182,-0.001108,-0.012417,0.004611,0.949063,0.053873,0.310446,0.007754,-0.001123,0.003000,-16.178492,16.033453,27.694139,,,,,,
1466440921.06,1.886849,-0.053826,0.022170,-0.000036,-0.007109,0.004579,0.949093,0.053800,0.310367,0.007175,-0.001615,0.002575,-16.178492,16.033453,27.694139,,,,,,
1466440921.07,1.886869,-0.053780,0.022185,-0.003218,-0.000730,0.002407,0.949089,0.053754,0.310387,0.004966,-0.000638,0.004601,-16.178492,16.033453,27.694139,,,,,,
1466440921.08,1.886977,-0.053748,0.022181,-0.000012,0.008825,0.002350,0.949057,0.053722,0.310490,0.004510,-0.000195,0.005367,-16.178492,16.033453,27.694139,,,,,,
1466440921.09,1.887118,-0.053699,0.022198,-0.004257,0.016265,0.000170,0.949016,0.053673,0.310624,0.006962,-0.001427,0.002089,-16.164246,16.036463,27.700714,,,,,,
1466440921.10,1.887247,-0.053684,0.022194,0.002124,0.012012,0.001268,0.948977,0.053658,0.310747,0.006361,0.000145,0.002287,-16.164246,16.036463,27.700714,,,,,,
1466440921.11,1.887393,-0.053626,0.022174,0.000004,0.018387,0.000162,0.948935,0.053600,0.310886,0.006632,-0.002712,0.000393,-16.169960,16.036615,27.697290,,,,,,
1466440921.12,1.887569,-0.053590,0.022186,-0.001058,0.020511,0.000148,0.948882,0.053564,0.311054,0.009508,-0.001257,0.000790,-16.169960,16.036615,27.697290,,,,,,
1466440921.13,1.887783,-0.053564,0.022215,-0.004245,0.025821,0.000111,0.948816,0.053538,0.311257,0.007284,-0.000499,0.000724,-16.169960,16.036615,27.697290,,,,,,
1466440921.14,1.888025,-0.053545,0.022223,0.000022,0.029010,-0.002033,0.948742,0.053520,0.311488,0.008381,-0.001441,0.000905,-16.186373,16.036989,27.687485,,,,,,
1466440921.15,1.888271,-0.053497,0.022246,-0.002112,0.026884,-0.000957,0.948668,0.053471,0.311722,0.008699,-0.002889,0.000519,-16.186373,16.036989,27.687485,,,,,,
1466440921.16,1.888530,-0.053454,0.022266,-0.001045,0.023707,-0.004129,0.948589,0.053429,0.311968,0.007893,-0.003655,0.003461,-16.186373,16.036989,27.687485,,,,,,
1466440921.17,1.888804,-0.053454,0.022289,-0.002106,0.030073,-0.002041,0.948504,0.053428,0.312228,0.006559,-0.000831,0.002225,-16.198978,16.036470,27.680412,,,,,,
1466440921.18,1.889041,-0.053438,0.022315,-0.002114,0.025822,-0.000950,0.948430,0.053413,0.312453,0.008967,-0.000526,-0.000594,-16.198978,16.036470,27.680412,,,,,,
1466440921.19,1.889201,-0.053462,0.022328,-0.001058,0.015209,-0.003011,0.948379,0.053437,0.312605,0.007859,0.000213,0.001619,-16.198978,16.036470,27.680412,,,,,,
1466440921.20,1.889413,-0.053438,0.022360,-0.003186,0.016273,-0.003020,0.948314,0.053413,0.312806,0.007420,-0.002296,0.005004,-16.224480,16.034121,27.666834,,,,,,
1466440921.21,1.889630,-0.053471,0.022402,-0.004256,0.014147,-0.001943,0.948244,0.053445,0.313012,0.007246,0.001609,0.006950,-16.224480,16.034121,27.666834,,,,,,
1466440921.22,1.889780,-0.053446,0.022435,-0.002140,0.004588,-0.000816,0.948199,0.053420,0.313153,0.007978,-0.000930,0.007998,-16.224480,16.034121,27.666834,,,,,,
1466440921.23,1.889889,-0.053495,0.022442,0.001053,0.002466,-0.001865,0.948162,0.053470,0.313256,0.008900,0.002103,0.008582,-16.236746,16.031750,27.661015,,,,,,
1466440921.24,1.889797,-0.053519,0.022432,0.001046,-0.004964,-0.002882,0.948190,0.053493,0.313169,0.012977,0.000081,-0.000348,-16.236746,16.031750,27.661015,,,,,,
1466440921.25,1.889436,-0.053547,0.022435,-0.000043,-0.026198,-0.003815,0.948301,0.053522,0.312826,0.013811,0.000433,-0.005239,-16.236746,16.031750,27.661015,,,,,,
1466440921.26,1.889052,-0.053567,0.022420,0.001007,-0.034699,-0.001631,0.948420,0.053542,0.312461,0.009618,0.000093,0.001061,-16.232639,16.030218,27.664309,,,,,,
1466440921.27,1.888752,-0.053628,0.022413,0.003141,-0.029459,-0.002726,0.948511,0.053602,0.312176,0.007010,0.002505,0.004032,-16.232639,16.030218,27.664309,,,,,,
1466440921.28,1.888467,-0.053632,0.022397,0.001009,-0.027340,-0.000612,0.948600,0.053606,0.311905,0.007531,-0.000353,0.003113,-16.232639,16.030218,27.664309,,,,,,
1466440921.29,1.888215,-0.053670,0.022394,0.001013,-0.026275,-0.001683,0.948676,0.053645,0.311665,0.005059,0.001455,0.003657,-16.214863,16.030350,27.674656,,,,,,
1466440921.30,1.887977,-0.053702,0.022386,0.001014,-0.024154,-0.000632,0.948749,0.053676,0.311439,0.004803,0.001621,0.001427,-16.214863,16.030350,27.674656,,,,,,
1466440921.31,1.887860,-0.053669,0.022423,-0.005364,-0.015656,-0.000692,0.948787,0.053643,0.311329,0.010915,-0.000085,0.007549,-16.214863,16.030350,27.674656,,,,,,
1466440921.32,1.887661,-0.053639,0.022386,0.005286,-0.008238,0.002466,0.948851,0.053613,0.311140,-0.012266,-0.001931,-0.004393,-16.190842,16.029778,27.689049,,,,,,
1466440921.33,1.887648,-0.053841,0.022445,-0.004313,-0.019915,0.003592,0.948844,0.053815,0.311125,0.009927,0.014240,0.008257,-16.190842,16.029778,27.689049,,,,,,
1466440921.34,1.887584,-0.053602,0.022401,-0.001086,0.001328,0.000270,0.948876,0.053576,0.311069,0.013633,-0.013033,0.003156,-16.190842,16.029778,27.689049,,,,,,
1466440921.35,1.887165,-0.053666,0.022422,0.003130,-0.029473,0.002596,0.949003,0.053640,0.310669,0.000734,0.005594,-0.010407,-16.187656,16.027912,27.691990,,,,,,
1466440921.36,1.887180,-0.053507,0.022409,-0.004288,-0.011401,-0.003910,0.949007,0.053481,0.310687,0.026335,-0.009780,0.016507,-16.187656,16.027912,27.691990,,,,,,
1466440921.37,1.887064,-0.053560,0.022418,0.005292,-0.012470,-0.002830,0.949040,0.053535,0.310575,-0.000020,0.002267,0.004336,-16.187656,16.027912,27.691990,,,,,,
1466440921.38,1.886898,-0.053557,0.022436,-0.006424,-0.015650,-0.002821,0.949092,0.053532,0.310418,0.010244,-0.002430,0.000129,-16.167110,16.030663,27.702402,,,,,,
1466440921.39,1.886744,-0.053643,0.022427,0.006355,-0.013532,-0.002822,0.949135,0.053617,0.310270,0.006004,0.004153,0.002321,-16.167110,16.030663,27.702402,,,,,,
1466440921.40,1.886350,-0.053754,0.022439,-0.005386,-0.031587,0.000472,0.949252,0.053728,0.309895,0.004682,0.006422,-0.006810,-16.167110,16.030663,27.702402,,,,,,
1466440921.41,1.886123,-0.053736,0.022427,0.003145,-0.023094,-0.000637,0.949323,0.053710,0.309679,0.007403,-0.001281,0.004621,-16.159538,16.029833,27.707300,,,,,,
1466440921.42,1.886001,-0.053688,0.022442,-0.001108,-0.015679,0.000376,0.949363,0.053662,0.309565,0.002312,-0.001522,0.005468,-16.159538,16.029833,27.707300,,,,,,
1466440921.43,1.885919,-0.053624,0.022440,-0.001092,-0.005058,-0.000755,0.949392,0.053599,0.309487,0.006541,-0.003946,0.002570,-16.143745,16.029175,27.716885,,,,,,
1466440921.44,1.885864,-0.053561,0.022470,-0.001088,-0.005052,-0.002883,0.949412,0.053535,0.309437,0.010229,-0.004524,0.004070,-16.143745,16.029175,27.716885,,,,,,
1466440921.45,1.885763,-0.053588,0.022471,-0.001083,-0.000806,-0.002910,0.949442,0.053563,0.309340,0.005667,0.000133,-0.002348,-16.143745,16.029175,27.716885,,,,,,
1466440921.46,1.885744,-0.053633,0.022501,0.001041,-0.007174,-0.003932,0.949445,0.053608,0.309321,0.008501,0.000912,0.003698,-16.143745,16.029175,27.716885,,,,,,
1466440921.47,1.885723,-0.053723,0.022502,-0.001085,-0.002929,-0.002897,0.949447,0.053697,0.309300,0.005143,0.003508,0.002940,-16.131664,16.028818,27.724123,,,,,,
1466440921.48,1.885598,-0.053807,0.022510,-0.000034,-0.010368,-0.000721,0.949481,0.053781,0.309180,0.004040,0.004614,-0.000953,-16.131664,16.028818,27.724123,,,,,,
1466440921.49,1.885481,-0.053828,0.022493,0.002092,-0.011434,0.000353,0.949517,0.053802,0.309068,0.008094,0.001588,0.001906,-16.131664,16.028818,27.724123,,,,,,
1466440921.50,1.885408,-0.053901,0.022493,-0.000029,-0.005062,0.000310,0.949536,0.053874,0.308998,0.001774,0.004643,0.000954,-16.127575,16.026497,27.727842,,,,,,
1466440921.51,1.885339,-0.053929,0.022501,-0.000033,-0.010368,-0.000721,0.949556,0.053903,0.308932,0.008681,0.001883,0.003385,-16.127575,16.026497,27.727842,,,,,,
1466440921.52,1.885256,-0.053942,0.022502,-0.001087,-0.002932,-0.001834,0.949580,0.053916,0.308853,0.005864,0.000680,0.000275,-16.127575,16.026497,27.727842,,,,,,
1466440921.53,1.885255,-0.054018,0.022495,0.002101,-0.005063,0.000311,0.949577,0.053991,0.308850,0.003731,0.004450,0.004367,-16.125214,16.025578,27.729748,,,,,,
1466440921.54,1.885252,-0.054009,0.022498,-0.002154,-0.001875,0.000287,0.949578,0.053983,0.308848,0.007834,0.000506,0.002203,-16.125214,16.025578,27.729748,,,,,,
1466440921.55,1.885147,-0.054041,0.022491,0.001026,-0.008257,0.003523,0.949609,0.054015,0.308748,0.004157,0.004259,-0.000581,-16.125214,16.025578,27.729748,,,,,,
