timestamp,attitude_roll,attitude_pitch,attitude_yaw,rotation_rate_x,rotation_rate_y,rotation_rate_z,gravity_x,gravity_y,gravity_z,user_acc_x,user_acc_y,user_acc_z,magnetic_field_x,magnetic_field_y,magnetic_field_z,latitude(degree),longitude(degree),altitude(meter),speed(m/s),course(degree),timestamp
1465846913.33,-0.657287,-0.010310,-1.462524,0.004279,-0.291316,0.006368,-0.610939,0.010310,-0.791610,0.019722,-0.000163,-0.003632,-103.394745,235.523590,-23.618458,,,,,,
1465846913.34,-0.659722,-0.010287,-1.462447,0.009670,-0.244587,0.001822,-0.612865,0.010287,-0.790121,0.012447,0.001218,0.001485,-103.411987,235.529099,-23.487747,,,,,,
1465846913.35,-0.661746,-0.010230,-1.462402,0.003352,-0.188309,0.001463,-0.614463,0.010229,-0.788879,0.003318,-0.000830,0.002930,-103.411987,235.529099,-23.487747,,,,,,
1465846913.36,-0.663304,-0.010211,-1.462399,0.002366,-0.128842,-0.001040,-0.615691,0.010210,-0.787921,-0.002076,0.000028,0.006320,-103.411987,235.529099,-23.487747,,,,,,
1465846913.37,-0.664235,-0.010113,-1.462408,0.001352,-0.093793,-0.004454,-0.616425,0.010113,-0.787349,0.006745,-0.002331,0.003047,-103.504593,235.530792,-23.059074,,,,,,
1465846913.38,-0.665095,-0.010058,-1.462459,0.001333,-0.116078,-0.008572,-0.617103,0.010058,-0.786818,0.011695,-0.000872,-0.001191,-103.504593,235.530792,-23.059074,,,,,,
1465846913.39,-0.666600,-0.009991,-1.462517,0.002332,-0.170227,-0.009296,-0.618287,0.009991,-0.785889,0.005952,0.000095,0.000916,-103.504593,235.530792,-23.059074,,,,,,
1465846913.40,-0.668328,-0.009846,-1.462537,0.007607,-0.205274,-0.006942,-0.619644,0.009846,-0.784821,0.016113,-0.002201,-0.001068,-103.671326,235.503479,-22.583946,,,,,,
,,,,,,,,,,,,,,,,29.719983,-95.399018,10.613707,-1.000000,-1.000000,1465846933.35
,,,,,,,,,,,,,,,,29.719974,-95.399039,10.613707,-1.000000,-1.000000,1465846923.94
,,,,,,,,,,,,,,,,29.719983,-95.399018,10.613707,-1.000000,-1.000000,1465846933.35
1465846913.41,-0.670205,-0.009855,-1.462605,-0.007260,-0.172354,-0.006099,-0.621116,0.009855,-0.783657,0.002327,0.000506,0.003154,-103.671326,235.503479,-22.583946,,,,,,
1465846913.42,-0.671778,-0.009808,-1.462661,0.004513,-0.125638,-0.007445,-0.622349,0.009808,-0.782679,-0.004467,0.000614,0.010843,-103.671326,235.503479,-22.583946,,,,,,
1465846913.43,-0.673098,-0.009859,-1.462687,0.000274,-0.106531,-0.005440,-0.623381,0.009859,-0.781856,-0.005144,0.005049,0.010372,-103.788261,235.486389,-22.222260,,,,,,
1465846913.44,-0.674238,-0.009737,-1.462687,0.002393,-0.109726,-0.002224,-0.624272,0.009737,-0.781146,0.000844,-0.003999,0.002795,-103.788261,235.486389,-22.222260,,,,,,
1465846913.45,-0.675148,-0.009679,-1.462697,0.001368,-0.076813,-0.001367,-0.624984,0.009679,-0.780578,0.000426,-0.002050,0.004195,-103.788261,235.486389,-22.222260,,,,,,
1465846913.46,-0.675722,-0.009685,-1.462708,-0.000704,-0.029034,-0.000605,-0.625431,0.009684,-0.780219,-0.004207,0.000509,0.006904,-103.939514,235.465805,-21.727867,,,,,,
1465846913.47,-0.675971,-0.009643,-1.462704,-0.001726,0.008122,0.001290,-0.625626,0.009643,-0.780063,-0.009917,-0.002472,0.006824,-103.939514,235.465805,-21.727867,,,,,,
1465846913.48,-0.675811,-0.009688,-1.462704,-0.001671,0.053776,0.002068,-0.625501,0.009687,-0.780163,-0.009204,0.000673,0.010647,-103.939514,235.465805,-21.727867,,,,,,
1465846913.49,-0.675142,-0.009714,-1.462688,-0.002677,0.105794,0.004934,-0.624978,0.009713,-0.780582,-0.010123,-0.001245,0.010074,-103.964050,235.462341,-21.647820,,,,,,
1465846913.50,-0.673894,-0.009787,-1.462678,-0.006879,0.152512,0.005702,-0.624004,0.009787,-0.781360,-0.007740,-0.000235,0.006046,-103.964050,235.462341,-21.647820,,,,,,
1465846913.51,-0.672248,-0.009892,-1.462679,-0.007885,0.201351,0.006459,-0.622716,0.009892,-0.782385,-0.007914,0.000438,0.012396,-46.761936,233.951401,-134.348175,,,,,,
1465846913.52,-0.670142,-0.009966,-1.462661,-0.005709,0.238512,0.006228,-0.621067,0.009966,-0.783694,-0.007611,-0.000155,0.009814,-46.761936,233.951401,-134.348175,,,,,,
,,,,,,,,,,,,,,,,29.720862,-95.401386,10.613707,-1.000000,-1.000000,1465846969.37
1465846913.53,-0.667746,-0.010040,-1.462641,-0.002486,0.259749,0.005033,-0.619186,0.010040,-0.785180,-0.006867,0.000565,0.007485,-46.761936,233.951401,-134.348175,,,,,,
,,,,,,,,,,,,,,,,29.720893,-95.401471,10.613707,-1.000000,-1.000000,1465846969.38
1465846913.55,-0.662534,-0.010062,-1.462669,-0.003515,0.274637,-0.003577,-0.615085,0.010062,-0.788396,-0.001660,-0.002249,0.004110,-45.711105,233.992950,-134.637146,,,,,,
1465846913.54,-0.665197,-0.010096,-1.462638,-0.001405,0.267189,0.001794,-0.617183,0.010096,-0.786755,-0.002294,0.000692,0.009442,-45.711105,233.992950,-134.637146,,,,,,
1465846913.56,-0.659707,-0.010030,-1.462771,-0.007764,0.273593,-0.008897,-0.612855,0.010030,-0.790132,0.004914,-0.002447,0.003648,-45.711105,233.992950,-134.637146,,,,,,
1465846913.57,-0.657067,-0.010022,-1.462884,-0.004590,0.254485,-0.010903,-0.610766,0.010022,-0.791747,0.003207,0.000796,0.003616,-45.711105,233.992950,-134.637146,,,,,,
1465846913.58,-0.654620,-0.009993,-1.462988,-0.001431,0.224756,-0.011777,-0.608828,0.009993,-0.793240,0.006472,0.001497,0.001507,-44.317955,234.002060,-135.086349,,,,,,
1465846913.59,-0.652382,-0.009946,-1.463075,-0.001471,0.193962,-0.010520,-0.607051,0.009946,-0.794601,0.012218,0.000125,0.000091,-44.317955,234.002060,-135.086349,,,,,,
1465846913.60,-0.650400,-0.009918,-1.463144,-0.000439,0.171659,-0.008250,-0.605475,0.009918,-0.795803,0.013266,0.000763,0.000667,-44.317955,234.002060,-135.086349,,,,,,
1465846913.61,-0.648575,-0.009851,-1.463220,-0.000450,0.158924,-0.010299,-0.604022,0.009850,-0.796907,0.011676,-0.000451,-0.001433,-43.730679,234.000916,-135.279572,,,,,,
1465846913.62,-0.646957,-0.009808,-1.463301,0.001665,0.146185,-0.011281,-0.602732,0.009808,-0.797883,0.008418,0.001484,0.002305,-43.730679,234.000916,-135.279572,,,,,,
1465846913.63,-0.645522,-0.009731,-1.463391,0.002704,0.121770,-0.013256,-0.601587,0.009731,-0.798748,0.008798,0.000767,0.000668,-43.730679,234.000916,-135.279572,,,,,,
1465846913.64,-0.644330,-0.009646,-1.463508,0.000549,0.096297,-0.016292,-0.600635,0.009646,-0.799465,0.009632,0.000684,-0.000721,-42.890671,233.987045,-135.572220,,,,,,
1465846913.65,-0.643340,-0.009555,-1.463606,0.001582,0.075056,-0.014029,-0.599844,0.009555,-0.800060,0.011953,0.000607,-0.001438,-42.890671,233.987045,-135.572220,,,,,,
1465846913.66,-0.642423,-0.009431,-1.463723,-0.001625,0.062320,-0.015017,-0.599111,0.009431,-0.800611,0.015264,-0.002275,-0.002734,-42.890671,233.987045,-135.572220,,,,,,
,,,,,,,,,,,,,,,,29.719967,-95.399076,10.337617,-1.000000,-1.000000,1465846969.55
1465846913.67,-0.641577,-0.009339,-1.463861,-0.001640,0.050642,-0.014943,-0.598433,0.009338,-0.801118,0.018401,-0.001221,-0.002547,-42.659363,233.973618,-135.668320,,,,,,
1465846913.68,-0.640960,-0.009256,-1.463980,-0.002729,0.032590,-0.013767,-0.597940,0.009256,-0.801488,0.015771,-0.000344,-0.000804,-42.659363,233.973618,-135.668320,,,,,,
1465846913.69,-0.640579,-0.009185,-1.464118,-0.002750,0.012423,-0.015769,-0.597635,0.009185,-0.801716,0.014566,0.000351,-0.001202,-42.659363,233.973618,-135.668320,,,,,,
1465846913.71,-0.640028,-0.009069,-1.464432,-0.008087,0.004989,-0.013599,-0.597193,0.009069,-0.802046,0.012217,0.000132,-0.000307,-42.431629,233.948151,-135.783630,,,,,,
1465846913.70,-0.640246,-0.009098,-1.464274,-0.005954,0.004993,-0.015726,-0.597368,0.009098,-0.801916,0.016542,-0.002094,-0.002222,-42.431629,233.948151,-135.783630,,,,,,
1465846913.72,-0.639959,-0.008996,-1.464600,-0.003846,-0.019416,-0.019829,-0.597138,0.008996,-0.802088,0.010621,-0.001199,-0.000234,-42.431629,233.948151,-135.783630,,,,,,
1465846913.73,-0.640304,-0.008939,-1.464782,-0.010332,-0.087384,-0.013022,-0.597415,0.008939,-0.801882,0.021472,-0.000837,-0.006544,-42.431503,233.947372,-135.784988,,,,,,
1465846913.74,-0.641010,-0.008983,-1.464892,-0.010367,-0.103330,-0.005471,-0.597981,0.008983,-0.801460,0.021153,-0.000560,-0.003578,-42.431503,233.947372,-135.784988,,,,,,
1465846913.75,-0.641947,-0.009001,-1.464940,-0.002952,-0.128824,-0.002110,-0.598732,0.009001,-0.800899,0.018684,0.000155,-0.002445,-42.431503,233.947372,-135.784988,,,,,,
1465846913.76,-0.643421,-0.009041,-1.464961,-0.003037,-0.194658,-0.000633,-0.599911,0.009041,-0.800015,0.020138,0.001030,-0.002856,-42.796158,233.962021,-135.645233,,,,,,
1465846913.77,-0.645709,-0.008953,-1.464910,0.012802,-0.301902,-0.001009,-0.601741,0.008953,-0.798641,0.029308,0.000187,-0.008518,-42.796158,233.962021,-135.645233,,,,,,
1465846913.78,-0.648825,-0.008892,-1.464846,0.005218,-0.402772,0.001745,-0.604227,0.008892,-0.796763,0.043421,-0.000759,-0.012258,-42.796158,233.962021,-135.645233,,,,,,
1465846913.79,-0.652882,-0.008822,-1.464773,0.008264,-0.520630,0.002487,-0.607454,0.008822,-0.794306,0.054903,-0.001391,-0.018835,-43.307419,233.954147,-135.496460,,,,,,
1465846913.80,-0.658242,-0.008782,-1.464676,0.008098,-0.651230,0.004370,-0.611704,0.008782,-0.791038,0.059000,-0.000176,-0.019982,-43.307419,233.954147,-135.496460,,,,,,
1465846913.81,-0.665299,-0.008732,-1.464546,0.013232,-0.797767,0.008488,-0.617271,0.008731,-0.786702,0.064109,-0.000812,-0.024150,-44.271461,233.930237,-135.225922,,,,,,
1465846913.82,-0.674483,-0.008671,-1.464339,0.019372,-0.988906,0.013951,-0.624470,0.008671,-0.781001,0.087819,-0.001499,-0.029577,-44.271461,233.930237,-135.225922,,,,,,
1465846913.83,-0.686453,-0.008634,-1.464071,0.020058,-1.286220,0.019009,-0.633774,0.008634,-0.773470,0.129288,-0.001935,-0.049055,-44.271461,233.930237,-135.225922,,,,,,
1465846913.84,-0.702194,-0.008623,-1.463784,0.018508,-1.671656,0.022489,-0.645870,0.008623,-0.763399,0.159771,-0.000093,-0.061278,-48.687111,233.871872,-133.801651,,,,,,
1465846913.85,-0.721985,-0.008649,-1.463428,0.022247,-2.079402,0.029308,-0.660851,0.008649,-0.750467,0.169564,0.000155,-0.062475,-48.687111,233.871872,-133.801651,,,,,,
1465846913.86,-0.745700,-0.008644,-1.463003,0.032408,-2.469086,0.030698,-0.678461,0.008644,-0.734586,0.179331,0.002800,-0.057681,-48.687111,233.871872,-133.801651,,,,,,
1465846913.87,-0.772768,-0.008623,-1.462553,0.034147,-2.780195,0.032651,-0.698094,0.008622,-0.715954,0.143864,0.005294,-0.038501,-53.295101,233.843567,-132.084015,,,,,,
1465846913.88,-0.801984,-0.008639,-1.462056,0.031797,-2.951153,0.036914,-0.718710,0.008639,-0.695256,0.106573,0.001203,-0.015941,-53.295101,233.843567,-132.084015,,,,,,
1465846913.89,-0.831365,-0.008740,-1.461642,0.023316,-2.921418,0.036719,-0.738824,0.008740,-0.673842,0.070306,0.002231,0.006987,-53.295101,233.843567,-132.084015,,,,,,
1465846913.90,-0.860262,-0.008808,-1.461142,0.035070,-2.886387,0.037575,-0.757984,0.008807,-0.652213,0.058567,0.002179,0.018379,-67.099976,233.770981,-125.769966,,,,,,
1465846913.91,-0.889547,-0.008917,-1.460684,0.024338,-2.957517,0.035882,-0.776756,0.008917,-0.629739,0.079826,-0.003806,0.003884,-67.099976,233.770981,-125.769966,,,,,,
1465846913.92,-0.920367,-0.009084,-1.460199,0.029425,-3.129561,0.047610,-0.795791,0.009084,-0.605503,0.094711,0.000224,-0.004894,-67.099976,233.770981,-125.769966,,,,,,
1465846913.93,-0.953416,-0.009276,-1.459602,0.036567,-3.373785,0.051278,-0.815363,0.009276,-0.578876,0.137277,0.000398,-0.015148,-74.127777,233.748962,-121.802551,,,,,,
1465846913.94,-0.989577,-0.009495,-1.459091,0.026595,-3.696548,0.045841,-0.835756,0.009495,-0.549019,0.169511,0.002010,-0.034508,-74.127777,233.748962,-121.802551,,,,,,
1465846913.95,-1.028690,-0.009747,-1.458533,0.037953,-3.970513,0.052893,-0.856583,0.009746,-0.515917,0.137177,0.001255,-0.006391,-74.127777,233.748962,-121.802551,,,,,,
1465846913.96,-1.069474,-0.010034,-1.457840,0.046287,-4.105387,0.061198,-0.876904,0.010034,-0.480561,0.127636,0.001151,0.007661,-89.881439,233.756622,-110.673134,,,,,,
1465846913.97,-1.111762,-0.010307,-1.457255,0.036514,-4.280539,0.047385,-0.896433,0.010307,-0.443059,0.160044,0.004021,-0.003184,-89.881439,233.756622,-110.673134,,,,,,
1465846913.98,-1.155531,-0.010650,-1.456717,0.036356,-4.393113,0.056606,-0.914958,0.010650,-0.403410,0.081614,-0.002700,0.028165,-89.881439,233.756622,-110.673134,,,,,,
1465846913.99,-1.199437,-0.010987,-1.456051,0.052344,-4.378259,0.057593,-0.931779,0.010987,-0.362860,0.062196,0.007339,0.049185,-98.506172,233.769623,-103.042023,,,,,,
1465846914.00,-1.242612,-0.011423,-1.455453,0.037524,-4.300755,0.062415,-0.946567,0.011423,-0.322304,0.067798,-0.002771,0.030831,-98.506172,233.769623,-103.042023,,,,,,
1465846914.01,-1.285971,-0.011837,-1.454895,0.043852,-4.362319,0.054292,-0.959644,0.011837,-0.280970,0.086704,0.004109,0.034006,-98.506172,233.769623,-103.042023,,,,,,
1465846914.02,-1.329990,-0.012343,-1.454328,0.039508,-4.410133,0.067361,-0.971072,0.012342,-0.238468,0.066897,-0.003538,0.031604,-114.379333,233.858658,-84.834351,,,,,,
1465846914.03,-1.375287,-0.012864,-1.453754,0.045695,-4.578948,0.063103,-0.980868,0.012864,-0.194250,0.126025,0.005294,0.025839,-114.379333,233.858658,-84.834351,,,,,,
1465846914.04,-1.422577,-0.013455,-1.453227,0.040109,-4.784941,0.066518,-0.988946,0.013455,-0.147664,0.147698,0.003361,0.005544,-114.379333,233.858658,-84.834351,,,,,,
1465846914.05,-1.472700,-0.014071,-1.452621,0.056762,-5.085448,0.071613,-0.995094,0.014070,-0.097929,0.151115,0.008406,0.020293,-121.203918,233.939423,-74.507210,,,,,,
1465846914.06,-1.524980,-0.014777,-1.452121,0.041634,-5.253220,0.077972,-0.998842,0.014776,-0.045795,0.138292,0.001322,0.013721,-121.203918,233.939423,-74.507210,,,,,,
1465846914.07,-1.578603,-0.015553,-1.451515,0.064866,-5.413552,0.074743,-0.999849,0.015552,0.007805,0.155778,0.004299,0.053550,-121.203918,233.939423,-74.507210,,,,,,
1465846914.08,-1.634785,-0.016283,-1.451011,0.045368,-5.684293,0.073229,-0.997821,0.016282,0.063937,0.176868,0.004027,-0.003237,-133.128036,234.185669,-49.024143,,,,,,
1465846914.10,-1.750315,-0.017863,-1.450067,0.069886,-5.652466,0.078376,-0.983773,0.017862,0.178527,-0.014167,-0.010751,0.115052,-133.128036,234.185669,-49.024143,,,,,,
1465846914.09,-1.693035,-0.016965,-1.450653,0.049434,-5.849916,0.066820,-0.992395,0.016964,0.121917,0.095880,0.010700,0.073945,-133.128036,234.185669,-49.024143,,,,,,
1465846914.11,-1.803531,-0.018696,-1.449730,0.044885,-5.214985,0.073478,-0.972869,0.018695,0.230599,-0.016877,0.004163,0.118354,-137.551773,234.329697,-33.741188,,,,,,
1465846914.12,-1.853419,-0.019566,-1.449465,0.052665,-4.944247,0.078175,-0.960144,0.019565,0.278822,-0.004151,-0.004062,0.106905,-137.551773,234.329697,-33.741188,,,,,,
1465846914.13,-1.903556,-0.020436,-1.449184,0.050390,-5.064224,0.076796,-0.944947,0.020434,0.326584,0.081239,0.008161,0.053939,-137.551773,234.329697,-33.741188,,,,,,
1465846914.14,-1.956559,-0.021475,-1.449067,0.048880,-5.401905,0.089557,-0.926298,0.021473,0.376179,0.149565,-0.006794,0.028057,-140.909271,234.713715,-4.839752,,,,,,
1465846914.15,-2.015071,-0.022457,-1.448879,0.058768,-6.019859,0.085991,-0.902695,0.022455,0.429695,0.275986,0.021750,-0.007972,-140.909271,234.713715,-4.839752,,,,,,
1465846914.16,-2.080559,-0.023520,-1.448835,0.051492,-6.715357,0.097797,-0.872619,0.023518,0.487835,0.296355,0.003719,-0.011883,-140.909271,234.713715,-4.839752,,,,,,
1465846914.17,-2.152658,-0.024650,-1.448807,0.066659,-7.365174,0.096565,-0.835187,0.024647,0.549414,0.308286,0.006465,0.040751,-140.174744,234.963791,10.603455,,,,,,
1465846914.18,-2.230330,-0.026029,-1.448856,0.076614,-7.886577,0.119005,-0.790010,0.026026,0.612541,0.286211,0.003332,0.060722,-140.174744,234.963791,10.603455,,,,,,
1465846914.19,-2.312835,-0.027397,-1.449131,0.066407,-8.393036,0.116849,-0.736815,0.027394,0.675539,0.329299,0.000759,0.104552,-140.174744,234.963791,10.603455,,,,,,
1465846914.20,-2.401675,-0.028920,-1.449561,0.081498,-9.060976,0.142342,-0.673945,0.028916,0.738215,0.348139,0.003066,0.122289,-129.998901,235.621445,50.519138,,,,,,
1465846914.21,-2.498643,-0.030316,-1.450090,0.070880,-9.908253,0.133807,-0.599284,0.030311,0.799963,0.432139,0.024850,0.157618,-129.998901,235.621445,50.519138,,,,,,
1465846914.22,-2.604435,-0.031777,-1.450754,0.088960,-10.781052,0.135042,-0.511438,0.031772,0.858733,0.393914,-0.001544,0.248079,-129.998901,235.621445,50.519138,,,,,,
1465846914.23,-2.716399,-0.033270,-1.451593,0.094690,-11.285445,0.150984,-0.412269,0.033264,0.910455,0.320426,0.022827,0.329703,-117.836823,236.048157,73.247025,,,,,,
1465846914.24,-2.830979,-0.034787,-1.452621,0.107219,-11.485067,0.151184,-0.305458,0.034780,0.951570,0.248925,0.009318,0.435378,-117.836823,236.048157,73.247025,,,,,,
1465846914.25,-2.946416,-0.036133,-1.453848,0.097547,-11.556204,0.151620,-0.193813,0.036126,0.980373,0.209179,0.002586,0.477513,-117.836823,236.048157,73.247025,,,,,,
1465846914.26,-3.062778,-0.037406,-1.455173,0.115526,-11.654958,0.151193,-0.078678,0.037397,0.996198,0.161930,0.014025,0.541109,-73.382721,236.983871,115.857613,,,,,,
1465846914.27,3.103232,-0.038553,-1.456654,0.107989,-11.721848,0.151605,0.038323,0.038543,0.998522,0.131355,0.003815,0.554182,-73.382721,236.983871,115.857613,,,,,,
1465846914.28,2.986122,-0.039458,-1.458298,0.109092,-11.693176,0.150362,0.154725,0.039448,0.987170,0.172836,0.011593,0.588880,-73.382721,236.983871,115.857613,,,,,,
1465846914.29,2.870058,-0.040304,-1.459928,0.118864,-11.551936,0.140972,0.267992,0.040293,0.962578,0.075117,0.002188,0.608497,-43.949821,237.430542,129.091141,,,,,,
1465846914.30,2.756632,-0.040952,-1.461555,0.107568,-11.234428,0.130453,0.375208,0.040941,0.926036,-0.049418,0.012694,0.602376,-43.949821,237.430542,129.091141,,,,,,
1465846914.31,2.649392,-0.041329,-1.463287,0.113750,-10.527308,0.139863,0.472163,0.041317,0.880543,-0.083033,0.014042,0.563977,-43.949821,237.430542,129.091141,,,,,,
1465846914.32,2.549556,-0.041711,-1.464967,0.113651,-9.785061,0.118176,0.557567,0.041699,0.829084,-0.172481,0.002307,0.530764,18.136551,238.101807,133.970016,,,,,,
1465846914.33,2.457661,-0.041724,-1.466342,0.080593,-8.978071,0.112018,0.631295,0.041712,0.774420,-0.272775,0.015005,0.481714,18.136551,238.101807,133.970016,,,,,,
1465846914.34,2.374952,-0.041751,-1.467848,0.105248,-8.002278,0.102729,0.693115,0.041738,0.719618,-0.358841,0.001215,0.451189,18.136551,238.101807,133.970016,,,,,,
1465846914.35,2.303804,-0.041671,-1.469093,0.071636,-6.788617,0.094020,0.742520,0.041659,0.668527,-0.424237,0.001355,0.398917,43.821033,238.295212,127.532257,,,,,,
1465846914.36,2.245777,-0.041453,-1.470096,0.065865,-5.465576,0.074007,0.780049,0.041441,0.624345,-0.452656,0.002611,0.323821,43.821033,238.295212,127.532257,,,,,,
1465846914.37,2.201339,-0.041355,-1.470951,0.058011,-4.104311,0.054817,0.807017,0.041344,0.589079,-0.504862,-0.005165,0.302675,43.821033,238.295212,127.532257,,,,,,
1465846914.38,2.170035,-0.041211,-1.471517,0.034105,-2.797208,0.042338,0.825064,0.041200,0.563535,-0.521857,0.002959,0.242052,75.418694,238.460693,111.435577,,,,,,
1465846914.39,2.152523,-0.041076,-1.471919,0.022025,-1.403037,0.027196,0.834810,0.041064,0.549004,-0.490892,0.003980,0.221382,75.418694,238.460693,111.435577,,,,,,
1465846914.40,2.148137,-0.041063,-1.472092,0.007688,-0.122458,0.005312,0.837211,0.041051,0.545338,-0.490821,0.000514,0.180691,75.418694,238.460693,111.435577,,,,,,
1465846914.41,2.156259,-0.041029,-1.471952,-0.017365,1.117756,-0.007813,0.832755,0.041018,0.552120,-0.475181,-0.001116,0.199437,80.944778,238.469269,107.469612,,,,,,
1465846914.42,2.176316,-0.041124,-1.471711,-0.014796,2.298511,-0.026925,0.821511,0.041112,0.568708,-0.441277,0.001063,0.183596,80.944778,238.469269,107.469612,,,,,,
1465846914.43,2.208218,-0.041271,-1.471175,-0.042033,3.482471,-0.047151,0.802949,0.041259,0.594618,-0.442902,-0.003860,0.221941,80.944778,238.469269,107.469612,,,,,,
1465846914.44,2.252015,-0.041394,-1.470488,-0.045866,4.672751,-0.053555,0.776141,0.041382,0.629200,-0.377123,-0.003021,0.226970,74.697357,238.460220,111.921417,,,,,,
1465846914.45,2.307269,-0.041535,-1.469593,-0.064670,5.790871,-0.072295,0.740203,0.041524,0.671100,-0.312728,-0.001210,0.256894,74.697357,238.460220,111.921417,,,,,,
1465846914.46,2.372298,-0.041634,-1.468491,-0.073069,6.723158,-0.085602,0.695026,0.041622,0.717779,-0.271198,0.004490,0.284007,74.697357,238.460220,111.921417,,,,,,
1465846914.47,2.446024,-0.041697,-1.467284,-0.078375,7.578987,-0.095232,0.640265,0.041685,0.767022,-0.214652,0.001146,0.324332,62.971317,238.421494,118.992317,,,,,,
1465846914.48,2.527921,-0.041586,-1.465969,-0.091221,8.371100,-0.101277,0.575375,0.041574,0.816832,-0.109418,0.008673,0.344163,62.971317,238.421494,118.992317,,,,,,
1465846914.49,2.616310,-0.041401,-1.464586,-0.088345,8.963591,-0.107119,0.501028,0.041389,0.864441,-0.031912,0.009591,0.356766,62.971317,238.421494,118.992317,,,,,,
1465846914.50,2.708819,-0.041095,-1.463206,-0.092162,9.313992,-0.110385,0.419036,0.041084,0.907040,0.077195,0.005654,0.352192,22.809525,238.172104,133.128296,,,,,,
1465846914.51,2.803125,-0.040633,-1.461767,-0.096246,9.441430,-0.118640,0.331768,0.040622,0.942486,0.144902,0.006298,0.353916,22.809525,238.172104,133.128296,,,,,,
1465846914.52,2.897457,-0.040113,-1.460467,-0.084592,9.413785,-0.106746,0.241524,0.040102,0.969566,0.220986,0.006834,0.338845,22.809525,238.172104,133.128296,,,,,,
1465846914.53,2.990777,-0.039501,-1.459206,-0.084742,9.284263,-0.112320,0.150128,0.039491,0.987878,0.297001,0.008757,0.308448,-2.869610,237.941528,135.443573,,,,,,
1465846914.54,3.081284,-0.038807,-1.458039,-0.078790,8.941288,-0.106970,0.060227,0.038798,0.997430,0.367996,0.006231,0.250540,-2.869610,237.941528,135.443573,,,,,,
1465846914.55,-3.116532,-0.038092,-1.456917,-0.072027,8.377491,-0.111943,-0.025039,0.038083,0.998961,0.386566,0.008319,0.214052,-2.869610,237.941528,135.443573,,,,,,
1465846914.56,-3.037433,-0.037391,-1.456003,-0.060078,7.745663,-0.089873,-0.103899,0.037382,0.993885,0.416735,0.008516,0.155117,-51.984684,237.384674,126.156532,,,,,,
1465846914.57,-2.964732,-0.036691,-1.455235,-0.058765,7.094777,-0.085789,-0.175821,0.036683,0.983738,0.480921,0.007156,0.101360,-51.984684,237.384674,126.156532,,,,,,
1465846914.58,-2.900249,-0.035981,-1.454523,-0.053487,6.214531,-0.077070,-0.238853,0.035973,0.970389,0.479301,0.001869,0.029656,-51.984684,237.384674,126.156532,,,,,,
1465846914.59,-2.845592,-0.035377,-1.454004,-0.038793,5.202613,-0.066451,-0.291514,0.035370,0.955912,0.511531,0.006363,-0.023906,-70.907715,237.123550,117.106316,,,,,,
1465846914.60,-2.801606,-0.034901,-1.453559,-0.027390,4.117427,-0.053247,-0.333271,0.034894,0.942185,0.531635,-0.000745,-0.092484,-70.907715,237.123550,117.106316,,,,,,
1465846914.61,-2.768979,-0.034491,-1.453258,-0.028836,2.974910,-0.039697,-0.363835,0.034484,0.930825,0.552479,0.005540,-0.130593,-70.907715,237.123550,117.106316,,,,,,
1465846914.62,-2.748227,-0.034239,-1.453021,-0.010123,1.769746,-0.028926,-0.383075,0.034232,0.923083,0.530063,0.006143,-0.168383,-92.950104,236.744247,101.399254,,,,,,
1465846914.63,-2.739300,-0.034161,-1.452920,-0.004151,0.611278,-0.007817,-0.391300,0.034155,0.919629,0.517231,0.002375,-0.179456,-92.950104,236.744247,101.399254,,,,,,
1465846914.64,-2.741550,-0.034149,-1.452915,0.001899,-0.504686,0.001317,-0.389231,0.034142,0.920507,0.498728,0.004600,-0.184072,-92.950104,236.744247,101.399254,,,,,,
1465846914.65,-2.754943,-0.034321,-1.453001,0.013268,-1.612179,0.017854,-0.376866,0.034314,0.925632,0.470051,0.005496,-0.176242,-96.020905,236.685181,98.638084,,,,,,
1465846914.66,-2.778795,-0.034571,-1.453187,0.018362,-2.633653,0.030652,-0.354679,0.034564,0.934349,0.436390,0.001248,-0.138939,-96.020905,236.685181,98.638084,,,,,,
1465846914.67,-2.812157,-0.034978,-1.453487,0.032088,-3.559579,0.046053,-0.323311,0.034971,0.945646,0.413399,0.006014,-0.120039,-96.020905,236.685181,98.638084,,,,,,
1465846914.68,-2.854119,-0.035467,-1.453884,0.035283,-4.404781,0.053486,-0.283352,0.035460,0.958360,0.399944,0.004961,-0.071306,-88.398788,236.818085,105.224625,,,,,,
1465846914.69,-2.904401,-0.036012,-1.454360,0.042763,-5.222391,0.065008,-0.234822,0.036004,0.971371,0.353352,-0.001169,-0.028760,-88.398788,236.818085,105.224625,,,,,,
1465846914.70,-2.961934,-0.036619,-1.454936,0.049352,-5.914684,0.067227,-0.178574,0.036611,0.983245,0.327637,0.010447,0.018510,-88.398788,236.818085,105.224625,,,,,,
1465846914.71,-3.025122,-0.037274,-1.455625,0.057191,-6.437127,0.082220,-0.116126,0.037266,0.992535,0.271308,-0.004063,0.072925,-78.075378,236.993668,112.728020,,,,,,
1465846914.72,-3.092683,-0.037896,-1.456370,0.052441,-6.839530,0.078353,-0.048855,0.037887,0.998087,0.227306,0.011933,0.120916,-78.075378,236.993668,112.728020,,,,,,
1465846914.73,3.119862,-0.038477,-1.457214,0.060587,-7.130477,0.083379,0.021713,0.038468,0.999024,0.171891,0.012146,0.153091,-78.075378,236.993668,112.728020,,,,,,
1465846914.74,3.047395,-0.039084,-1.458194,0.067845,-7.267486,0.095954,0.093986,0.039074,0.994806,0.132088,0.002903,0.200506,-45.960117,237.448196,128.356506,,,,,,
1465846914.75,2.974014,-0.039639,-1.459169,0.066694,-7.348162,0.089008,0.166664,0.039629,0.985217,0.089256,0.004118,0.207013,-45.960117,237.448196,128.356506,,,,,,
1465846914.76,2.900473,-0.040098,-1.460164,0.066708,-7.338603,0.087884,0.238598,0.040088,0.970291,0.019596,0.005979,0.239121,-45.960117,237.448196,128.356506,,,,,,
1465846914.77,2.828507,-0.040537,-1.461205,0.071234,-7.124123,0.087607,0.307743,0.040525,0.950606,-0.034153,-0.000975,0.259050,-26.416485,237.690811,133.321487,,,,,,
1465846914.78,2.759877,-0.040894,-1.462198,0.065316,-6.760963,0.077873,0.372202,0.040882,0.927251,-0.091639,0.003765,0.259074,-26.416485,237.690811,133.321487,,,,,,
1465846914.79,2.695749,-0.041148,-1.463189,0.062711,-6.284224,0.079138,0.430854,0.041136,0.901484,-0.136848,0.003374,0.256063,-26.416485,237.690811,133.321487,,,,,,
1465846914.80,2.636855,-0.041336,-1.464100,0.058074,-5.743752,0.071486,0.483164,0.041324,0.874554,-0.173533,0.004361,0.244846,11.906792,238.074203,134.715515,,,,,,
1465846914.81,2.583774,-0.041478,-1.464933,0.052438,-5.154431,0.061398,0.528881,0.041467,0.847682,-0.224819,0.005775,0.221989,11.906792,238.074203,134.715515,,,,,,
1465846914.82,2.537531,-0.041547,-1.465660,0.043768,-4.430272,0.054718,0.567500,0.041535,0.822325,-0.277598,-0.001664,0.220552,11.906792,238.074203,134.715515,,,,,,
1465846914.83,2.499599,-0.041594,-1.466259,0.037408,-3.561708,0.047136,0.598275,0.041582,0.800211,-0.326104,0.000151,0.202215,27.186306,238.198196,132.256882,,,,,,
1465846914.84,2.470968,-0.041620,-1.466766,0.032199,-2.631548,0.034910,0.620937,0.041608,0.782755,-0.329769,0.001895,0.180883,27.186306,238.198196,132.256882,,,,,,
1465846914.85,2.451297,-0.041636,-1.467120,0.020544,-1.749164,0.021914,0.636213,0.041624,0.770390,-0.336668,-0.001783,0.159878,27.186306,238.198196,132.256882,,,,,,
1465846914.86,2.440263,-0.041643,-1.467296,0.009931,-0.880589,0.011133,0.644675,0.041631,0.763322,-0.361319,-0.001408,0.146483,44.783859,238.320175,127.150558,,,,,,
1465846914.87,2.438552,-0.041651,-1.467363,0.003682,0.073984,0.001947,0.645980,0.041639,0.762218,-0.365020,-0.000990,0.142949,44.783859,238.320175,127.150558,,,,,,
1465846914.88,2.446837,-0.041660,-1.467250,-0.009946,1.079542,-0.012889,0.639642,0.041648,0.767544,-0.344110,-0.010886,0.140522,44.783859,238.320175,127.150558,,,,,,
1465846914.89,2.464947,-0.041713,-1.466984,-0.014035,2.048996,-0.028553,0.625636,0.041700,0.779000,-0.297115,-0.042631,0.151298,46.441246,238.333374,126.529770,,,,,,
1465846914.90,2.491267,-0.041947,-1.466468,-0.013050,2.792331,-0.059825,0.604913,0.041935,0.795187,-0.253304,0.007763,0.129770,46.441246,238.333374,126.529770,,,,,,
1465846914.91,2.523387,-0.041976,-1.465939,-0.034773,3.338041,-0.038787,0.579064,0.041964,0.814202,-0.258751,0.054823,0.109092,46.441246,238.333374,126.529770,,,,,,
1465846914.92,2.561366,-0.041777,-1.465453,-0.047844,3.972971,-0.030009,0.547735,0.041765,0.835608,-0.226538,0.043577,0.099542,35.239540,238.308289,130.141083,,,,,,
1465846914.93,2.607199,-0.041497,-1.464829,-0.061715,4.785281,-0.043632,0.508881,0.041485,0.859837,-0.149384,-0.007184,0.143795,35.239540,238.308289,130.141083,,,,,,
1465846914.94,2.659594,-0.041269,-1.463992,-0.056708,5.351272,-0.066337,0.463156,0.041257,0.885316,-0.077094,-0.028776,0.178664,35.239540,238.308289,130.141083,,,,,,
1465846914.95,2.714639,-0.041152,-1.463151,-0.049022,5.538142,-0.066437,0.413749,0.041141,0.909461,-0.042091,0.006955,0.120996,24.058178,238.195755,132.865906,,,,,,
1465846914.96,2.771373,-0.040848,-1.462298,-0.061578,5.712287,-0.068606,0.361519,0.040837,0.931470,0.007713,0.021251,0.130908,24.058178,238.195755,132.865906,,,,,,
1465846914.97,2.830506,-0.040466,-1.461460,-0.065513,5.980908,-0.063908,0.305843,0.040455,0.951222,0.044163,-0.001255,0.149593,24.058178,238.195755,132.865906,,,,,,
1465846914.98,2.891274,-0.040094,-1.460619,-0.055793,6.075430,-0.074071,0.247514,0.040083,0.968055,0.113601,-0.013990,0.153085,-6.632195,237.905655,135.374588,,,,,,
1465846914.99,2.951160,-0.039755,-1.459790,-0.049570,5.941642,-0.074291,0.189134,0.039745,0.981147,0.153197,-0.026546,0.139444,-6.632195,237.905655,135.374588,,,,,,
1465846915.00,3.009059,-0.039466,-1.458999,-0.039179,5.733530,-0.075104,0.132043,0.039456,0.990458,0.206473,-0.007305,0.115209,-6.632195,237.905655,135.374588,,,,,,
1465846915.02,3.115378,-0.038849,-1.457562,-0.049672,5.026341,-0.058970,0.026192,0.038839,0.998902,0.266487,0.038951,0.002303,-23.226746,237.735413,133.834824,,,,,,
1465846915.01,3.064248,-0.039232,-1.458216,-0.032104,5.431974,-0.073206,0.077208,0.039222,0.996243,0.244280,0.013375,0.065326,-23.226746,237.735413,133.834824,,,,,,
1465846915.03,-3.120886,-0.038312,-1.456911,-0.053419,4.574036,-0.063588,-0.020690,0.038303,0.999052,0.274291,0.041302,0.004381,-23.226746,237.735413,133.834824,,,,,,
1465846915.04,-3.078191,-0.037879,-1.456509,-0.036949,4.159860,-0.037557,-0.063314,0.037870,0.997275,0.281423,-0.005522,0.010721,-51.435276,237.412445,126.329376,,,,,,
1465846915.05,-3.040738,-0.037478,-1.456009,-0.034436,3.581237,-0.056279,-0.100613,0.037469,0.994220,0.324307,-0.006891,-0.004245,-51.435276,237.412445,126.329376,,,,,,
1465846915.06,-3.010224,-0.037240,-1.455708,-0.017272,2.878239,-0.024177,-0.130901,0.037231,0.990696,0.319301,-0.023879,-0.053135,-51.435276,237.412445,126.329376,,,,,,
1465846915.08,-2.970693,-0.036936,-1.455207,-0.006363,1.385344,-0.016932,-0.169953,0.036927,0.984760,0.349533,-0.004487,-0.124531,-61.612915,237.262024,121.983406,,,,,,
1465846915.07,-2.986560,-0.037056,-1.455431,-0.014911,2.188110,-0.035813,-0.154307,0.037047,0.987328,0.370005,0.008576,-0.074471,-61.612915,237.262024,121.983406,,,,,,
1465846915.09,-2.962292,-0.036825,-1.455105,-0.008331,0.663322,-0.013470,-0.178221,0.036816,0.983302,0.349607,0.014652,-0.105967,-61.612915,237.262024,121.983406,,,,,,
1465846915.10,-2.960768,-0.036848,-1.455024,0.007836,-0.022622,-0.004894,-0.179719,0.036840,0.983028,0.319108,0.003046,-0.113582,-71.217392,237.134216,116.896576,,,,,,
1465846915.11,-2.965494,-0.036845,-1.455079,-0.004630,-0.609817,0.007292,-0.175071,0.036837,0.983867,0.299354,0.007886,-0.103877,-71.217392,237.134216,116.896576,,,,,,
1465846915.12,-2.976429,-0.036958,-1.455164,0.014786,-1.257529,0.012438,-0.164301,0.036950,0.985718,0.280055,0.007636,-0.111481,-70.847893,237.135590,117.118118,,,,,,
1465846915.13,-2.993464,-0.037100,-1.455355,0.007650,-1.841538,0.023544,-0.147486,0.037092,0.988368,0.266154,0.005999,-0.096660,-70.847893,237.135590,117.118118,,,,,,
1465846915.14,-3.016118,-0.037293,-1.455572,0.022908,-2.411731,0.026071,-0.125059,0.037285,0.991449,0.252485,0.008263,-0.074334,-70.847893,237.135590,117.118118,,,,,,
1465846915.15,-3.044171,-0.037565,-1.455893,0.019062,-2.923532,0.034599,-0.097199,0.037557,0.994556,0.231873,-0.000462,-0.072223,-70.847893,237.135590,117.118118,,,,,,
1465846915.16,-3.076515,-0.037785,-1.456226,0.024942,-3.327023,0.038200,-0.064985,0.037776,0.997171,0.181364,-0.008891,-0.011957,-61.218739,237.267471,122.171120,,,,,,
1465846915.17,-3.112104,-0.038235,-1.456693,0.044777,-3.626488,0.049678,-0.029463,0.038226,0.998835,0.168425,-0.012210,-0.010218,-61.218739,237.267471,122.171120,,,,,,
1465846915.18,3.132405,-0.038546,-1.457074,0.026304,-3.946043,0.037826,0.009180,0.038536,0.999215,0.156545,0.007271,0.009101,-52.593903,237.391983,125.890022,,,,,,
1465846915.19,3.090998,-0.038922,-1.457642,0.044060,-4.187140,0.060645,0.050535,0.038912,0.997964,0.095049,0.013609,0.015738,-52.593903,237.391983,125.890022,,,,,,
1465846915.20,3.048289,-0.039264,-1.458210,0.033297,-4.297530,0.049617,0.093097,0.039254,0.994883,0.107846,0.022407,0.037115,-52.593903,237.391983,125.890022,,,,,,
1465846915.21,3.004129,-0.039497,-1.458798,0.030959,-4.450452,0.059090,0.136924,0.039487,0.989794,0.064980,0.004611,0.046949,-42.142612,237.525620,129.518158,,,,,,
1465846915.22,2.959012,-0.039814,-1.459443,0.045790,-4.517341,0.055266,0.181424,0.039803,0.982599,0.038791,-0.013390,0.089422,-42.142612,237.525620,129.518158,,,,,,
1465846915.23,2.913820,-0.040174,-1.460046,0.045818,-4.498223,0.053017,0.225626,0.040163,0.973386,-0.007884,-0.006945,0.094653,-42.142612,237.525620,129.518158,,,,,,
1465846915.24,2.869972,-0.040445,-1.460650,0.040708,-4.334691,0.047729,0.268073,0.040434,0.962550,-0.041847,-0.001509,0.109640,-18.178726,237.800873,134.497742,,,,,,
1465846915.25,2.828620,-0.040684,-1.461258,0.039975,-4.055463,0.055557,0.307633,0.040673,0.950635,-0.090562,0.009147,0.106371,-18.178726,237.800873,134.497742,,,,,,
1465846915.26,2.790239,-0.040898,-1.461809,0.037167,-3.765557,0.042027,0.343881,0.040887,0.938123,-0.103525,0.005790,0.124164,-18.178726,237.800873,134.497742,,,,,,
1465846915.27,2.755247,-0.041040,-1.462322,0.029090,-3.405616,0.045084,0.376489,0.041029,0.925512,-0.145501,0.007296,0.113886,-18.178726,237.800873,134.497742,,,,,,
1465846915.28,2.724194,-0.041137,-1.462850,0.028543,-2.994698,0.040378,0.405041,0.041125,0.913373,-0.153896,0.016126,0.099520,3.698666,238.019501,135.286407,,,,,,
1465846915.29,2.697672,-0.041171,-1.463240,0.016350,-2.538102,0.032180,0.429120,0.041160,0.902309,-0.165875,0.001946,0.111454,3.698666,238.019501,135.286407,,,,,,
1465846915.30,2.675813,-0.041178,-1.463595,0.015887,-2.052866,0.032330,0.448739,0.041167,0.892714,-0.186791,0.002443,0.089677,3.698666,238.019501,135.286407,,,,,,
1465846915.31,2.659219,-0.041230,-1.463847,0.018657,-1.561219,0.017540,0.463489,0.041218,0.885144,-0.182987,-0.008564,0.104450,11.656052,238.079559,134.727951,,,,,,
1465846915.32,2.647403,-0.041240,-1.464054,0.009709,-1.051555,0.016464,0.473916,0.041228,0.879605,-0.197152,-0.005309,0.091465,11.656052,238.079559,134.727951,,,,,,
1465846915.33,2.640932,-0.041263,-1.464171,0.007204,-0.512141,0.006692,0.479597,0.041251,0.876519,-0.186994,-0.007956,0.088478,11.656052,238.079559,134.727951,,,,,,
1465846915.34,2.639551,-0.041325,-1.464218,0.004645,-0.010960,0.000353,0.480805,0.041313,0.875854,-0.181474,-0.002342,0.071549,19.456345,238.135117,133.725418,,,,,,
1465846915.35,2.654053,-0.041388,-1.463699,-0.004327,0.469045,-0.006925,0.468052,0.041377,0.882731,-0.164128,0.000310,0.065251,19.456345,238.135117,133.725418,,,,,,
1465846915.36,2.662238,-0.041383,-1.463581,-0.006937,0.931998,-0.011960,0.460812,0.041371,0.886533,-0.153469,0.007396,0.055667,19.456345,238.135117,133.725418,,,,,,
1465846915.37,2.673809,-0.040579,-1.465078,0.001161,1.152949,0.335802,0.450538,0.040568,0.891835,-0.141639,0.008108,0.040813,17.589622,238.128815,133.994934,,,,,,
1465846915.38,2.655107,-0.038854,-1.468473,-0.039730,-3.708554,0.194874,0.467169,0.038844,0.883314,2.093103,-0.027568,-0.890532,17.589622,238.128815,133.994934,,,,,,
1465846915.39,2.553362,-0.036001,-1.463817,-0.641384,-11.506631,-0.347589,0.554530,0.035993,0.831385,1.994832,0.253115,-1.181116,17.589622,238.128815,133.994934,,,,,,
1465846915.40,2.463217,-0.035879,-1.461304,0.129183,-7.038686,-0.085311,0.627125,0.035872,0.778092,-2.784230,-0.173521,1.338622,31.703255,237.448715,132.598526,,,,,,
1465846915.41,2.493007,-0.039880,-1.469090,0.821246,6.600372,0.403578,0.603579,0.039870,0.796305,-3.067218,-0.030211,1.982915,31.703255,237.448715,132.598526,,,,,,
1465846915.42,2.616414,-0.038990,-1.466793,-0.509615,13.116158,-0.372020,0.500986,0.038980,0.864577,0.766409,-0.089121,0.143098,31.703255,237.448715,132.598526,,,,,,
1465846915.43,2.705522,-0.037848,-1.461354,-0.174045,6.514677,-0.300478,0.422078,0.037839,0.905769,1.265345,-0.075711,-0.530174,40.059155,238.188583,128.960571,,,,,,
1465846915.44,2.704783,-0.039308,-1.463136,0.268616,-1.542560,0.156050,0.422724,0.039297,0.905406,0.239065,-0.005392,-0.381267,40.059155,238.188583,128.960571,,,,,,
1465846915.45,2.686038,-0.040527,-1.464100,0.080443,-1.602493,-0.023653,0.439599,0.040516,0.897280,0.937858,-0.028706,-0.210741,40.059155,238.188583,128.960571,,,,,,
1465846915.46,2.677251,-0.039877,-1.463276,-0.133549,-0.740199,-0.030339,0.447479,0.039866,0.893406,0.452592,0.047292,-0.311542,13.469112,238.038589,134.631302,,,,,,
1465846915.47,2.668114,-0.039206,-1.463285,-0.006293,-1.014440,0.055599,0.455635,0.039196,0.889303,-0.223396,0.004108,-0.000769,13.469112,238.038589,134.631302,,,,,,
1465846915.48,2.658091,-0.039768,-1.464792,0.137437,-0.909586,0.125339,0.464514,0.039757,0.884673,-0.281989,0.006675,0.173173,13.469112,238.038589,134.631302,,,,,,
1465846915.49,2.651524,-0.039916,-1.465323,-0.025877,-0.609692,-0.016148,0.470311,0.039906,0.881598,0.256358,0.114483,-0.124777,15.855122,237.832321,134.735916,,,,,,
1465846915.50,2.645107,-0.038956,-1.464413,-0.121726,-0.621336,-0.011913,0.475977,0.038946,0.878595,0.037863,0.067987,-0.130823,15.855122,237.832321,134.735916,,,,,,
1465846915.51,2.643575,-0.039177,-1.465057,0.101511,0.060028,0.057484,0.477318,0.039167,0.877857,-0.296990,-0.012525,0.170986,15.855122,237.832321,134.735916,,,,,,
1465846915.52,2.648334,-0.039362,-1.465352,-0.022367,0.520014,-0.005134,0.473132,0.039352,0.880112,-0.010180,-0.069976,0.078536,19.520409,237.912125,134.112427,,,,,,
1465846915.53,2.650002,-0.038633,-1.464987,-0.065637,0.006074,0.016142,0.471676,0.038624,0.880925,0.072574,-0.042149,-0.058706,19.520409,237.912125,134.112427,,,,,,
1465846915.54,2.646974,-0.038856,-1.465338,0.059527,-0.371991,0.018638,0.474338,0.038846,0.879486,0.064023,-0.044584,-0.029037,19.520409,237.912125,134.112427,,,,,,
1465846915.55,2.643299,-0.038894,-1.465424,-0.025544,-0.321982,-0.004114,0.477566,0.038884,0.877735,0.053623,-0.005193,-0.019550,18.704849,237.839645,134.356979,,,,,,
1465846915.56,2.642342,-0.038649,-1.465233,-0.014504,0.002904,0.001310,0.478410,0.038639,0.877286,-0.072923,0.004207,0.029086,18.704849,237.839645,134.356979,,,,,,
1465846915.57,2.645859,-0.038845,-1.465403,0.024393,0.461571,0.002730,0.475319,0.038835,0.878956,-0.099434,0.047346,0.018993,18.704849,237.839645,134.356979,,,,,,
1465846915.58,2.652052,-0.038610,-1.465145,-0.054139,0.640040,-0.015499,0.469870,0.038600,0.881891,-0.020071,0.035954,-0.018503,19.322239,237.886063,134.187347,,,,,,
1465846915.59,2.658298,-0.038204,-1.464913,-0.027609,0.601747,0.004993,0.464360,0.038195,0.884822,-0.026677,0.011961,-0.008556,19.322239,237.886063,134.187347,,,,,,
1465846915.60,2.663288,-0.038139,-1.464991,-0.007568,0.456261,0.009118,0.459940,0.038130,0.887131,0.038412,0.000292,-0.034455,19.322239,237.886063,134.187347,,,,,,
1465846915.61,2.666175,-0.037657,-1.464826,-0.062127,0.246060,0.007189,0.457385,0.037648,0.888471,0.081967,-0.001012,-0.055754,17.621742,237.781509,134.606064,,,,,,
1465846915.62,2.668431,-0.037295,-1.464764,-0.017435,0.234340,0.013694,0.455386,0.037286,0.889513,0.020154,-0.018076,-0.004213,17.621742,237.781509,134.606064,,,,,,
1465846915.63,2.671714,-0.037201,-1.464930,-0.003444,0.358555,0.016122,0.452465,0.037193,0.891006,-0.000088,-0.011238,0.020294,17.621742,237.781509,134.606064,,,,,,
1465846915.64,2.675143,-0.036977,-1.464873,-0.025822,0.321441,0.002495,0.449410,0.036969,0.892560,0.051658,-0.010586,-0.006849,15.925777,237.654465,135.041107,,,,,,
1465846915.65,2.677272,-0.036916,-1.464830,0.000618,0.170667,-0.001856,0.447511,0.036908,0.893517,0.064773,-0.001843,-0.026054,15.925777,237.654465,135.041107,,,,,,
1465846915.66,2.674837,-0.037564,-1.464996,0.002585,0.050649,0.005286,0.449674,0.037555,0.892403,0.038958,0.008786,-0.028710,15.925777,237.654465,135.041107,,,,,,
1465846915.67,2.674907,-0.037462,-1.465030,-0.009203,-0.009868,0.005654,0.449614,0.037453,0.892438,0.045763,0.004570,-0.032910,15.184727,237.613373,135.198654,,,,,,
1465846915.68,2.670576,-0.037401,-1.465215,-0.005069,-0.103337,0.010502,0.453475,0.037393,0.890484,0.042100,0.000220,-0.037014,15.184727,237.613373,135.198654,,,,,,
1465846915.69,2.668837,-0.037331,-1.465332,0.000137,-0.191478,0.014254,0.455024,0.037323,0.889696,0.028618,-0.004150,-0.013522,15.184727,237.613373,135.198654,,,,,,
1465846915.70,2.664949,-0.037029,-1.465521,-0.000974,-0.228649,0.014486,0.458485,0.037021,0.887931,0.024258,-0.003757,-0.009162,16.383240,237.689880,134.923981,,,,,,
1465846915.71,2.662520,-0.036959,-1.465624,-0.000996,-0.250938,0.011432,0.460641,0.036950,0.886817,0.026129,-0.002786,-0.015922,16.383240,237.689880,134.923981,,,,,,
1465846915.72,2.659395,-0.036908,-1.465744,0.002088,-0.333769,0.015148,0.463411,0.036900,0.885375,0.026839,0.002117,-0.018386,16.383240,237.689880,134.923981,,,,,,
1465846915.73,2.653012,-0.037265,-1.465973,0.006218,-0.442077,0.012638,0.469047,0.037256,0.882387,0.028146,0.006232,-0.026415,17.336098,237.655975,134.864609,,,,,,
1465846915.74,2.646273,-0.037281,-1.466203,0.002921,-0.517483,0.017366,0.474982,0.037272,0.879206,0.022866,0.000921,-0.020304,17.336098,237.655975,134.864609,,,,,,
1465846915.75,2.640075,-0.037302,-1.466356,0.000755,-0.553575,0.013333,0.480422,0.037294,0.876244,0.008012,0.001494,-0.012322,17.336098,237.655975,134.864609,,,,,,
1465846915.76,2.634423,-0.037031,-1.466489,0.002883,-0.556759,0.012290,0.485372,0.037023,0.873523,-0.001470,-0.004720,0.000485,20.467979,237.733978,134.286972,,,,,,
1465846915.77,2.629007,-0.036570,-1.466615,0.006085,-0.549328,0.012246,0.490104,0.036562,0.870897,-0.004112,-0.009309,0.002486,20.467979,237.733978,134.286972,,,,,,
1465846915.78,2.623504,-0.036336,-1.466764,0.010351,-0.547201,0.010108,0.494894,0.036328,0.868194,-0.002813,-0.006086,-0.001800,20.467979,237.733978,134.286972,,,,,,
1465846915.79,2.617403,-0.036462,-1.466940,0.012444,-0.572693,0.012399,0.500179,0.036454,0.865154,0.002400,0.001617,-0.014538,22.090683,237.652481,134.174011,,,,,,
1465846915.80,2.610879,-0.036586,-1.467120,0.010282,-0.602419,0.010455,0.505811,0.036578,0.861869,0.007129,0.001996,-0.014991,22.090683,237.652481,134.174011,,,,,,
1465846915.81,2.604551,-0.036453,-1.467268,0.012370,-0.633216,0.011714,0.511256,0.036444,0.858655,-0.004970,-0.005423,-0.005750,22.090683,237.652481,134.174011,,,,,,
1465846915.82,2.598195,-0.036491,-1.467457,0.018756,-0.638522,0.009625,0.516703,0.036483,0.855387,-0.006312,-0.001967,-0.004343,25.509407,237.667847,133.538895,,,,,,
1465846915.83,2.591375,-0.036517,-1.467680,0.018740,-0.648086,0.011814,0.522524,0.036508,0.851842,0.003950,-0.002878,-0.007284,25.509407,237.667847,133.538895,,,,,,
1465846915.84,2.584902,-0.036846,-1.467799,0.013419,-0.658680,0.004424,0.528021,0.036838,0.848432,-0.009634,0.009274,-0.003233,25.509407,237.667847,133.538895,,,,,,
1465846915.85,2.578380,-0.037224,-1.467948,0.020852,-0.669310,0.007691,0.533535,0.037215,0.844959,-0.024029,0.015199,-0.006931,27.340275,237.695129,133.127380,,,,,,
1465846915.86,2.571858,-0.037397,-1.468142,0.014486,-0.643838,0.012848,0.539031,0.037388,0.841455,-0.016189,0.008891,-0.027613,27.340275,237.695129,133.127380,,,,,,
1465846915.87,2.565585,-0.037212,-1.468330,0.007043,-0.626860,0.018056,0.544303,0.037203,0.838063,-0.011833,-0.008303,-0.007207,27.340275,237.695129,133.127380,,,,,,
1465846915.88,2.559394,-0.036995,-1.468514,0.010217,-0.642788,0.018159,0.549485,0.036987,0.834684,-0.018739,-0.009750,-0.005705,30.800438,237.813934,132.156097,,,,,,
1465846915.89,2.553021,-0.036987,-1.468733,0.011298,-0.631106,0.017022,0.554794,0.036978,0.831166,-0.008651,-0.004248,0.000271,30.800438,237.813934,132.156097,,,,,,
1465846915.90,2.546734,-0.036981,-1.468915,0.009179,-0.626851,0.014865,0.560009,0.036973,0.827661,-0.021252,0.004043,-0.006662,30.800438,237.813934,132.156097,,,,,,
1465846915.91,2.540504,-0.036935,-1.469108,0.004916,-0.619434,0.021201,0.565155,0.036927,0.824158,-0.032577,0.011978,-0.002396,32.565708,237.803726,131.750641,,,,,,
1465846915.92,2.534281,-0.036913,-1.469400,0.009151,-0.623710,0.030812,0.570273,0.036905,0.820626,-0.017630,0.003180,-0.020134,32.565708,237.803726,131.750641,,,,,,
1465846915.93,2.527872,-0.036777,-1.469708,0.005919,-0.650259,0.033104,0.575524,0.036768,0.816958,0.001472,-0.014506,-0.020327,32.565708,237.803726,131.750641,,,,,,
1465846915.94,2.521013,-0.036674,-1.469973,0.008006,-0.698018,0.024890,0.581115,0.036666,0.812995,-0.010238,-0.012878,0.003717,36.082085,237.821716,130.798615,,,,,,
1465846915.95,2.513369,-0.036671,-1.470368,0.027044,-0.784060,0.035028,0.587313,0.036663,0.808529,0.000974,0.025349,-0.045223,36.082085,237.821716,130.798615,,,,,,
1465846915.96,2.505057,-0.036749,-1.470777,0.012104,-0.814840,0.033078,0.594012,0.036741,0.803617,0.013975,0.025210,-0.033109,36.082085,237.821716,130.798615,,,,,,
1465846915.97,2.496585,-0.036581,-1.471027,0.002471,-0.855184,0.033321,0.600802,0.036573,0.798560,-0.036334,0.009829,-0.009651,38.113640,237.838409,130.190674,,,,,,
1465846915.98,2.488084,-0.036493,-1.471466,0.023764,-0.842476,0.041778,0.607571,0.036485,0.793427,-0.015500,-0.001100,-0.008011,38.113640,237.838409,130.190674,,,,,,
1465846915.99,2.479687,-0.036385,-1.471829,0.007814,-0.839259,0.033227,0.614214,0.036377,0.788300,-0.005999,-0.007706,-0.011918,38.113640,237.838409,130.190674,,,,,,
1465846916.00,2.471137,-0.036278,-1.472092,0.009930,-0.860478,0.026975,0.620934,0.036270,0.783023,-0.025048,-0.000107,-0.002277,42.785187,237.868301,128.675797,,,,,,
1465846916.01,2.462667,-0.036288,-1.472452,0.025924,-0.842436,0.026878,0.627544,0.036280,0.777735,-0.026745,-0.003749,-0.015955,42.785187,237.868301,128.675797,,,,,,
1465846916.02,2.454602,-0.036249,-1.472736,0.010022,-0.790394,0.024407,0.633797,0.036241,0.772650,-0.037941,-0.018250,0.006082,42.785187,237.868301,128.675797,,,,,,
1465846916.03,2.446851,-0.036234,-1.473019,0.020706,-0.759610,0.025289,0.639767,0.036227,0.767715,-0.039715,-0.020357,0.003724,45.095749,237.884125,127.854935,,,,,,
1465846916.04,2.439595,-0.036117,-1.473340,0.027163,-0.718179,0.016520,0.645323,0.036109,0.763056,-0.014082,-0.022666,-0.007990,45.095749,237.884125,127.854935,,,,,,
1465846916.05,2.432389,-0.036160,-1.473545,0.013318,-0.727717,0.012308,0.650804,0.036152,0.758385,-0.034700,-0.024464,-0.004204,45.095749,237.884125,127.854935,,,,,,
1465846916.06,2.424804,-0.036202,-1.473789,0.023896,-0.771276,0.020043,0.656537,0.036194,0.753425,-0.054181,0.012619,-0.021873,49.157791,237.916916,126.287048,,,,,,
1465846916.07,2.417406,-0.036125,-1.474127,0.007979,-0.716075,0.027132,0.662094,0.036117,0.748550,-0.035202,-0.005065,0.014847,49.157791,237.916916,126.287048,,,,,,
1465846916.08,2.410464,-0.036238,-1.474336,0.017591,-0.706500,0.018566,0.667272,0.036230,0.743933,-0.056554,0.028085,-0.022512,51.150845,237.938507,125.452087,,,,,,
1465846916.09,2.404203,-0.036242,-1.474683,0.023044,-0.595028,0.023194,0.671917,0.036234,0.739740,-0.034832,0.000112,0.024634,51.150845,237.938507,125.452087,,,,,,
1465846916.10,2.398124,-0.036336,-1.474969,0.026224,-0.618368,0.015893,0.676398,0.036328,0.735640,-0.036765,0.023517,-0.034101,51.150845,237.938507,125.452087,,,,,,
1465846916.11,2.391784,-0.036372,-1.475293,0.026191,-0.641734,0.018168,0.681048,0.036364,0.731335,-0.015917,0.001401,-0.020459,52.879341,237.978378,124.657257,,,,,,
1465846916.12,2.384717,-0.036528,-1.475694,0.038908,-0.682102,0.022692,0.686196,0.036520,0.726500,-0.013664,0.000925,-0.058226,52.879341,237.978378,124.657257,,,,,,
1465846916.13,2.377753,-0.036505,-1.476074,0.020762,-0.710776,0.028176,0.691239,0.036497,0.721704,-0.029206,-0.016050,-0.053873,52.879341,237.978378,124.657257,,,,,,
1465846916.14,2.370449,-0.036372,-1.476450,0.017532,-0.720363,0.039942,0.696495,0.036364,0.716640,-0.018470,-0.026400,-0.059795,52.879341,237.978378,124.657257,,,,,,
1465846916.15,2.363409,-0.036342,-1.476755,0.017594,-0.706498,0.017501,0.701524,0.036334,0.711719,0.009032,-0.009600,-0.082477,56.347061,238.073883,122.943932,,,,,,
1465846916.17,2.349037,-0.035991,-1.477187,0.004888,-0.619477,0.036103,0.711689,0.035984,0.701573,-0.115375,0.034680,-0.024083,56.347061,238.073883,122.943932,,,,,,
1465846916.16,2.355762,-0.036216,-1.476941,-0.002725,-0.763849,0.026356,0.706949,0.036208,0.706338,-0.078515,0.003999,-0.070428,56.347061,238.073883,122.943932,,,,,,
1465846916.18,2.346049,-0.036278,-1.477496,0.008343,-0.389101,0.049563,0.713775,0.036270,0.699436,-0.131972,0.032059,0.004727,60.121887,238.057388,121.175087,,,,,,
1465846916.19,2.343461,-0.035963,-1.477848,0.002168,-0.228748,0.042165,0.715590,0.035956,0.697594,-0.073119,-0.000616,0.006004,60.121887,238.057388,121.175087,,,,,,
1465846916.20,2.341301,-0.035711,-1.478124,0.000075,-0.208558,0.036714,0.717102,0.035704,0.696054,-0.080718,-0.014341,-0.012002,60.121887,238.057388,121.175087,,,,,,
1465846916.21,2.339689,-0.035383,-1.478385,-0.003044,-0.135316,0.044767,0.718231,0.035375,0.694905,-0.093597,0.001703,-0.017430,60.908310,238.082886,120.731453,,,,,,
1465846916.22,2.340329,-0.034959,-1.478656,-0.001811,-0.000462,0.043922,0.717797,0.034952,0.695375,-0.059579,-0.004145,-0.028779,60.908310,238.082886,120.731453,,,,,,
1465846916.23,2.340560,-0.034663,-1.478903,-0.002844,0.016542,0.038493,0.717644,0.034657,0.695548,-0.070915,-0.010578,-0.030051,60.908310,238.082886,120.731453,,,,,,
1465846916.24,2.340330,-0.034355,-1.479280,0.004537,-0.022781,0.050455,0.717811,0.034349,0.695390,-0.067833,-0.009889,-0.061021,61.650593,237.962662,120.591682,,,,,,
1465846916.25,2.340372,-0.033993,-1.479629,0.002456,0.014386,0.049156,0.717791,0.033986,0.695428,-0.042346,0.001674,-0.057672,61.650593,237.962662,120.591682,,,,,,
1465846916.26,2.340589,-0.033755,-1.479975,0.012054,0.008043,0.037496,0.717646,0.033749,0.695590,-0.026621,-0.001202,-0.065143,61.650593,237.962662,120.591682,,,,,,
1465846916.27,2.340171,-0.033557,-1.480268,0.004534,-0.049285,0.035719,0.717941,0.033551,0.695295,-0.077408,-0.003064,-0.071699,61.904953,237.908203,120.568771,,,,,,
1465846916.28,2.340188,-0.033752,-1.480571,0.004673,0.061141,0.035027,0.717925,0.033745,0.695302,-0.057860,0.006431,-0.061651,61.904953,237.908203,120.568771,,,,,,
1465846916.29,2.341632,-0.033595,-1.480775,0.001636,0.175824,0.027919,0.716924,0.033588,0.696342,-0.097997,0.026867,-0.068839,61.904953,237.908203,120.568771,,,,,,
1465846916.30,2.344349,-0.033279,-1.481018,-0.006755,0.301080,0.042027,0.715037,0.033273,0.698294,-0.096537,0.007651,-0.081198,62.006195,237.906830,120.519470,,,,,,
1465846916.32,2.349555,-0.032621,-1.481418,-0.007731,0.356310,0.032100,0.711407,0.032615,0.702023,-0.022549,-0.014610,-0.071255,62.006195,237.906830,120.519470,,,,,,
1465846916.31,2.347154,-0.033383,-1.481218,-0.015143,0.391353,0.034001,0.713073,0.033377,0.700295,-0.042281,0.008981,-0.076852,62.006195,237.906830,120.519470,,,,,,
1465846916.33,2.350676,-0.032082,-1.481639,-0.003538,0.287311,0.021893,0.710632,0.032076,0.702832,-0.008987,-0.010577,-0.079968,61.447586,237.898773,120.821114,,,,,,
1465846916.34,2.352145,-0.031408,-1.481745,-0.011015,0.267138,0.020948,0.709614,0.031402,0.703890,-0.039708,-0.014053,-0.080736,61.447586,237.898773,120.821114,,,,,,
1465846916.35,2.354603,-0.030273,-1.481888,0.006120,0.338284,0.014133,0.707907,0.030269,0.705657,-0.042914,-0.029002,-0.070677,61.447586,237.898773,120.821114,,,,,,
1465846916.37,2.360320,-0.030264,-1.482175,0.004108,0.423233,0.008276,0.703861,0.030259,0.709693,-0.027683,0.005965,-0.088889,61.179291,237.526825,121.685921,,,,,,
1465846916.36,2.357503,-0.029999,-1.482052,0.011528,0.395631,0.007393,0.705863,0.029994,0.707713,-0.030220,-0.010372,-0.073512,61.179291,237.526825,121.685921,,,,,,
1465846916.38,2.364911,-0.030316,-1.482295,0.013754,0.461474,0.000595,0.700595,0.030311,0.712915,-0.002505,0.004875,-0.105188,61.179291,237.526825,121.685921,,,,,,
1465846916.39,2.369530,-0.030308,-1.482348,-0.002229,0.465705,0.009068,0.697294,0.030303,0.716144,-0.007963,0.011948,-0.108264,60.531528,237.537918,121.987854,,,,,,
1465846916.40,2.373918,-0.030332,-1.482329,0.001998,0.408422,-0.010793,0.694145,0.030327,0.719196,-0.015144,-0.035882,-0.096440,60.531528,237.537918,121.987854,,,,,,
1465846916.41,2.378656,-0.030244,-1.482480,0.006339,0.543148,0.032009,0.690731,0.030240,0.722479,-0.155575,-0.008572,-0.062476,59.426849,237.551056,122.504364,,,,,,
1465846916.42,2.387920,-0.030072,-1.482763,0.004816,1.045350,0.040567,0.684012,0.030068,0.728851,-0.049735,0.008781,-0.065292,59.426849,237.551056,122.504364,,,,,,
1465846916.43,2.398091,-0.029741,-1.482721,-0.046325,0.975369,0.014343,0.676570,0.029737,0.735777,-0.005458,0.038119,-0.197020,59.426849,237.551056,122.504364,,,,,,
1465846916.44,2.407976,-0.029101,-1.482633,-0.043157,0.976392,0.028178,0.669277,0.029096,0.742443,0.018650,-0.057890,-0.059307,56.059315,237.493729,124.191162,,,,,,
1465846916.45,2.418613,-0.028909,-1.482626,-0.011011,1.117633,0.013486,0.661345,0.028905,0.749525,0.031938,-0.000432,-0.052976,56.059315,237.493729,124.191162,,,,,,
1465846916.46,2.430470,-0.028745,-1.482331,-0.040644,1.219652,-0.012730,0.652415,0.028741,0.757317,-0.054530,0.017737,-0.070946,56.059315,237.493729,124.191162,,,,,,
1465846916.47,2.445765,-0.028356,-1.482068,-0.044424,1.645360,0.012272,0.640763,0.028352,0.767215,-0.049592,-0.006623,-0.063006,56.059315,237.493729,124.191162,,,,,,
1465846916.48,2.462884,-0.027965,-1.481735,-0.060321,1.662430,-0.014462,0.627543,0.027961,0.778080,0.152532,-0.016853,-0.169239,50.171371,237.286270,127.072525,,,,,,
1465846916.49,2.475647,-0.027434,-1.481322,-0.057838,1.132525,0.012282,0.617571,0.027431,0.786037,0.099745,-0.032649,-0.088741,50.171371,237.286270,127.072525,,,,,,
1465846916.50,2.484120,-0.027293,-1.481405,-0.003929,0.801248,0.002704,0.610891,0.027290,0.791245,0.211726,-0.012474,-0.172058,46.351051,237.134613,128.794876,,,,,,
1465846916.51,2.491673,-0.027078,-1.480983,-0.047577,0.766297,-0.021603,0.604901,0.027075,0.795841,0.109546,-0.010733,-0.021350,46.351051,237.134613,128.794876,,,,,,
1465846916.52,2.500146,-0.027093,-1.480890,0.007916,0.893642,-0.006379,0.598135,0.027090,0.800937,0.057810,0.016581,-0.108371,46.351051,237.134613,128.794876,,,,,,
1465846916.53,2.509999,-0.027002,-1.480683,-0.034550,0.982869,-0.012303,0.590217,0.026998,0.806793,0.099129,0.019434,-0.081131,44.269321,237.073700,129.636627,,,,,,
1465846916.54,2.518418,-0.026628,-1.480416,-0.041220,0.787451,0.007011,0.583409,0.026625,0.811742,0.085399,0.018495,-0.129491,44.269321,237.073700,129.636627,,,,,,
1465846916.56,2.531435,-0.025958,-1.480294,-0.038128,0.731125,0.023334,0.572804,0.025955,0.819281,0.045894,-0.007507,-0.080619,44.269321,237.073700,129.636627,,,,,,
1465846916.55,2.524428,-0.026350,-1.480381,-0.026444,0.683381,0.007679,0.578525,0.026347,0.815239,0.110104,0.001698,-0.101418,44.269321,237.073700,129.636627,,,,,,
1465846916.57,2.539954,-0.025601,-1.480244,-0.031527,0.881929,0.010686,0.565808,0.025599,0.824139,0.106311,-0.003534,-0.073926,39.985756,236.952988,131.239441,,,,,,
1465846916.58,2.548003,-0.025348,-1.480130,-0.024226,0.758760,0.010401,0.559160,0.025346,0.828672,0.097791,-0.001313,-0.079298,39.985756,236.952988,131.239441,,,,,,
1465846916.59,2.553635,-0.024922,-1.480237,-0.025499,0.613254,0.024086,0.554490,0.024919,0.831817,0.123458,-0.017778,-0.121505,39.985756,236.952988,131.239441,,,,,,
1465846916.60,2.559085,-0.024520,-1.480207,-0.038382,0.521957,0.020388,0.549954,0.024518,0.834835,0.155200,-0.014218,-0.121746,36.295906,236.760590,132.651428,,,,,,
1465846916.62,2.566535,-0.023583,-1.480474,-0.031060,0.515413,0.082175,0.543732,0.023581,0.838927,-0.005265,-0.017112,-0.085494,36.295906,236.760590,132.651428,,,,,,
1465846916.61,2.562528,-0.024185,-1.480169,-0.025902,0.259730,0.006078,0.547082,0.024183,0.836730,0.123435,-0.017072,-0.115645,36.295906,236.760590,132.651428,,,,,,
1465846916.63,2.565283,-0.023732,-1.480459,-0.058458,0.573019,-0.023595,0.544780,0.023729,0.838243,0.216619,0.019346,-0.094088,-103.580353,228.249664,-92.333740,,,,,,
1465846916.64,2.569380,-0.023202,-1.480158,-0.051333,0.386009,0.024421,0.541348,0.023200,0.840479,0.014179,0.001642,-0.032892,-103.212860,228.320908,-92.568787,,,,,,
1465846916.65,2.574594,-0.022842,-1.480195,-0.029763,0.595191,0.016744,0.536963,0.022840,0.843297,0.072062,0.044222,-0.105245,-103.212860,228.320908,-92.568787,,,,,,
1465846916.66,2.583017,-0.022047,-1.479747,-0.113450,0.931830,0.012420,0.529850,0.022045,0.847805,0.059948,-0.010494,-0.074474,-103.212860,228.320908,-92.568787,,,,,,
1465846916.68,2.594752,-0.020988,-1.479690,-0.053715,0.223486,0.049920,0.519877,0.020986,0.853983,0.181631,-0.012075,-0.201792,-103.212860,228.320908,-92.568787,,,,,,
1465846916.67,2.591442,-0.021469,-1.479531,-0.030623,0.750229,0.010448,0.522696,0.021468,0.852249,0.175089,0.020830,-0.048935,-103.212860,228.320908,-92.568787,,,,,,
1465846916.69,2.595277,-0.020059,-1.479454,-0.089061,0.010161,0.022483,0.519438,0.020057,0.854273,0.235460,-0.014656,-0.095499,-100.668770,228.589584,-94.683205,,,,,,
1465846916.71,2.587955,-0.019845,-1.479908,-0.014572,-0.045088,0.010130,0.525682,0.019843,0.850450,0.170104,0.005196,-0.051866,-100.668770,228.589584,-94.683205,,,,,,
1465846916.70,2.595167,-0.019752,-1.479657,0.007791,-0.005841,0.032260,0.519535,0.019750,0.854221,0.149242,-0.005590,-0.014652,-100.668770,228.589584,-94.683205,,,,,,
1465846916.72,2.586434,-0.019434,-1.479756,-0.042433,-0.190536,0.008886,0.526978,0.019433,0.849657,0.161605,-0.010384,-0.089998,-100.728897,228.819611,-94.061646,,,,,,
1465846916.73,2.583846,-0.019312,-1.479872,0.004307,-0.264906,0.016850,0.529177,0.019311,0.848292,0.131758,0.001593,-0.094569,-100.728897,228.819611,-94.061646,,,,,,
1465846916.74,2.581570,-0.019056,-1.479813,-0.038199,-0.214950,0.005850,0.531109,0.019054,0.847089,0.130726,0.000172,-0.071393,-100.728897,228.819611,-94.061646,,,,,,
1465846916.75,2.575000,-0.018490,-1.479804,-0.027548,-0.193774,0.017437,0.536668,0.018489,0.843591,0.087264,-0.004161,-0.063790,-101.057175,228.889008,-93.539200,,,,,,
1465846916.76,2.572991,-0.018067,-1.479905,-0.045667,-0.186370,0.031211,0.538367,0.018066,0.842517,0.111231,-0.013870,-0.192584,-101.057175,228.889008,-93.539200,,,,,,
1465846916.77,2.572487,-0.017027,-1.479303,-0.133749,-0.006791,-0.003002,0.538801,0.017027,0.842261,0.151644,0.009661,-0.109504,-101.057175,228.889008,-93.539200,,,,,,
1465846916.78,2.572656,-0.016427,-1.479053,-0.031561,0.003720,0.017259,0.538664,0.016427,0.842361,0.091418,0.002128,0.044617,-101.941833,229.171326,-91.873177,,,,,,
1465846916.79,2.565332,-0.016388,-1.479173,-0.043396,-0.098233,0.015758,0.544819,0.016387,0.838393,0.154308,0.007660,-0.065337,-101.941833,229.171326,-91.873177,,,,,,
1465846916.80,2.563818,-0.015462,-1.478589,-0.119046,-0.165047,0.001199,0.546096,0.015461,0.837580,0.192490,-0.005924,-0.096232,-101.941833,229.171326,-91.873177,,,,,,
1465846916.81,2.561765,-0.014846,-1.478415,-0.038243,-0.221428,0.025051,0.547819,0.014845,0.836465,0.151171,0.003588,-0.020486,-102.542030,229.251144,-91.001999,,,,,,
1465846916.82,2.558590,-0.014269,-1.478361,-0.068232,-0.360512,0.026958,0.550477,0.014268,0.834728,0.193786,0.008147,-0.040035,-102.542030,229.251144,-91.001999,,,,,,
1465846916.83,2.546335,-0.013261,-1.478156,-0.090809,-0.538910,0.024862,0.560673,0.013260,0.827931,0.204632,-0.000153,-0.062642,-102.542030,229.251144,-91.001999,,,,,,
1465846916.84,2.540607,-0.012649,-1.477960,-0.056757,-0.568634,0.016566,0.565410,0.012649,0.824713,0.193684,0.009201,-0.038794,-104.044289,229.626297,-88.311226,,,,,,
1465846916.85,2.534993,-0.012006,-1.477658,-0.075908,-0.567545,0.010154,0.570036,0.012006,0.821532,0.188127,-0.000364,0.015108,-104.044289,229.626297,-88.311226,,,,,,
1465846916.86,2.528677,-0.011458,-1.477359,-0.056837,-0.655661,0.002210,0.575217,0.011457,0.817921,0.199136,-0.005613,-0.016209,-104.044289,229.626297,-88.311226,,,,,,
1465846916.87,2.521827,-0.010961,-1.476919,-0.070700,-0.686422,-0.006127,0.580809,0.010961,0.813966,0.176988,0.001673,0.003509,-104.969391,229.772766,-86.822937,,,,,,
1465846916.88,2.515351,-0.010376,-1.476676,-0.055774,-0.630225,0.019082,0.586072,0.010376,0.810193,0.121646,-0.006653,0.018055,-104.969391,229.772766,-86.822937,,,,,,
1465846916.89,2.509880,-0.009684,-1.476283,-0.098190,-0.515488,0.003418,0.590500,0.009684,0.806980,0.183289,-0.010066,-0.073169,-104.969391,229.772766,-86.822937,,,,,,
1465846916.90,2.505310,-0.008670,-1.475601,-0.114093,-0.449668,0.010441,0.594188,0.008670,0.804280,0.155400,-0.011828,0.018962,-107.057602,230.025940,-83.540710,,,,,,
1465846916.91,2.500713,-0.008064,-1.475342,-0.057677,-0.460318,0.011628,0.597881,0.008064,0.801544,0.160084,-0.006202,0.033081,-107.057602,230.025940,-83.540710,,,,,,
1465846916.92,2.496363,-0.007335,-1.474759,-0.104454,-0.427337,-0.003528,0.601365,0.007335,0.798940,0.189849,0.006047,0.036844,-107.770142,230.202377,-82.126587,,,,,,
1465846916.93,2.492289,-0.006587,-1.474282,-0.078892,-0.401899,0.008047,0.604619,0.006587,0.796488,0.175136,-0.000788,0.022208,-107.770142,230.202377,-82.126587,,,,,,
1465846916.94,2.488096,-0.005756,-1.473858,-0.102383,-0.432718,0.022055,0.607956,0.005756,0.793950,0.199661,-0.001194,0.003566,-108.447662,230.354904,-80.796303,,,,,,
1465846916.95,2.483117,-0.004653,-1.473366,-0.116340,-0.519787,0.025781,0.611905,0.004653,0.790918,0.212314,-0.014938,0.026938,-108.447662,230.354904,-80.796303,,,,,,
1465846916.96,2.477427,-0.003800,-1.472905,-0.086596,-0.589855,0.016670,0.616398,0.003800,0.787426,0.224437,-0.004960,0.089238,-108.447662,230.354904,-80.796303,,,,,,
1465846916.97,2.471066,-0.003141,-1.472677,-0.064309,-0.640844,0.021269,0.621396,0.003141,0.783490,0.199115,0.003207,0.103869,-108.447662,230.354904,-80.796303,,,,,,
1465846916.98,2.465194,-0.002432,-1.472168,-0.092923,-0.566448,0.000550,0.625987,0.002432,0.779830,0.209630,0.008966,0.083558,-109.934700,230.740692,-77.623482,,,,,,
1465846916.99,2.460081,-0.001725,-1.471811,-0.069454,-0.493260,0.023532,0.629967,0.001725,0.776620,0.156593,-0.003678,0.110404,-109.934700,230.740692,-77.623482,,,,,,
1465846917.00,2.455371,-0.000962,-1.471361,-0.102405,-0.470907,0.009521,0.633618,0.000962,0.773645,0.199191,-0.007066,0.076651,-109.934700,230.740692,-77.623482,,,,,,
1465846917.01,2.450343,-0.000001,-1.470882,-0.095041,-0.513433,0.027891,0.637501,0.000001,0.770450,0.166195,-0.006029,0.134915,-110.730042,230.890488,-76.031303,,,,,,
1465846917.02,2.445080,0.000623,-1.470422,-0.080091,-0.526100,-0.001819,0.641546,-0.000623,0.767084,0.213251,0.001584,0.114569,-110.730042,230.890488,-76.031303,,,,,,
1465846917.03,2.439632,0.001404,-1.469799,-0.102507,-0.561146,0.004765,0.645716,-0.001404,0.763577,0.208670,-0.003281,0.139561,-110.730042,230.890488,-76.031303,,,,,,
1465846917.04,2.433307,0.002151,-1.469119,-0.102603,-0.654555,-0.005294,0.650532,-0.002151,0.759476,0.203610,-0.022034,0.133941,-112.149948,231.215134,-72.899033,,,,,,
1465846917.05,2.426339,0.002762,-1.468646,-0.062234,-0.706639,0.007846,0.655807,-0.002762,0.754924,0.130463,0.013336,0.235845,-112.149948,231.215134,-72.899033,,,,,,
1465846917.06,2.418973,0.003073,-1.468339,-0.050533,-0.742699,-0.008947,0.661349,-0.003073,0.750072,0.162885,0.016837,0.191212,-112.149948,231.215134,-72.899033,,,,,,
1465846917.07,2.411404,0.003644,-1.467563,-0.101646,-0.766001,-0.020561,0.667006,-0.003644,0.745044,0.171709,0.012662,0.164548,-113.104111,231.344299,-70.990059,,,,,,
1465846917.08,2.403735,0.004129,-1.466964,-0.065461,-0.761801,-0.009907,0.672699,-0.004129,0.739905,0.073013,-0.004477,0.221765,-113.104111,231.344299,-70.990059,,,,,,
1465846917.09,2.396042,0.004487,-1.465396,-0.172776,-0.748722,-0.113347,0.678370,-0.004487,0.734707,-0.013071,-0.008834,0.283192,-113.104111,231.344299,-70.990059,,,,,,
1465846917.10,2.390636,0.005108,-1.463786,-0.113962,-0.468570,-0.066081,0.682329,-0.005108,0.731027,-0.557924,0.017757,0.709875,-115.483719,231.436890,-66.729256,,,,,,
1465846917.11,2.388998,0.004968,-1.462862,-0.060177,-0.048094,-0.079309,0.683526,-0.004968,0.729909,-0.932855,-0.016639,0.889903,-115.483719,231.436890,-66.729256,,,,,,
1465846917.12,2.391278,0.005127,-1.461742,-0.083187,0.304398,-0.067705,0.681860,-0.005127,0.731465,-1.226248,0.037750,1.066173,-115.483719,231.436890,-66.729256,,,,,,
1465846917.13,2.396932,0.005064,-1.461348,0.000198,0.651429,-0.019769,0.677714,-0.005064,0.735308,-1.451624,0.015806,1.096463,-116.302002,231.397079,-65.433540,,,,,,
1465846917.14,2.405689,0.005190,-1.461704,0.009999,0.944276,0.052916,0.671248,-0.005190,0.741214,-1.491958,0.007402,1.081677,-116.302002,231.397079,-65.433540,,,,,,
1465846917.15,2.417014,0.005733,-1.461890,-0.036527,1.198076,0.049149,0.662809,-0.005733,0.748767,-1.308652,-0.008122,0.932386,-116.302002,231.397079,-65.433540,,,,,,
1465846917.16,2.430371,0.006113,-1.462687,0.050891,1.365660,0.098214,0.652748,-0.006113,0.757551,-1.140449,0.027415,0.909396,-114.474037,231.455292,-68.384583,,,,,,
1465846917.17,2.444690,0.006615,-1.463818,0.011553,1.460095,0.128451,0.641832,-0.006615,0.766817,-0.887117,-0.022377,0.751112,-114.474037,231.455292,-68.384583,,,,,,
1465846917.18,2.460012,0.007703,-1.464827,-0.016055,1.555609,0.150178,0.630002,-0.007703,0.776555,-0.292112,-0.006853,0.490108,-114.474037,231.455292,-68.384583,,,,,,
1465846917.19,2.477019,0.008930,-1.467582,0.126390,1.800076,0.417028,0.616699,-0.008930,0.787148,1.161377,-0.036374,-0.261758,-112.065453,231.644669,-71.654755,,,,,,
1465846917.20,2.483765,0.007961,-1.467746,-0.191010,0.396682,-0.400499,0.611380,-0.007961,0.791297,-0.241491,0.191815,0.644494,-112.065453,231.644669,-71.654755,,,,,,
1465846917.21,2.493768,0.011153,-1.468501,0.191151,0.723510,0.374880,0.603416,-0.011152,0.797349,0.724618,-0.397020,-0.966111,-112.065453,231.644669,-71.654755,,,,,,
1465846917.22,2.499796,0.008765,-1.471984,0.120442,0.849486,0.138776,0.598612,-0.008765,0.800991,1.109792,0.355994,-0.276317,-106.916702,232.402512,-76.877884,,,,,,
1465846917.23,2.500052,0.010997,-1.471854,-0.153522,-0.413659,0.050624,0.598394,-0.010997,0.801126,0.849283,-0.220250,-1.066232,-106.916702,232.402512,-76.877884,,,,,,
1465846917.24,2.496962,0.011849,-1.472641,0.101957,-0.326947,0.133362,0.600861,-0.011848,0.799266,1.079788,0.047020,-0.847529,-106.916702,232.402512,-76.877884,,,,,,
1465846917.25,2.488122,0.011132,-1.474439,0.025661,-0.922516,0.113604,0.607908,-0.011132,0.793929,0.957582,0.022576,-0.890029,-105.831573,232.511917,-78.039734,,,,,,
1465846917.26,2.478355,0.013486,-1.473579,-0.209683,-1.088867,0.029256,0.615615,-0.013486,0.787931,0.631486,-0.115329,-0.811903,-105.831573,232.511917,-78.039734,,,,,,
1465846917.27,2.468646,0.014308,-1.473479,-0.042313,-0.852292,0.072646,0.623229,-0.014308,0.781908,0.380250,0.073222,-0.289584,-105.831573,232.511917,-78.039734,,,,,,
1465846917.28,2.458958,0.015311,-1.474025,-0.068974,-0.872481,0.081263,0.630766,-0.015311,0.775822,0.255175,-0.084314,-0.405278,-107.455170,232.989029,-74.308884,,,,,,
1465846917.29,2.451939,0.017562,-1.472865,-0.251770,-0.681139,0.031981,0.636172,-0.017561,0.771348,-0.033541,-0.051226,-0.076844,-107.455170,232.989029,-74.308884,,,,,,
1465846917.30,2.449547,0.019837,-1.472135,-0.118398,0.094020,0.373199,0.637988,-0.019835,0.769791,0.271405,0.008239,0.109756,-107.455170,232.989029,-74.308884,,,,,,
1465846917.31,2.443603,0.019371,-1.474183,-0.006721,-0.682101,-0.048666,0.642558,-0.019369,0.765992,0.096212,0.006994,-0.095445,-108.308777,233.371521,-71.828003,,,,,,
1465846917.32,2.438763,0.023642,-1.471527,-0.387117,-0.625066,0.129424,0.646199,-0.023640,0.762803,-0.002293,-0.108593,-0.112473,-108.308777,233.371521,-71.828003,,,,,,
1465846917.33,2.432863,0.023541,-1.471757,0.015897,-0.370124,0.015395,0.650690,-0.023539,0.758979,-0.214258,0.230402,0.543496,-108.308777,233.371521,-71.828003,,,,,,
1465846917.34,2.428684,0.024766,-1.472131,-0.107978,-0.565601,0.077171,0.653836,-0.024763,0.756231,-0.275876,-0.243532,-0.052526,-108.944534,234.068680,-68.521912,,,,,,
1465846917.36,2.419068,0.028483,-1.471633,0.041990,-0.602994,0.133971,0.661012,-0.028479,0.749834,-0.016466,0.035910,0.247495,-108.944534,234.068680,-68.521912,,,,,,
1465846917.35,2.425277,0.027971,-1.470637,-0.317472,-0.259870,0.137847,0.656353,-0.027968,0.753935,-0.077648,0.126417,0.343690,-108.944534,234.068680,-68.521912,,,,,,
1465846917.37,2.410529,0.029872,-1.470919,-0.206242,-0.981485,-0.026763,0.667364,-0.029868,0.744133,-0.281546,-0.018579,0.249169,-108.975410,234.568192,-66.741600,,,,,,
1465846917.38,2.402619,0.031287,-1.469385,-0.132512,-0.669528,0.035221,0.673200,-0.031282,0.738799,-0.574109,0.121202,0.743806,-108.975410,234.568192,-66.741600,,,,,,
1465846917.39,2.397291,0.030570,-1.471685,0.252904,-0.503328,0.147394,0.677142,-0.030565,0.735217,-0.096759,-0.011839,0.234158,-108.975410,234.568192,-66.741600,,,,,,
1465846917.40,2.389417,0.030737,-1.472311,-0.052925,-0.949769,-0.004456,0.682906,-0.030732,0.729859,0.259675,0.056367,-0.116456,-110.208282,234.924164,-63.380463,,,,,,
1465846917.41,2.377094,0.030333,-1.471398,0.033110,-1.256430,-0.090796,0.691857,-0.030328,0.721397,0.038398,0.104562,0.125939,-110.208282,234.924164,-63.380463,,,,,,
1465846917.42,2.365604,0.028113,-1.472303,0.231351,-1.098318,-0.092655,0.700146,-0.028109,0.713447,-0.114513,-0.018308,0.107751,-110.208282,234.924164,-63.380463,,,,,,
1465846917.43,2.356676,0.027271,-1.471990,-0.010059,-0.847653,-0.079565,0.706504,-0.027268,0.707184,-0.165503,0.004257,0.164368,-111.552383,234.884506,-61.136368,,,,,,
1465846917.44,2.348169,0.026100,-1.472134,0.144292,-0.863677,-0.071860,0.712516,-0.026097,0.701170,-0.102699,0.002538,0.127947,-111.552383,234.884506,-61.136368,,,,,,
1465846917.45,2.338484,0.024718,-1.472976,0.153679,-0.983728,-0.048743,0.719298,-0.024716,0.694261,0.027879,-0.029056,-0.018434,-111.552383,234.884506,-61.136368,,,,,,
1465846917.46,2.328080,0.023840,-1.473077,0.054610,-1.042046,-0.060185,0.726498,-0.023838,0.686755,0.107685,-0.003475,-0.107409,-114.522362,234.259491,-57.960678,,,,,,
1465846917.47,2.318172,0.022657,-1.473527,0.138801,-0.966723,-0.052058,0.733287,-0.022655,0.679542,0.189626,-0.014332,-0.186942,-114.522362,234.259491,-57.960678,,,,,,
1465846917.48,2.308410,0.021428,-1.473844,0.072831,-0.970870,-0.076580,0.739906,-0.021427,0.672369,0.201821,-0.014828,-0.255758,-114.522362,234.259491,-57.960678,,,,,,
1465846917.49,2.298493,0.020624,-1.473389,0.020741,-0.929395,-0.091795,0.746550,-0.020622,0.665010,0.099871,0.003456,-0.172502,-115.942886,234.026993,-56.043938,,,,,,
1465846917.50,2.290452,0.019440,-1.473517,0.101854,-0.770174,-0.089519,0.751890,-0.019438,0.659002,0.076479,-0.007341,-0.141423,-115.942886,234.026993,-56.043938,,,,,,
1465846917.51,2.284123,0.018520,-1.473447,0.039207,-0.593951,-0.066204,0.756060,-0.018519,0.654241,0.101225,-0.013601,-0.160939,-115.942886,234.026993,-56.043938,,,,,,
1465846917.52,2.278460,0.017756,-1.473259,0.040306,-0.568465,-0.067428,0.759763,-0.017756,0.649958,0.156970,-0.026663,-0.234354,-118.527176,233.512512,-52.683304,,,,,,
1465846917.53,2.276684,0.017394,-1.473197,0.015698,-0.623714,-0.042623,0.760921,-0.017393,0.648612,0.205113,-0.016740,-0.241538,-118.527176,233.512512,-52.683304,,,,,,
1465846917.54,2.269384,0.017137,-1.472876,-0.016426,-0.757505,-0.034365,0.765639,-0.017136,0.643042,0.149354,-0.021469,-0.203360,-118.527176,233.512512,-52.683304,,,,,,
1465846917.55,2.261647,0.017067,-1.472541,-0.019636,-0.770245,-0.034288,0.770592,-0.017066,0.637101,0.051750,-0.002740,-0.069046,-119.153244,233.363266,-51.926838,,,,,,
1465846917.56,2.255297,0.016992,-1.472221,-0.020475,-0.563240,-0.018556,0.774623,-0.016991,0.632195,-0.085170,0.007149,0.057228,-119.153244,233.363266,-51.926838,,,,,,
1465846917.57,2.254417,0.017095,-1.472140,-0.011597,-0.241566,0.000724,0.775177,-0.017094,0.631512,-0.086533,-0.024410,0.050525,-119.153244,233.363266,-51.926838,,,,,,
1465846917.58,2.253048,0.017797,-1.471918,-0.052969,-0.094000,0.015725,0.776032,-0.017796,0.630443,-0.092423,-0.021267,0.072850,-120.488998,233.285934,-49.116028,,,,,,
1465846917.59,2.251592,0.018601,-1.471537,-0.056132,-0.061097,0.019774,0.776938,-0.018600,0.629303,-0.134726,-0.000474,0.136429,-120.488998,233.285934,-49.116028,,,,,,
1465846917.61,2.252338,0.020356,-1.471241,-0.050703,0.051405,0.036107,0.776442,-0.020354,0.629860,-0.172422,0.001281,0.203498,-120.442123,233.450134,-48.446327,,,,,,
1465846917.60,2.251626,0.019335,-1.471396,-0.033674,0.021706,0.021407,0.776905,-0.019334,0.629321,-0.144901,0.005662,0.181882,-120.442123,233.450134,-48.446327,,,,,,
1465846917.62,2.252673,0.021208,-1.471065,-0.041175,-0.016510,0.020576,0.776217,-0.021207,0.630109,-0.173830,0.019635,0.242815,-120.442123,233.450134,-48.446327,,,,,,
1465846917.63,2.251904,0.021839,-1.470923,-0.032814,-0.146043,0.018204,0.776690,-0.021837,0.629504,-0.286731,-0.001616,0.315839,-120.130951,233.656219,-48.224865,,,,,,
1465846917.64,2.251241,0.022121,-1.470738,-0.027297,-0.014344,0.003546,0.777103,-0.022119,0.628985,-0.369250,0.031030,0.416990,-120.130951,233.656219,-48.224865,,,,,,
1465846917.65,2.253209,0.021993,-1.470855,0.031616,0.269125,0.002892,0.775866,-0.021991,0.630514,-0.399477,0.015918,0.406000,-120.130951,233.656219,-48.224865,,,,,,
1465846917.66,2.256974,0.021902,-1.471163,0.012593,0.395465,0.010596,0.773488,-0.021900,0.633433,-0.337285,-0.018673,0.259771,-119.848343,233.843674,-48.019073,,,,,,
1465846917.67,2.261652,0.022316,-1.470944,-0.045875,0.489960,0.022718,0.770509,-0.022314,0.637038,-0.361787,0.014715,0.325837,-119.848343,233.843674,-48.019073,,,,,,
1465846917.68,2.271818,0.022817,-1.471497,0.018043,0.589633,0.067928,0.763985,-0.022815,0.644831,-0.324868,-0.044293,0.267889,-119.848343,233.843674,-48.019073,,,,,,
1465846917.69,2.279745,0.023301,-1.471513,-0.039042,0.847800,0.022610,0.758841,-0.023299,0.650859,-0.216772,0.050246,0.325581,-119.367332,233.886841,-48.996918,,,,,,
1465846917.70,2.288844,0.023217,-1.471672,0.042018,0.930630,0.004076,0.752888,-0.023215,0.657739,-0.209889,0.029670,0.280509,-119.367332,233.886841,-48.996918,,,,,,
1465846917.71,2.298839,0.022699,-1.472203,0.077286,1.013471,-0.010247,0.746286,-0.022697,0.665239,-0.070230,0.048957,0.174773,-119.367332,233.886841,-48.996918,,,,,,
1465846917.72,2.308890,0.022119,-1.472599,0.064499,0.995444,-0.016533,0.739572,-0.022117,0.672714,0.119986,0.022560,-0.037170,-117.201920,233.982040,-53.557747,,,,,,
1465846917.73,2.317621,0.021398,-1.472884,0.072833,0.806512,-0.041951,0.733682,-0.021397,0.679156,0.364325,0.037113,-0.212756,-117.201920,233.982040,-53.557747,,,,,,
1465846917.74,2.321844,0.020364,-1.473150,0.093504,0.271418,-0.061992,0.730823,-0.020362,0.682263,0.494351,0.024970,-0.335675,-117.201920,233.982040,-53.557747,,,,,,
1465846917.75,2.320106,0.019094,-1.473245,0.093919,-0.309280,-0.097735,0.732026,-0.019093,0.681009,0.522979,0.040287,-0.349176,-116.291359,233.847519,-56.071190,,,,,,
1465846917.76,2.314073,0.017217,-1.473306,0.147854,-0.682921,-0.146431,0.736146,-0.017216,0.676603,0.515242,0.050144,-0.346525,-116.291359,233.847519,-56.071190,,,,,,
1465846917.77,2.305385,0.014784,-1.473376,0.166791,-0.925978,-0.183208,0.742025,-0.014783,0.670209,0.497751,0.015150,-0.402005,-116.291359,233.847519,-56.071190,,,,,,
1465846917.78,2.294510,0.012495,-1.472994,0.112244,-1.137223,-0.191518,0.749293,-0.012494,0.662121,0.387059,-0.026385,-0.366268,-118.037987,233.044601,-55.763470,,,,,,
1465846917.79,2.281547,0.010483,-1.472826,0.126843,-1.324208,-0.154139,0.757831,-0.010483,0.652367,0.269071,-0.042663,-0.285851,-118.037987,233.044601,-55.763470,,,,,,
1465846917.80,2.267521,0.008491,-1.472757,0.120342,-1.422938,-0.158849,0.766920,-0.008491,0.641686,0.248476,-0.001961,-0.241769,-118.037987,233.044601,-55.763470,,,,,,
1465846917.81,2.253071,0.006625,-1.472685,0.111797,-1.421910,-0.145026,0.776124,-0.006625,0.630546,0.228179,-0.026517,-0.262275,-120.175415,232.484177,-53.491024,,,,,,
1465846917.82,2.239248,0.005017,-1.472594,0.088422,-1.352935,-0.126322,0.784772,-0.005017,0.619764,0.242129,-0.017489,-0.292661,-120.175415,232.484177,-53.491024,,,,,,
1465846917.83,2.225779,0.003784,-1.472571,0.068121,-1.349842,-0.089105,0.793053,-0.003784,0.609141,0.266105,-0.031311,-0.342280,-120.175415,232.484177,-53.491024,,,,,,
1465846917.84,2.212123,0.003021,-1.472552,0.037143,-1.371165,-0.051747,0.801299,-0.003021,0.598256,0.340760,-0.027253,-0.398320,-124.239136,231.625320,-47.609455,,,,,,
1465846917.85,2.197920,0.002619,-1.472472,0.010395,-1.445528,-0.033212,0.809716,-0.002619,0.586816,0.429465,-0.029714,-0.429543,-124.239136,231.625320,-47.609455,,,,,,
1465846917.86,2.182510,0.002533,-1.472222,-0.021731,-1.568722,-0.017569,0.818662,-0.002533,0.574269,0.455095,-0.031708,-0.405187,-124.239136,231.625320,-47.609455,,,,,,
1465846917.87,2.166602,0.002190,-1.470711,-0.158773,-1.558690,-0.165727,0.827695,-0.002190,0.561174,0.255099,-0.031334,-0.196748,-125.748878,231.472885,-44.270023,,,,,,
1465846917.88,2.156018,0.002184,-1.468192,-0.161223,-0.835823,-0.089365,0.833588,-0.002184,0.552383,-0.628036,0.057665,0.726441,-125.748878,231.472885,-44.270023,,,,,,
1465846917.89,2.154628,0.001754,-1.470780,0.353688,0.066842,0.149247,0.834355,-0.001754,0.551224,-0.330556,0.011764,0.380416,-125.748878,231.472885,-44.270023,,,,,,
1465846917.90,2.156705,0.001534,-1.471115,-0.149414,0.169561,-0.045629,0.833209,-0.001534,0.552956,0.423963,-0.074103,-0.346749,-127.929642,231.297699,-38.570663,,,,,,
1465846917.91,2.153330,0.002725,-1.467646,-0.315189,-0.506578,-0.094776,0.835068,-0.002725,0.550139,0.184448,-0.030753,-0.065642,-127.929642,231.297699,-38.570663,,,,,,
1465846917.92,2.147432,0.002209,-1.467948,0.159428,-0.538963,0.012345,0.838300,-0.002209,0.545205,-0.245664,0.074475,0.438926,-128.190521,231.300629,-37.676548,,,,,,
1465846917.93,2.146163,0.002076,-1.468936,0.014182,0.016330,0.045973,0.838991,-0.002076,0.544141,-0.040789,-0.014479,0.157000,-128.190521,231.300629,-37.676548,,,,,,
1465846917.94,2.147488,0.002782,-1.467485,-0.183558,0.123900,-0.037926,0.838268,-0.002782,0.545252,0.236165,-0.039561,-0.126688,-128.190521,231.300629,-37.676548,,,,,,
1465846917.95,2.145794,0.002711,-1.466407,-0.045589,-0.282752,-0.067171,0.839191,-0.002711,0.543831,0.110150,0.027903,0.095208,-128.420914,231.267899,-37.088387,,,,,,
1465846917.96,2.136376,0.003039,-1.466312,0.015876,-0.389203,0.011264,0.844274,-0.003039,0.535903,-0.134008,0.033725,0.300752,-128.420914,231.267899,-37.088387,,,,,,
1465846917.97,2.134980,0.002860,-1.466309,-0.001723,-0.031293,-0.017610,0.845022,-0.002860,0.534724,0.002146,0.007407,0.117147,-128.420914,231.267899,-37.088387,,,,,,
1465846917.98,2.136174,0.002727,-1.465634,-0.069547,0.145135,-0.067748,0.844383,-0.002727,0.535733,0.093437,-0.001347,0.020359,-128.999207,231.265411,-35.040386,,,,,,
1465846917.99,2.137087,0.002700,-1.465213,0.003669,0.053596,0.001023,0.843894,-0.002700,0.536503,0.000314,0.010116,0.166149,-128.999207,231.265411,-35.040386,,,,,,
1465846918.00,2.135166,0.002418,-1.465162,0.015305,-0.044039,-0.021770,0.844923,-0.002418,0.534882,0.045290,0.010810,0.124893,-128.999207,231.265411,-35.040386,,,,,,
1465846918.01,2.134343,0.002109,-1.464499,-0.060203,-0.075679,-0.085514,0.845364,-0.002109,0.534187,0.124668,0.006885,0.021538,-128.999207,231.265411,-35.040386,,,,,,
1465846918.02,2.133781,0.001808,-1.464000,-0.000637,-0.039752,-0.033522,0.845665,-0.001808,0.533711,-0.066551,0.006309,0.176433,-104.956444,229.612427,-22.276213,,,,,,
1465846918.03,2.134111,0.001297,-1.464263,0.052694,0.037730,-0.032890,0.845489,-0.001297,0.533991,0.006378,0.018448,0.151068,-104.956444,229.612427,-22.276213,,,,,,
1465846918.04,2.134090,0.001059,-1.463998,-0.034677,-0.014251,-0.033715,0.845501,-0.001059,0.533973,0.039769,-0.029855,0.060555,-105.148056,229.521912,-22.305374,,,,,,
1465846918.05,2.134074,0.000866,-1.463561,-0.003778,-0.008937,-0.041169,0.845509,-0.000866,0.533960,0.088680,0.018337,0.093923,-105.148056,229.521912,-22.305374,,,,,,
1465846918.06,2.133119,0.000346,-1.463634,0.026951,-0.142713,-0.049880,0.846019,-0.000346,0.533153,0.116445,-0.018819,0.068547,-105.148056,229.521912,-22.305374,,,,,,
1465846918.07,2.135818,0.000090,-1.462930,-0.059466,-0.259483,-0.035396,0.844577,-0.000090,0.535434,0.057706,0.026809,0.107602,-105.318573,229.452164,-22.218317,,,,,,
1465846918.08,2.131794,-0.000382,-1.463104,0.056371,-0.441097,-0.038399,0.846725,0.000382,0.532031,0.079713,-0.053147,0.059079,-105.318573,229.452164,-22.218317,,,,,,
1465846918.09,2.127856,-0.000703,-1.462433,-0.067003,-0.380431,-0.068707,0.848813,0.000703,0.528693,0.096591,0.023116,0.100580,-105.318573,229.452164,-22.218317,,,,,,
1465846918.10,2.124268,-0.001021,-1.462248,0.051096,-0.386969,-0.029164,0.850705,0.001021,0.525643,0.013858,0.033143,0.159690,-105.896896,229.251190,-21.533607,,,,,,
1465846918.11,2.120754,-0.001422,-1.461940,-0.069020,-0.265799,-0.053461,0.852546,0.001422,0.522651,-0.007377,-0.063540,0.031838,-105.896896,229.251190,-21.533607,,,,,,
1465846918.12,2.119636,-0.001549,-1.461361,0.012049,-0.114057,-0.034108,0.853130,0.001549,0.521697,0.004537,0.059669,0.186250,-105.896896,229.251190,-21.533607,,,,,,
1465846918.14,2.121659,-0.000450,-1.460966,-0.010252,-0.040811,-0.019683,0.852073,0.000450,0.523423,0.067071,0.019493,0.117919,-106.246719,229.159683,-20.770809,,,,,,
1465846918.13,2.121611,-0.000478,-1.461331,-0.022946,0.004888,-0.032756,0.852099,0.000478,0.523381,-0.008883,-0.031346,0.058192,-106.246719,229.159683,-20.770809,,,,,,
1465846918.15,2.121162,-0.000584,-1.460452,-0.057046,-0.021634,-0.034752,0.852333,0.000584,0.522999,0.078911,-0.003544,0.066097,-106.246719,229.159683,-20.770809,,,,,,
1465846918.16,2.120387,-0.000805,-1.460420,0.033317,-0.120447,-0.026591,0.852738,0.000805,0.522338,0.107223,-0.001720,0.119904,-106.252975,229.188049,-20.422726,,,,,,
1465846918.17,2.119927,-0.000966,-1.459858,-0.064452,0.000694,-0.044480,0.852978,0.000966,0.521946,0.086658,0.012141,0.111462,-106.252975,229.188049,-20.422726,,,,,,
1465846918.18,2.121055,-0.001262,-1.459497,0.006014,0.162041,-0.041164,0.852389,0.001262,0.522907,0.022443,-0.007198,0.150540,-106.252975,229.188049,-20.422726,,,,,,
1465846918.19,2.124842,-0.001570,-1.459419,0.004208,0.440199,-0.030137,0.850402,0.001570,0.526131,0.034257,0.021548,0.168007,-106.423889,229.126617,-20.221237,,,,,,
1465846918.20,2.129814,-0.001803,-1.459036,-0.029766,0.500769,-0.041195,0.847775,0.001803,0.530353,0.075061,-0.014789,0.114835,-106.423889,229.126617,-20.221237,,,,,,
1465846918.21,2.135083,-0.001789,-1.458636,-0.029775,0.543156,-0.010592,0.844969,0.001789,0.534812,0.058153,-0.000172,0.128899,-106.423889,229.126617,-20.221237,,,,,,
1465846918.22,2.141126,-0.001777,-1.458443,-0.015831,0.614307,-0.017411,0.841722,0.001777,0.539909,0.140273,0.010567,0.143502,-106.414230,228.996185,-21.695873,,,,,,
1465846918.23,2.147367,-0.001839,-1.458069,-0.029629,0.638753,-0.023965,0.838336,0.001839,0.545151,0.154157,0.012031,0.162093,-106.414230,228.996185,-21.695873,,,,,,
1465846918.24,2.154729,-0.002071,-1.457673,-0.016642,0.774713,-0.045029,0.834299,0.002071,0.551308,0.182028,-0.005519,0.182731,-106.414230,228.996185,-21.695873,,,,,,
1465846918.25,2.163196,-0.002490,-1.457214,-0.014379,0.846973,-0.066769,0.829601,0.002490,0.558352,0.210103,-0.006152,0.210585,-106.220047,228.969223,-22.898693,,,,,,
1465846918.26,2.171643,-0.002861,-1.456524,-0.044172,0.857615,-0.070059,0.824854,0.002861,0.565339,0.161062,-0.036583,0.200363,-106.220047,228.969223,-22.898693,,,,,,
1465846918.27,2.180934,-0.003359,-1.455947,-0.001462,0.941496,-0.077993,0.819565,0.003359,0.572977,0.195099,0.010832,0.259085,-106.220047,228.969223,-22.898693,,,,,,
1465846918.28,2.189715,-0.003920,-1.455480,-0.023941,0.856546,-0.071096,0.814500,0.003920,0.580150,0.198012,-0.026182,0.225849,-106.220047,228.969223,-22.898693,,,,,,
1465846918.29,2.197229,-0.004355,-1.454760,-0.019851,0.704715,-0.078655,0.810116,0.004355,0.586253,0.217593,0.016259,0.282415,-105.955093,228.732025,-26.251373,,,,,,
1465846918.30,2.203551,-0.005126,-1.454445,0.022643,0.616585,-0.085511,0.806391,0.005126,0.591361,0.242086,0.014420,0.280877,-105.955093,228.732025,-26.251373,,,,,,
1465846918.31,2.208475,-0.005918,-1.453758,-0.019057,0.436169,-0.109968,0.803466,0.005918,0.595321,0.278443,0.014163,0.322602,-105.857239,228.583649,-27.887459,,,,,,
1465846918.32,2.211306,-0.006726,-1.453215,0.022184,0.232245,-0.094810,0.801773,0.006726,0.597591,0.213409,0.024829,0.341954,-105.857239,228.583649,-27.887459,,,,,,
1465846918.33,2.211337,-0.007858,-1.452931,0.042048,-0.091560,-0.112984,0.801748,0.007858,0.597611,0.243586,0.009033,0.350372,-105.857239,228.583649,-27.887459,,,,,,
1465846918.34,2.207568,-0.008700,-1.452493,0.012779,-0.462193,-0.081948,0.803989,0.008700,0.594580,0.195980,0.013548,0.347513,-106.344620,228.152023,-29.520039,,,,,,
1465846918.35,2.199877,-0.009689,-1.452363,0.062307,-0.894334,-0.093027,0.808531,0.009689,0.588374,0.237856,0.024552,0.395620,-106.344620,228.152023,-29.520039,,,,,,
1465846918.36,2.187341,-0.010699,-1.452458,0.056396,-1.333967,-0.072180,0.815835,0.010699,0.578186,0.149680,0.013624,0.388443,-106.344620,228.152023,-29.520039,,,,,,
1465846918.37,2.172836,-0.011676,-1.452462,0.066881,-1.483651,-0.084004,0.824126,0.011676,0.566286,0.089097,0.025448,0.469862,-107.089859,227.940536,-28.439899,,,,,,
1465846918.38,2.158339,-0.012828,-1.452633,0.076556,-1.411451,-0.085511,0.832237,0.012828,0.554272,-0.018134,0.005559,0.499454,-107.089859,227.940536,-28.439899,,,,,,
1465846918.39,2.144594,-0.014075,-1.452999,0.103234,-1.365804,-0.086836,0.839762,0.014074,0.542772,-0.073664,0.017588,0.549117,-107.089859,227.940536,-28.439899,,,,,,
1465846918.40,2.131001,-0.015353,-1.453131,0.075588,-1.358319,-0.100748,0.847047,0.015353,0.531297,-0.120805,-0.010119,0.543181,-109.257645,227.510620,-23.143723,,,,,,
1465846918.42,2.108433,-0.017805,-1.453413,0.045231,-0.936780,-0.099164,0.858785,0.017804,0.512027,-0.282949,-0.001797,0.516355,-109.257645,227.510620,-23.143723,,,,,,
1465846918.41,2.118557,-0.016603,-1.453405,0.092819,-1.192704,-0.095383,0.853575,0.016603,0.520705,-0.231688,-0.032990,0.551148,-109.257645,227.510620,-23.143723,,,,,,
1465846918.43,2.101448,-0.018643,-1.453650,0.082782,-0.624775,-0.047861,0.862328,0.018642,0.506007,-0.414314,0.041737,0.580571,-110.265755,227.262283,-20.670532,,,,,,
1465846918.44,2.097138,-0.019650,-1.453913,0.056535,-0.379397,-0.081360,0.864484,0.019648,0.502276,-0.378461,-0.011164,0.506467,-110.265755,227.262283,-20.670532,,,,,,
1465846918.45,2.095211,-0.020372,-1.453960,0.048283,-0.121454,-0.054245,0.865438,0.020371,0.500602,-0.479940,-0.026001,0.535271,-110.265755,227.262283,-20.670532,,,,,,
1465846918.46,2.095744,-0.021395,-1.454187,0.063546,0.110102,-0.088680,0.865152,0.021393,0.501053,-0.435373,-0.033906,0.470062,-111.395836,226.887329,-18.629421,,,,,,
1465846918.48,2.102171,-0.023248,-1.454498,0.094782,0.423271,-0.073582,0.861879,0.023246,0.506582,-0.537217,-0.010383,0.464411,-111.395836,226.887329,-18.629421,,,,,,
1465846918.47,2.098211,-0.022203,-1.454122,0.040297,0.295850,-0.061128,0.863898,0.022201,0.503177,-0.521796,0.002671,0.514142,-111.395836,226.887329,-18.629421,,,,,,
1465846918.49,2.107292,-0.024102,-1.454693,0.048044,0.534743,-0.059426,0.859256,0.024100,0.510978,-0.553805,0.008691,0.386895,-111.679535,226.699814,-19.204779,,,,,,
1465846918.50,2.113639,-0.024825,-1.455063,0.080120,0.662108,-0.047419,0.855980,0.024823,0.516413,-0.620552,-0.008786,0.365392,-111.679535,226.699814,-19.204779,,,,,,
1465846918.51,2.120164,-0.025718,-1.455559,0.085438,0.664217,-0.043169,0.852573,0.025715,0.521976,-0.596606,0.011028,0.309140,-111.679535,226.699814,-19.204779,,,,,,
1465846918.53,2.133079,-0.027578,-1.456771,0.096153,0.689745,-0.061414,0.845719,0.027575,0.532916,-0.639313,-0.046160,0.210217,-111.739578,226.381866,-22.348728,,,,,,
1465846918.52,2.126450,-0.026556,-1.456252,0.110926,0.612176,-0.042817,0.849257,0.026553,0.527312,-0.620283,-0.003298,0.286012,-111.739578,226.381866,-22.348728,,,,,,
1465846918.54,2.141009,-0.028705,-1.457487,0.135697,0.818186,-0.055794,0.841439,0.028701,0.539589,-0.679055,-0.024307,0.203789,-111.739578,226.381866,-22.348728,,,,,,
1465846918.55,2.149972,-0.029922,-1.458438,0.136888,0.925416,-0.052207,0.836540,0.029917,0.547089,-0.706748,-0.041514,0.088440,-111.650803,226.229919,-24.250132,,,,,,
1465846918.56,2.159556,-0.030859,-1.459166,0.112402,0.963591,-0.030117,0.831234,0.030854,0.555065,-0.691189,-0.026139,-0.001248,-111.650803,226.229919,-24.250132,,,,,,
1465846918.57,2.169192,-0.031526,-1.460368,0.143178,0.962376,0.019950,0.825830,0.031521,0.563038,-0.718866,-0.003307,-0.048405,-111.650803,226.229919,-24.250132,,,,,,
1465846918.58,2.178239,-0.031921,-1.461835,0.141930,0.880507,0.060911,0.820692,0.031915,0.570479,-0.700239,0.006888,-0.105666,-110.979004,225.942947,-29.451603,,,,,,
1465846918.59,2.186185,-0.032071,-1.463046,0.093905,0.784980,0.057205,0.816130,0.032066,0.576979,-0.618925,0.005105,-0.269285,-110.979004,225.942947,-29.451603,,,,,,
1465846918.60,2.194227,-0.032034,-1.464188,0.094993,0.822111,0.068682,0.811464,0.032028,0.583525,-0.644487,0.037613,-0.264524,-110.979004,225.942947,-29.451603,,,,,,
1465846918.61,2.203968,-0.031957,-1.465526,0.105862,1.035463,0.090772,0.805743,0.031952,0.591402,-0.648089,0.046311,-0.315401,-110.211296,225.985245,-31.907433,,,,,,
1465846918.62,2.215620,-0.031822,-1.467174,0.132641,1.206327,0.116339,0.798801,0.031816,0.600753,-0.505054,0.019957,-0.526626,-110.211296,225.985245,-31.907433,,,,,,
1465846918.63,2.229048,-0.031566,-1.468437,0.058406,1.395447,0.085274,0.790669,0.031561,0.611430,-0.493931,0.011530,-0.503184,-110.211296,225.985245,-31.907433,,,,,,
1465846918.64,2.245218,-0.030932,-1.469013,0.005534,1.704426,0.094992,0.780694,0.030927,0.624147,-0.576425,-0.002240,-0.365465,-107.900810,226.239075,-37.513252,,,,,,
1465846918.65,2.265227,-0.030404,-1.469924,0.041163,2.105755,0.097833,0.768063,0.030400,0.639652,-0.585324,-0.009419,-0.316014,-107.900810,226.239075,-37.513252,,,,,,
1465846918.66,2.289350,-0.029616,-1.470709,-0.006273,2.511343,0.111209,0.752428,0.029612,0.658008,-0.524874,-0.034296,-0.358356,-107.900810,226.239075,-37.513252,,,,,,
1465846918.67,2.316900,-0.028672,-1.471291,-0.017589,2.822466,0.106053,0.734038,0.028668,0.678504,-0.460798,-0.065350,-0.374671,-106.054001,226.418518,-41.486771,,,,,,
1465846918.68,2.346455,-0.027905,-1.471766,-0.020531,2.982870,0.079497,0.713682,0.027902,0.699914,-0.480222,-0.077523,-0.342401,-106.054001,226.418518,-41.486771,,,,,,
1465846918.69,2.376611,-0.027381,-1.471914,-0.024662,3.028626,0.044079,0.692264,0.027378,0.721124,-0.586140,-0.061329,-0.306268,-106.054001,226.418518,-41.486771,,,,,,
1465846918.70,2.408131,-0.026830,-1.473321,0.088150,3.204457,0.178274,0.669204,0.026827,0.742594,-0.108917,-0.020846,-0.609217,-99.982925,226.815186,-52.841560,,,,,,
1465846918.71,2.439136,-0.026304,-1.474556,-0.006669,3.018929,0.092058,0.645871,0.026301,0.762994,0.142047,0.002752,-0.769860,-99.982925,226.815186,-52.841560,,,,,,
1465846918.72,2.465360,-0.025134,-1.474216,-0.112640,2.506243,0.054719,0.625662,0.025131,0.779690,-0.138189,-0.049850,-0.532039,-99.982925,226.815186,-52.841560,,,,,,
1465846918.73,2.490025,-0.024887,-1.475354,0.105506,2.493243,0.109305,0.606246,0.024884,0.794888,0.018541,-0.005948,-0.578625,-95.866104,227.023819,-59.193161,,,,,,
1465846918.74,2.515612,-0.024903,-1.476202,0.002433,2.561417,0.048101,0.585711,0.024900,0.810138,0.031294,-0.041242,-0.659457,-95.866104,227.023819,-59.193161,,,,,,
1465846918.75,2.540774,-0.023944,-1.476209,-0.071146,2.493460,0.062292,0.565156,0.023942,0.824637,0.024078,-0.031953,-0.616446,-95.866104,227.023819,-59.193161,,,,,,
1465846918.76,2.564715,-0.023764,-1.477094,0.058530,2.362714,0.091981,0.545256,0.023761,0.837933,0.132662,-0.020664,-0.630749,-88.749908,227.333344,-68.388237,,,,,,
1465846918.77,2.586601,-0.023321,-1.477747,-0.032229,2.127092,0.074208,0.526793,0.023319,0.849674,0.174928,-0.037677,-0.666202,-88.749908,227.333344,-68.388237,,,,,,
1465846918.78,2.606866,-0.022561,-1.478254,-0.021760,1.992226,0.079322,0.509476,0.022559,0.860189,0.243331,-0.026495,-0.645376,-88.749908,227.333344,-68.388237,,,,,,
1465846918.79,2.625858,-0.022315,-1.478943,0.015358,1.860567,0.071669,0.493051,0.022313,0.869714,0.267844,-0.032796,-0.632165,-85.149368,227.452560,-72.449081,,,,,,
1465846918.80,2.643147,-0.021821,-1.479596,-0.022143,1.680068,0.077022,0.477947,0.021819,0.878117,0.364704,-0.003234,-0.664815,-85.149368,227.452560,-72.449081,,,,,,
1465846918.81,2.657867,-0.021276,-1.480175,-0.019296,1.406116,0.080872,0.464975,0.021274,0.885068,0.409186,-0.005924,-0.656553,-85.149368,227.452560,-72.449081,,,,,,
1465846918.83,2.678550,-0.019860,-1.481692,-0.039212,0.844367,0.107793,0.446584,0.019859,0.894521,0.524928,0.011300,-0.633398,-79.064606,227.752090,-78.177521,,,,,,
1465846918.82,2.669463,-0.020686,-1.480876,-0.023985,1.082236,0.094607,0.454686,0.020685,0.890411,0.440318,-0.008813,-0.654480,-79.064606,227.752090,-78.177521,,,,,,
1465846918.84,2.684678,-0.018913,-1.482365,-0.060886,0.538585,0.107560,0.441102,0.018912,0.897258,0.539794,0.005486,-0.643611,-79.064606,227.752090,-78.177521,,,,,,
1465846918.85,2.688405,-0.017611,-1.483103,-0.092069,0.316645,0.122759,0.437765,0.017610,0.898917,0.588342,-0.005205,-0.579337,-76.975052,227.952682,-79.664062,,,,,,
1465846918.86,2.689894,-0.016139,-1.483741,-0.106180,0.096868,0.120930,0.436437,0.016138,0.899590,0.615443,0.000219,-0.523247,-76.975052,227.952682,-79.664062,,,,,,
1465846918.87,2.689464,-0.014683,-1.484306,-0.107454,-0.086794,0.111436,0.436835,0.014682,0.899422,0.650369,-0.006778,-0.477532,-76.975052,227.952682,-79.664062,,,,,,
1465846918.88,2.687010,-0.013135,-1.484867,-0.120505,-0.291739,0.121224,0.439049,0.013134,0.898367,0.654594,-0.002880,-0.463156,-75.044579,228.582825,-79.700401,,,,,,
1465846918.89,2.682794,-0.011411,-1.485517,-0.122884,-0.474397,0.133011,0.442843,0.011411,0.896527,0.696684,-0.007611,-0.478939,-75.044579,228.582825,-79.700401,,,,,,
1465846918.90,2.676908,-0.009440,-1.486000,-0.168851,-0.624082,0.131775,0.448121,0.009440,0.893923,0.751418,-0.020380,-0.449114,-75.044579,228.582825,-79.700401,,,,,,
1465846918.91,2.669687,-0.007151,-1.486273,-0.190314,-0.757859,0.132593,0.454573,0.007151,0.890681,0.763277,-0.047450,-0.341807,-74.993279,228.962830,-78.650955,,,,,,
1465846918.92,2.660670,-0.004992,-1.486662,-0.169259,-0.942635,0.138031,0.462591,0.004992,0.886558,0.761606,-0.019641,-0.274985,-74.993279,228.962830,-78.650955,,,,,,
1465846918.93,2.650359,-0.002844,-1.487046,-0.175783,-1.060474,0.132376,0.471712,0.002844,0.881748,0.801283,-0.015005,-0.266178,-74.993279,228.962830,-78.650955,,,,,,
1465846918.94,2.638753,-0.000392,-1.487350,-0.213234,-1.184727,0.148021,0.481915,0.000392,0.876218,0.816226,-0.029536,-0.256207,-76.267151,229.892395,-74.610703,,,,,,
1465846918.95,2.625805,0.002386,-1.487587,-0.234728,-1.323848,0.161645,0.493219,-0.002386,0.869902,0.802328,-0.039347,-0.213988,-76.267151,229.892395,-74.610703,,,,,,
1465846918.96,2.612352,0.005353,-1.487788,-0.252864,-1.353566,0.160749,0.504871,-0.005353,0.863178,0.865765,-0.015948,-0.156330,-76.267151,229.892395,-74.610703,,,,,,
1465846918.98,2.583239,0.011908,-1.487578,-0.288104,-1.467109,0.142266,0.529753,-0.011908,0.848069,0.860659,0.001959,0.073486,-77.373901,230.438797,-71.730011,,,,,,
1465846918.97,2.598049,0.008612,-1.487819,-0.286030,-1.464007,0.172053,0.517153,-0.008612,0.855850,0.858839,-0.063196,-0.078903,-77.373901,230.438797,-71.730011,,,,,,
1465846918.99,2.569780,0.014491,-1.486961,-0.235589,-1.311907,0.066833,0.541101,-0.014490,0.840833,0.853949,0.014155,0.152972,-77.373901,230.438797,-71.730011,,,,,,
1465846919.00,2.557757,0.016709,-1.486285,-0.219444,-1.163280,0.072304,0.551151,-0.016708,0.834238,0.835141,-0.036148,0.140005,-79.876923,231.619095,-64.855392,,,,,,
1465846919.01,2.547213,0.018711,-1.485097,-0.236142,-1.033491,-0.015812,0.559897,-0.018710,0.828351,0.963327,0.044940,0.174121,-79.876923,231.619095,-64.855392,,,,,,
1465846919.02,2.536216,0.020220,-1.483318,-0.213804,-1.129989,-0.065213,0.568956,-0.020219,0.822119,0.872267,0.000657,0.349298,-79.876923,231.619095,-64.855392,,,,,,
1465846919.03,2.523597,0.021073,-1.482104,-0.108665,-1.309548,-0.041629,0.579274,-0.021072,0.814861,0.872905,0.001647,0.388493,-116.182526,236.856461,-85.907722,,,,,,
1465846919.04,2.508672,0.021348,-1.481071,-0.095032,-1.541975,-0.081671,0.591367,-0.021346,0.806120,0.954089,0.002486,0.295290,-116.182526,236.856461,-85.907722,,,,,,
1465846919.05,2.492070,0.021823,-1.479272,-0.155807,-1.672438,-0.120298,0.604662,-0.021822,0.796183,0.843763,-0.021239,0.417028,-118.427505,237.032394,-82.280373,,,,,,
1465846919.06,2.475342,0.021816,-1.477819,-0.057851,-1.658707,-0.111771,0.617896,-0.021814,0.785957,0.760171,0.004481,0.533287,-118.427505,237.032394,-82.280373,,,,,,
1465846919.07,2.458539,0.021250,-1.476528,-0.049293,-1.687275,-0.149903,0.631022,-0.021249,0.775474,0.810704,0.000772,0.462945,-118.427505,237.032394,-82.280373,,,,,,
1465846919.08,2.441659,0.020960,-1.474294,-0.132212,-1.666915,-0.202272,0.644025,-0.020958,0.764717,0.737506,0.011162,0.539375,-118.427505,237.032394,-82.280373,,,,,,
1465846919.09,2.425975,0.020177,-1.472273,-0.046856,-1.525738,-0.203072,0.655950,-0.020176,0.754535,0.601862,0.012012,0.692609,-124.515450,236.780472,-73.555473,,,,,,
1465846919.10,2.410949,0.019119,-1.470687,-0.030906,-1.511996,-0.183982,0.667228,-0.019118,0.744609,0.556344,-0.001329,0.701650,-124.515450,236.780472,-73.555473,,,,,,
1465846919.11,2.394616,0.018363,-1.469040,-0.059889,-1.680840,-0.171243,0.679309,-0.018362,0.733622,0.531247,-0.032999,0.683660,-124.515450,236.780472,-73.555473,,,,,,
1465846919.12,2.377330,0.017511,-1.467487,-0.033307,-1.731782,-0.184735,0.691899,-0.017510,0.721782,0.450359,-0.010444,0.770878,-130.712433,236.005814,-64.768898,,,,,,
1465846919.13,2.361319,0.016248,-1.465441,-0.052127,-1.522483,-0.227580,0.703381,-0.016247,0.710627,0.135425,0.015835,0.997930,-130.712433,236.005814,-64.768898,,,,,,
1465846919.14,2.348997,0.014506,-1.464213,0.077127,-1.117059,-0.186351,0.712103,-0.014506,0.701925,0.067667,0.028285,0.981730,-130.712433,236.005814,-64.768898,,,,,,
1465846919.15,2.338507,0.012465,-1.464615,0.173918,-1.097106,-0.123578,0.719447,-0.012465,0.694436,0.713369,-0.067461,0.467582,-133.746109,235.528641,-60.147568,,,,,,
1465846919.16,2.322983,0.011277,-1.463000,-0.102463,-1.734856,-0.212461,0.730150,-0.011277,0.683194,0.964949,-0.019531,0.396503,-133.746109,235.528641,-60.147568,,,,,,
1465846919.17,2.300761,0.009547,-1.460736,-0.002952,-2.330340,-0.294847,0.745164,-0.009547,0.666813,0.572173,0.023768,0.722759,-135.858002,234.965622,-57.560875,,,,,,
1465846919.18,2.278940,0.007231,-1.459815,0.099405,-2.065202,-0.201672,0.759551,-0.007231,0.650408,0.089555,0.050718,1.009519,-135.858002,234.965622,-57.560875,,,,,,
1465846919.19,2.261622,0.005540,-1.459924,0.114622,-1.666232,-0.109423,0.770708,-0.005540,0.637164,0.273069,-0.060073,0.806928,-135.858002,234.965622,-57.560875,,,,,,
1465846919.20,2.242023,0.004256,-1.459101,-0.024259,-2.139551,-0.170460,0.783052,-0.004256,0.621942,0.518050,-0.067201,0.678321,-135.858002,234.965622,-57.560875,,,,,,
1465846919.21,2.214087,0.003104,-1.457558,-0.035910,-2.953924,-0.173880,0.800122,-0.003104,0.599829,0.156466,-0.002709,0.889658,-141.827087,233.755417,-47.148510,,,,,,
1465846919.22,2.186313,0.001714,-1.457695,0.130432,-2.624021,-0.090627,0.816474,-0.001714,0.577380,-0.028846,0.007054,0.987806,-141.827087,233.755417,-47.148510,,,,,,
1465846919.23,2.164879,0.000483,-1.457598,0.010911,-2.019746,-0.112631,0.828662,-0.000483,0.559749,0.018399,-0.044973,0.850377,-141.827087,233.755417,-47.148510,,,,,,
1465846919.24,2.145177,-0.000106,-1.456325,-0.071028,-1.992083,-0.118209,0.839529,0.000106,0.543315,-0.010748,0.000153,0.863057,-146.999435,232.921448,-33.440376,,,,,,
1465846919.25,2.124826,-0.001122,-1.456307,0.090693,-2.027306,-0.080571,0.850411,0.001122,0.526118,-0.002709,0.013892,0.919072,-146.999435,232.921448,-33.440376,,,,,,
1465846919.26,2.106011,-0.002122,-1.456000,-0.018651,-1.820112,-0.113913,0.860157,0.002122,0.510024,0.006496,-0.036775,0.870881,-146.999435,232.921448,-33.440376,,,,,,
1465846919.27,2.090247,-0.002911,-1.454689,-0.062906,-1.487681,-0.139460,0.868088,0.002911,0.496402,-0.133332,0.001987,0.921644,-148.696472,232.624878,-27.468464,,,,,,
1465846919.28,2.078426,-0.004239,-1.454407,0.067474,-1.085380,-0.128014,0.873891,0.004239,0.486103,-0.219716,0.019626,0.971844,-148.696472,232.624878,-27.468464,,,,,,
1465846919.29,2.069792,-0.005514,-1.453981,-0.005621,-0.797580,-0.135214,0.878050,0.005514,0.478537,-0.247755,-0.020437,0.898233,-148.696472,232.624878,-27.468464,,,,,,
1465846919.30,2.063764,-0.006573,-1.453026,-0.024453,-0.538479,-0.141116,0.880913,0.006573,0.473232,-0.287087,-0.002346,0.889683,-151.136459,231.875641,-19.260208,,,,,,
1465846919.31,2.060722,-0.007930,-1.452745,0.053648,-0.224250,-0.133429,0.882340,0.007930,0.470545,-0.330857,0.006932,0.920629,-151.136459,231.875641,-19.260208,,,,,,
1465846919.32,2.060654,-0.009248,-1.452328,0.010347,0.056090,-0.136295,0.882362,0.009248,0.470480,-0.349922,-0.008546,0.884988,-151.933868,231.463318,-17.897911,,,,,,
1465846919.33,2.062709,-0.010601,-1.451688,0.014881,0.249380,-0.153469,0.881382,0.010601,0.472286,-0.398716,-0.012905,0.868565,-151.933868,231.463318,-17.897911,,,,,,
1465846919.34,2.066587,-0.012181,-1.451377,0.055571,0.433052,-0.154580,0.879528,0.012180,0.475692,-0.472835,-0.007984,0.846970,-151.933868,231.463318,-17.897911,,,,,,
1465846919.35,2.071957,-0.013778,-1.451131,0.052534,0.570005,-0.147991,0.876942,0.013777,0.480398,-0.540425,-0.015379,0.767344,-152.558044,231.022903,-18.274639,,,,,,
1465846919.36,2.078146,-0.015345,-1.450824,0.050481,0.629470,-0.149431,0.873932,0.015345,0.485805,-0.561219,-0.005060,0.712879,-152.558044,231.022903,-18.274639,,,,,,
1465846919.37,2.084107,-0.016815,-1.450798,0.075923,0.576306,-0.126718,0.871000,0.016815,0.490995,-0.587248,-0.008132,0.669268,-152.558044,231.022903,-18.274639,,,,,,
1465846919.38,2.089088,-0.018328,-1.450929,0.089625,0.475410,-0.119685,0.868521,0.018327,0.495314,-0.614920,-0.005998,0.612337,-152.558044,231.022903,-18.274639,,,,,,
1465846919.39,2.093097,-0.019792,-1.451085,0.085232,0.366049,-0.120068,0.866504,0.019791,0.498778,-0.620578,-0.018021,0.577760,-153.481155,230.079315,-22.057747,,,,,,
1465846919.40,2.095247,-0.021279,-1.451479,0.122207,0.163177,-0.100663,0.865403,0.021277,0.500624,-0.680696,0.005792,0.521577,-153.481155,230.079315,-22.057747,,,,,,
1465846919.41,2.096286,-0.022694,-1.452102,0.117847,0.096262,-0.091733,0.864855,0.022692,0.501508,-0.698733,-0.014559,0.463275,-153.836746,229.664108,-23.835907,,,,,,
1465846919.42,2.096721,-0.024064,-1.452651,0.126252,0.013425,-0.086947,0.864610,0.024061,0.501868,-0.750459,-0.001310,0.460306,-153.836746,229.664108,-23.835907,,,,,,
1465846919.43,2.095718,-0.025515,-1.453723,0.175007,-0.132122,-0.065761,0.865081,0.025513,0.500982,-0.802810,-0.024246,0.372232,-153.836746,229.664108,-23.835907,,,,,,
1465846919.44,2.093848,-0.026878,-1.454612,0.133419,-0.203207,-0.078130,0.865986,0.026875,0.499346,-0.804035,-0.023838,0.290144,-154.604889,228.976364,-25.429371,,,,,,
1465846919.45,2.091693,-0.028164,-1.455572,0.162113,-0.210715,-0.055701,0.867029,0.028160,0.497461,-0.876032,-0.010308,0.258841,-154.604889,228.976364,-25.429371,,,,,,
1465846919.46,2.089556,-0.029542,-1.456977,0.192971,-0.216057,-0.049250,0.868056,0.029538,0.495587,-0.891768,-0.026379,0.194919,-154.604889,228.976364,-25.429371,,,,,,
1465846919.47,2.086999,-0.030803,-1.458308,0.172672,-0.263840,-0.044713,0.869287,0.030798,0.493347,-0.862802,-0.048987,0.060654,-154.604889,228.976364,-25.429371,,,,,,
1465846919.48,2.083889,-0.032076,-1.459603,0.178987,-0.324363,-0.045391,0.870782,0.032071,0.490621,-0.864114,-0.042676,-0.018240,-155.351868,228.450150,-25.608994,,,,,,
1465846919.49,2.080608,-0.033272,-1.460894,0.166205,-0.320124,-0.040108,0.872353,0.033266,0.487742,-0.872964,-0.020128,-0.057277,-155.351868,228.450150,-25.608994,,,,,,
1465846919.50,2.077158,-0.034384,-1.462233,0.179973,-0.355211,-0.024972,0.873998,0.034377,0.484712,-0.902837,-0.005400,-0.070986,-155.351868,228.450150,-25.608994,,,,,,
1465846919.51,2.073446,-0.035331,-1.464040,0.204390,-0.359562,0.008077,0.875762,0.035323,0.481449,-0.890243,-0.028365,-0.169574,-97.786240,228.608322,-46.653229,,,,,,
1465846919.52,2.069796,-0.036134,-1.465543,0.155432,-0.356331,0.000557,0.877488,0.036127,0.478235,-0.823762,-0.031274,-0.281168,-97.786240,228.608322,-46.653229,,,,,,
1465846919.53,2.066199,-0.036751,-1.467039,0.166046,-0.357442,0.016541,0.879183,0.036743,0.475065,-0.806216,-0.025833,-0.329633,-97.786240,228.608322,-46.653229,,,,,,
1465846919.54,2.062519,-0.037242,-1.468570,0.153217,-0.370227,0.034704,0.880910,0.037233,0.471818,-0.789693,-0.015657,-0.353074,-98.470695,228.269394,-46.872604,,,,,,
1465846919.55,2.058110,-0.037359,-1.470376,0.180655,-0.467035,0.097077,0.882977,0.037350,0.467927,-0.751843,0.013950,-0.436448,-98.470695,228.269394,-46.872604,,,,,,
1465846919.56,2.052497,-0.037212,-1.472676,0.190046,-0.574361,0.126500,0.885595,0.037204,0.462967,-0.515645,0.013394,-0.744278,-98.470695,228.269394,-46.872604,,,,,,
1465846919.57,2.045732,-0.036591,-1.474167,0.072763,-0.703842,0.127195,0.888727,0.036583,0.456975,-0.296579,0.012978,-0.914311,-98.606911,228.220474,-46.824448,,,,,,
1465846919.59,2.029835,-0.034227,-1.476539,0.035354,-0.762319,0.162651,0.895954,0.034221,0.442827,-0.180469,0.031163,-0.827684,-98.606911,228.220474,-46.824448,,,,,,
1465846919.58,2.037750,-0.035489,-1.475371,0.060851,-0.815408,0.157687,0.892381,0.035481,0.449885,-0.208559,0.033244,-0.921519,-98.606911,228.220474,-46.824448,,,,,,
1465846919.61,2.025747,-0.031489,-1.477711,-0.001601,0.298502,0.133608,0.897837,0.031484,0.439200,-0.447657,-0.006307,-0.423713,-98.617043,228.585983,-44.983971,,,,,,
1465846919.60,2.024659,-0.032763,-1.477163,-0.016355,-0.394907,0.159231,0.898278,0.032757,0.438205,-0.298928,0.002231,-0.647388,-98.617043,228.585983,-44.983971,,,,,,
1465846919.62,2.035251,-0.030451,-1.478150,-0.013228,1.181986,0.106766,0.893651,0.030446,0.447728,-0.615896,-0.029637,-0.257939,-98.617043,228.585983,-44.983971,,,,,,
1465846919.63,2.054378,-0.029534,-1.478416,-0.017305,2.147217,0.082613,0.884949,0.029530,0.464750,-0.701966,-0.043095,-0.162458,-98.117943,228.885620,-44.549675,,,,,,
1465846919.64,2.081519,-0.028898,-1.478645,-0.007846,2.884127,0.069485,0.872027,0.028894,0.488604,-0.792193,-0.036630,-0.127230,-98.117943,228.885620,-44.549675,,,,,,
1465846919.65,2.113785,-0.028410,-1.478849,-0.007259,3.322701,0.048639,0.855823,0.028406,0.516489,-0.833652,-0.046076,-0.151346,-98.117943,228.885620,-44.549675,,,,,,
1465846919.66,2.148903,-0.028160,-1.479250,0.035638,3.558418,0.040817,0.837166,0.028156,0.546223,-0.890191,-0.049167,-0.192509,-93.080772,229.219513,-52.866028,,,,,,
1465846919.67,2.185358,-0.028074,-1.480050,0.061288,3.662415,0.057222,0.816704,0.028070,0.576374,-0.903633,-0.056589,-0.339511,-93.080772,229.219513,-52.866028,,,,,,
1465846919.68,2.223496,-0.026646,-1.481880,0.067466,3.884716,0.300657,0.794165,0.026643,0.607118,-0.660879,-0.040834,-0.599580,-93.080772,229.219513,-52.866028,,,,,,
1465846919.69,2.258484,-0.024760,-1.483078,-0.086349,3.242830,0.149120,0.772479,0.024758,0.634557,0.460141,0.075263,-1.110952,-88.838135,229.258743,-59.570499,,,,,,
1465846919.71,2.298726,-0.021294,-1.483646,0.131146,1.864349,0.213333,0.746384,0.021292,0.665175,0.059555,-0.094901,-0.613310,-88.838135,229.258743,-59.570499,,,,,,
1465846919.70,2.280767,-0.022576,-1.481985,-0.222072,1.924259,0.113611,0.758188,0.022574,0.651646,0.326422,-0.007529,-0.980595,-88.838135,229.258743,-59.570499,,,,,,
1465846919.72,2.318991,-0.021010,-1.484889,-0.002495,2.035779,0.062037,0.732757,0.021008,0.680167,0.462251,-0.000424,-0.772101,-79.811333,229.986115,-68.825623,,,,,,
1465846919.73,2.337185,-0.019651,-1.484218,-0.138109,1.736395,0.072295,0.720281,0.019650,0.693404,0.347438,-0.060253,-0.818725,-79.811333,229.986115,-68.825623,,,,,,
1465846919.74,2.351265,-0.019179,-1.485272,0.090171,1.281735,0.109437,0.710453,0.019178,0.703483,0.358074,-0.047514,-0.730460,-79.811333,229.986115,-68.825623,,,,,,
1465846919.75,2.360145,-0.018382,-1.486118,-0.052081,0.779556,0.118831,0.704189,0.018381,0.709775,0.441746,0.001105,-0.818738,-76.741714,230.159882,-71.676811,,,,,,
1465846919.76,2.366002,-0.016780,-1.486238,-0.092837,0.553395,0.126596,0.700040,0.016779,0.713907,0.465595,-0.025263,-0.788965,-76.741714,230.159882,-71.676811,,,,,,
1465846919.77,2.371045,-0.015762,-1.487049,-0.004558,0.482204,0.129259,0.696442,0.015761,0.717440,0.486908,-0.013091,-0.679309,-76.741714,230.159882,-71.676811,,,,,,
1465846919.79,2.377351,-0.012886,-1.487557,-0.093276,0.179681,0.114037,0.691933,0.012886,0.721847,0.577858,0.001305,-0.648605,-73.175514,230.570038,-74.048920,,,,,,
1465846919.78,2.375092,-0.014401,-1.487479,-0.093056,0.360179,0.116098,0.693547,0.014401,0.720268,0.535366,-0.011425,-0.660392,-73.175514,230.570038,-74.048920,,,,,,
1465846919.80,2.378293,-0.011529,-1.487977,-0.067892,0.061779,0.125446,0.691264,0.011529,0.722511,0.584829,-0.006280,-0.586021,-73.175514,230.570038,-74.048920,,,,,,
1465846919.81,2.378607,-0.009827,-1.488080,-0.129689,0.019353,0.120328,0.691049,0.009827,0.722741,0.616400,-0.013428,-0.575707,-72.162964,230.868912,-74.111282,,,,,,
1465846919.83,2.378271,-0.006265,-1.488165,-0.129788,-0.046502,0.129257,0.691312,0.006265,0.722529,0.673297,-0.027673,-0.503139,-72.162964,230.868912,-74.111282,,,,,,
1465846919.82,2.378620,-0.008043,-1.488085,-0.123335,-0.001898,0.124725,0.691051,0.008043,0.722761,0.633427,-0.022538,-0.540800,-72.162964,230.868912,-74.111282,,,,,,
1465846919.84,2.377138,-0.004244,-1.487966,-0.169270,-0.126100,0.123330,0.692137,0.004244,0.721753,0.729341,-0.049502,-0.467374,-70.934326,231.549133,-73.169327,,,,,,
1465846919.85,2.375713,-0.002341,-1.487696,-0.152207,-0.131371,0.106349,0.693169,0.002341,0.720771,0.754966,-0.037528,-0.361274,-70.934326,231.549133,-73.169327,,,,,,
1465846919.86,2.374543,-0.000705,-1.487455,-0.134051,-0.100564,0.097658,0.694014,0.000705,0.719961,0.769121,-0.022677,-0.262091,-70.934326,231.549133,-73.169327,,,,,,
1465846919.87,2.373893,0.000966,-1.487042,-0.155248,-0.051661,0.079234,0.694481,-0.000966,0.719510,0.781639,-0.025294,-0.211743,-70.569504,231.946854,-72.256676,,,,,,
1465846919.88,2.374141,0.002508,-1.486389,-0.155047,0.064152,0.050833,0.694301,-0.002508,0.719680,0.783390,0.011831,-0.148986,-70.569504,231.946854,-72.256676,,,,,,
1465846919.89,2.376278,0.003625,-1.485556,-0.129172,0.254316,0.008152,0.692759,-0.003625,0.721160,0.786824,0.022088,-0.032271,-70.276978,232.279083,-71.470276,,,,,,
1465846919.90,2.379976,0.004494,-1.484805,-0.111947,0.401904,0.005115,0.690085,-0.004494,0.723714,0.759530,0.007775,0.015452,-70.276978,232.279083,-71.470276,,,,,,
1465846919.92,2.388468,0.006165,-1.482571,-0.147056,0.362740,-0.032995,0.683909,-0.006165,0.729541,0.856466,-0.004653,-0.016330,-70.276978,232.279083,-71.470276,,,,,,
1465846919.91,2.384496,0.005304,-1.483786,-0.134186,0.450840,-0.025019,0.686804,-0.005304,0.726823,0.813837,0.005960,-0.013902,-70.276978,232.279083,-71.470276,,,,,,
1465846919.93,2.391424,0.007131,-1.481339,-0.151454,0.273513,-0.018602,0.681745,-0.007131,0.731555,0.839694,-0.014934,0.077847,-69.371925,232.707458,-70.959190,,,,,,
1465846919.94,2.393418,0.007927,-1.480220,-0.127074,0.177953,-0.023300,0.680280,-0.007927,0.732909,0.834887,-0.000984,0.178941,-69.371925,232.707458,-70.959190,,,,,,
1465846919.95,2.393994,0.008616,-1.478990,-0.140006,0.010271,-0.049937,0.679855,-0.008616,0.733296,0.881654,-0.003454,0.192195,-69.004478,232.883453,-70.739677,,,,,,
1465846919.96,2.392204,0.009372,-1.477485,-0.160522,-0.234966,-0.059064,0.681162,-0.009371,0.732073,0.880682,-0.012601,0.235380,-69.004478,232.883453,-70.739677,,,,,,
1465846919.97,2.388391,0.009957,-1.476194,-0.118179,-0.431421,-0.057790,0.683944,-0.009957,0.729467,0.818208,-0.009071,0.357783,-69.004478,232.883453,-70.739677,,,,,,
1465846919.98,2.382767,0.010295,-1.474850,-0.125787,-0.591685,-0.080210,0.688033,-0.010295,0.725606,0.799195,0.008449,0.391581,-116.979210,234.991653,-68.166351,,,,,,
1465846919.99,2.376339,0.010642,-1.473267,-0.130087,-0.646858,-0.093706,0.692681,-0.010642,0.721166,0.730507,0.006659,0.468638,-116.979210,234.991653,-68.166351,,,,,,
1465846920.01,2.364454,0.010424,-1.470597,-0.071375,-0.559761,-0.115483,0.701204,-0.010424,0.712885,0.584517,0.025057,0.605856,-118.174675,234.966125,-66.162827,,,,,,
1465846920.00,2.370115,0.010635,-1.471895,-0.086369,-0.610753,-0.103469,0.697156,-0.010635,0.716841,0.644885,0.007873,0.549227,-118.174675,234.966125,-66.162827,,,,,,
1465846920.02,2.359033,0.009953,-1.469212,-0.061726,-0.532115,-0.131613,0.705062,-0.009953,0.709076,0.559785,0.008641,0.616409,-118.174675,234.966125,-66.162827,,,,,,
1465846920.03,2.354220,0.009250,-1.468065,-0.023288,-0.456729,-0.138435,0.708471,-0.009250,0.705679,0.495524,0.012378,0.656214,-118.174675,234.966125,-66.162827,,,,,,
1465846920.04,2.350634,0.008497,-1.466781,-0.044413,-0.330349,-0.144571,0.711002,-0.008497,0.703138,0.449597,-0.007952,0.665529,-120.699234,234.577438,-62.904507,,,,,,
1465846920.05,2.347548,0.007699,-1.465521,-0.027355,-0.309128,-0.142558,0.713173,-0.007699,0.700945,0.419960,0.006616,0.672880,-120.699234,234.577438,-62.904507,,,,,,
1465846920.06,2.344182,0.006916,-1.464415,-0.026364,-0.352688,-0.132704,0.715533,-0.006916,0.698545,0.394712,-0.012387,0.677859,-120.699234,234.577438,-62.904507,,,,,,
1465846920.07,2.339324,0.006171,-1.463166,-0.043612,-0.535286,-0.140091,0.718921,-0.006171,0.695064,0.358533,-0.010705,0.700977,-121.792236,234.271637,-61.929874,,,,,,
1465846920.08,2.332917,0.005443,-1.461896,-0.038449,-0.670126,-0.143498,0.723363,-0.005443,0.690447,0.266292,0.003551,0.758269,-121.792236,234.271637,-61.929874,,,,,,
1465846920.09,2.325938,0.004623,-1.460925,-0.006595,-0.711602,-0.125111,0.728167,-0.004623,0.685384,0.256544,-0.009690,0.732783,-121.792236,234.271637,-61.929874,,,,,,
1465846920.10,2.318264,0.003817,-1.459936,-0.024794,-0.798646,-0.129905,0.733407,-0.003817,0.679779,0.247565,-0.005674,0.722519,-124.361443,233.677933,-58.997540,,,,,,
1465846920.11,2.308754,0.003022,-1.458729,-0.032479,-1.002476,-0.140343,0.739841,-0.003022,0.672775,0.150631,-0.001174,0.763611,-124.361443,233.677933,-58.997540,,,,,,
1465846920.12,2.298055,0.002062,-1.457800,0.003613,-1.082142,-0.135550,0.746998,-0.002062,0.664823,0.093838,0.000613,0.766528,-124.361443,233.677933,-58.997540,,,,,,
1465846920.13,2.286975,0.001037,-1.456867,-0.010268,-1.105509,-0.130095,0.754319,-0.001037,0.656507,0.023970,0.000915,0.771121,-125.977928,233.374573,-56.725033,,,,,,
1465846920.14,2.275891,0.000114,-1.456092,0.009935,-1.117216,-0.123615,0.761550,-0.000114,0.648106,0.045212,0.000541,0.745159,-125.977928,233.374573,-56.725033,,,,,,
1465846920.15,2.263692,-0.000966,-1.455382,0.009763,-1.260548,-0.126974,0.769399,0.000966,0.638767,-0.004644,-0.000431,0.745479,-125.977928,233.374573,-56.725033,,,,,,
1465846920.16,2.250357,-0.001867,-1.454603,-0.001010,-1.347634,-0.117923,0.777847,0.001867,0.628451,-0.042938,0.006388,0.759748,-129.618439,232.704330,-50.986408,,,,,,
1465846920.17,2.236916,-0.002921,-1.454145,0.037315,-1.340241,-0.110480,0.786222,0.002921,0.617937,-0.050580,-0.009070,0.762907,-129.618439,232.704330,-50.986408,,,,,,
1465846920.18,2.223407,-0.003934,-1.453657,0.013864,-1.369945,-0.115639,0.794495,0.003934,0.607258,-0.049012,-0.009778,0.744915,-129.618439,232.704330,-50.986408,,,,,,
1465846920.19,2.208985,-0.004949,-1.452992,0.013758,-1.463369,-0.120376,0.803166,0.004949,0.595735,-0.085118,0.001765,0.778304,-131.472443,232.391098,-47.552475,,,,,,
1465846920.20,2.193703,-0.006330,-1.452687,0.065852,-1.547239,-0.133636,0.812170,0.006330,0.583386,-0.169851,-0.009931,0.762958,-131.472443,232.391098,-47.552475,,,,,,
1465846920.21,2.178208,-0.007633,-1.452344,0.038156,-1.532404,-0.117789,0.821104,0.007633,0.570728,-0.211454,-0.007831,0.741894,-131.472443,232.391098,-47.552475,,,,,,
1465846920.22,2.163213,-0.008870,-1.451987,0.045666,-1.492051,-0.121228,0.829561,0.008870,0.558346,-0.230821,-0.004796,0.747349,-135.172653,231.683670,-40.036194,,,,,,
1465846920.24,2.131324,-0.011462,-1.451755,0.065663,-1.667276,-0.113723,0.846919,0.011462,0.531598,-0.316386,-0.005511,0.719684,-135.172653,231.683670,-40.036194,,,,,,
1465846920.23,2.147744,-0.010160,-1.451833,0.059397,-1.566407,-0.112233,0.838088,0.010160,0.545440,-0.262420,0.004992,0.747300,-135.172653,231.683670,-40.036194,,,,,,
1465846920.25,2.114557,-0.012773,-1.451756,0.068846,-1.677892,-0.114718,0.855699,0.012773,0.517316,-0.356615,-0.005098,0.713214,-136.884491,231.322006,-36.119606,,,,,,
1465846920.26,2.098014,-0.014126,-1.451785,0.076337,-1.644986,-0.112788,0.864124,0.014126,0.503080,-0.420124,0.004841,0.709276,-136.884491,231.322006,-36.119606,,,,,,
1465846920.27,2.081816,-0.015455,-1.452071,0.093390,-1.612111,-0.101268,0.872142,0.015455,0.489009,-0.431590,-0.002988,0.682470,-136.884491,231.322006,-36.119606,,,,,,
1465846920.28,2.065630,-0.016725,-1.452311,0.077412,-1.614232,-0.099142,0.879925,0.016724,0.474818,-0.478390,-0.007996,0.692830,-140.006470,230.617523,-27.669697,,,,,,
1465846920.29,2.049892,-0.018002,-1.452656,0.096663,-1.551618,-0.099514,0.887268,0.018001,0.460902,-0.511658,-0.004879,0.696798,-140.006470,230.617523,-27.669697,,,,,,
1465846920.30,2.035068,-0.019419,-1.453247,0.118078,-1.450766,-0.096932,0.893979,0.019418,0.447687,-0.545469,-0.033227,0.663763,-140.006470,230.617523,-27.669697,,,,,,
1465846920.31,2.021692,-0.020827,-1.453605,0.086363,-1.288262,-0.109691,0.899862,0.020826,0.435677,-0.605489,-0.027860,0.674689,-141.276779,230.297180,-23.578358,,,,,,
1465846920.32,2.009990,-0.022316,-1.454137,0.128078,-1.138566,-0.111653,0.904869,0.022314,0.425104,-0.672356,-0.022711,0.620184,-141.276779,230.297180,-23.578358,,,,,,
1465846920.33,1.999678,-0.023943,-1.454914,0.134653,-0.990976,-0.113637,0.909171,0.023941,0.415735,-0.716239,-0.024704,0.566077,-141.276779,230.297180,-23.578358,,,,,,
1465846920.34,1.991671,-0.025387,-1.455409,0.103015,-0.742510,-0.110969,0.912438,0.025384,0.408427,-0.774376,0.002097,0.554204,-143.307892,229.582870,-17.504440,,,,,,
1465846920.35,1.985735,-0.026821,-1.456263,0.149007,-0.545090,-0.093001,0.914812,0.026818,0.402989,-0.817263,0.003852,0.487392,-143.307892,229.582870,-17.504440,,,,,,
1465846920.36,1.982007,-0.028147,-1.457102,0.116280,-0.313615,-0.089163,0.916275,0.028143,0.399561,-0.848236,0.002664,0.460440,-143.307892,229.582870,-17.504440,,,,,,
1465846920.37,1.980133,-0.029379,-1.457854,0.129239,-0.148016,-0.077415,0.916989,0.029375,0.397829,-0.914243,0.014021,0.379621,-144.017014,229.244568,-16.058773,,,,,,
1465846920.39,1.982774,-0.031464,-1.459920,0.114827,0.303158,-0.044068,0.915877,0.031459,0.400224,-0.935775,0.011876,0.216536,-144.017014,229.244568,-16.058773,,,,,,
1465846920.38,1.980327,-0.030499,-1.459012,0.148651,0.085507,-0.055443,0.916881,0.030494,0.397994,-0.904949,0.010979,0.288377,-144.017014,229.244568,-16.058773,,,,,,
1465846920.40,1.987153,-0.032246,-1.460966,0.132064,0.491042,-0.028198,0.914093,0.032240,0.404221,-0.932800,0.008363,0.151855,-144.701218,228.757111,-16.840466,,,,,,
1465846920.41,1.993283,-0.032946,-1.462167,0.137558,0.655569,-0.011129,0.911577,0.032940,0.409807,-0.908953,-0.006085,0.087278,-144.701218,228.757111,-16.840466,,,,,,
1465846920.42,2.000787,-0.033568,-1.463239,0.118560,0.790424,-0.010929,0.908458,0.033562,0.416627,-0.913508,-0.012795,0.053664,-144.701218,228.757111,-16.840466,,,,,,
1465846920.43,2.009210,-0.034144,-1.464580,0.154820,0.864685,0.005673,0.904899,0.034137,0.424256,-0.872260,-0.032184,-0.071183,-144.613541,228.645172,-18.978146,,,,,,
1465846920.44,2.018497,-0.034689,-1.465778,0.117681,0.962396,0.002894,0.900903,0.034682,0.432634,-0.860329,-0.026366,-0.131593,-144.613541,228.645172,-18.978146,,,,,,
1465846920.45,2.028839,-0.035092,-1.466869,0.123111,1.062176,0.011854,0.896368,0.035084,0.441921,-0.856832,-0.030141,-0.188320,-144.613541,228.645172,-18.978146,,,,,,
1465846920.46,2.040211,-0.035513,-1.468358,0.157254,1.159775,0.036822,0.891271,0.035505,0.452079,-0.773214,-0.019758,-0.298011,-93.802811,229.468964,-50.634560,,,,,,
1465846920.47,2.051620,-0.035811,-1.469561,0.102951,1.144960,0.028345,0.886046,0.035804,0.462213,-0.751524,-0.028083,-0.391916,-93.802811,229.468964,-50.634560,,,,,,
