timestamp(unix),user_acc_xAshu,user_acc_x23,user_acc_x22,user_acc_x21,user_acc_x20
1475015818,-0.029202,-0.006138,-0.00552,0.023073,-0.795584
1475015818,-0.023848,0.003351,0.001751,-0.001351,-0.813212
1475015818,-0.013,0.005324,0.016801,-0.015503,-0.810833
1475015818,0.022025,0.017215,0.035674,-0.021542,-0.817402
1475015818,0.027297,0.022041,0.049565,-0.011408,-0.81517
1475015818,0.015164,0.016304,0.063894,-0.009052,
1475015818,-0.015675,-0.001999,0.071641,-0.004667,-0.818967
1475015818,-0.010014,,,0.012716,-0.813281
1475015818,-0.015913,,0.074274,0.007568,-0.810203
1475015818,-0.019621,-0.014786,0.064871,,-0.807935
1475015818,-0.015609,,0.042255,0.004412,-0.814553
1475015818,-0.015964,-0.032932,0.022738,-0.001584,-0.82307
1475015818,-0.014172,-0.026747,0.019959,-0.011868,-0.810511
1475015818,-0.016845,,0.004714,-0.01127,-0.828625
1475015818,-0.017495,-0.022499,-0.011419,-0.017204,-0.781525
1475015818,-0.0242,,-0.037468,-0.026679,-0.761108
1475015818,-0.023102,-0.012924,-0.051849,-0.039039,-0.759011
1475015818,-0.023692,-0.005001,-0.025274,-0.043153,-0.775167
1475015818,-0.001518,-0.001839,-0.000122,-0.059732,-0.794935
1475015818,-0.001064,-0.000562,0.008516,-0.065852,-0.793771
1475015818,0.007029,0.006658,0.017002,,-0.789202
1475015818,0.016073,0.014586,,-0.07866,-0.781324
1475015818,0.016611,0.026472,0.023123,,-0.780743
1475015818,0.011852,0.032628,,-0.086524,-0.788521
1475015818,-0.005698,0.031153,0.010086,-0.095552,-0.787794
1475015818,-0.004637,0.021045,-0.00646,-0.139385,-0.786623
1475015818,-0.010217,0.015458,-0.017522,-0.144008,-0.788561
1475015818,-0.013653,0.007654,-0.018991,-0.141225,
1475015818,-0.013508,0.006206,0.002525,-0.153006,
1475015818,-0.011348,0.017286,0.013009,-0.147727,-0.803579
1475015818,-0.004265,0.02895,0.026765,-0.17389,-0.799285
1475015818,-0.003116,0.040544,0.051343,-0.109356,-0.81922
1475015818,0.000026,0.047801,0.069145,-0.062561,-0.81632
1475015818,0.015616,0.05329,0.066373,-0.024817,-0.806318
1475015818,0.014625,0.053831,0.053858,-0.010266,-0.796352
1475015818,0.022295,0.052442,0.033854,0.069669,-0.775392
1475015818,0.010473,0.05808,0.030122,0.11608,-0.763758
1475015818,0.010851,0.078699,0.052378,0.117115,-0.74675
1475015818,0.005771,0.142962,0.072066,,-0.725491
1475015818,0.004832,0.182316,0.09542,0.171931,-0.71554
1475015818,0.00519,0.143349,0.127632,0.162865,
1475015818,0.010301,0.133513,0.156622,0.157189,-0.714012
1475015818,0.014407,0.107304,0.154105,0.202133,-0.703847
1475015818,0.009311,0.071863,0.153528,0.247384,-0.676213
1475015818,0.010503,0.062056,,0.16612,-0.651506
1475015818,0.004366,0.099618,0.158329,-0.178222,-0.638066
1475015818,0.00572,0.121981,0.210209,0.032813,-0.626835
1475015818,0.007331,0.118014,0.212901,-0.34656,-0.622206
1475015818,0.000939,0.102445,0.229284,-0.335071,-0.643199
1475015818,-0.001175,0.089606,0.246866,-0.042204,-0.687125
1475015818,0.000398,0.040845,0.217182,0.250047,-0.671906
1475015818,-0.005128,0.078516,0.346984,0.400823,-0.695996
1475015818,-0.007916,0.093136,0.346822,0.356043,-0.628765
1475015818,-0.00669,0.123227,0.414696,0.190467,-0.564505
1475015818,-0.012278,0.151256,0.453677,0.062818,-0.630948
1475015818,-0.015077,0.220573,0.013467,0.00083,-0.580884
1475015818,-0.014781,0.281883,-0.404171,0.033998,-0.56221
1475015818,-0.022429,0.347802,-0.358691,0.048187,-0.589458
1475015818,-0.025826,0.394448,-0.16751,0.093453,-0.619148
1475015818,-0.027561,0.434373,-0.035116,0.151743,-0.684071
1475015818,-0.017023,0.353816,0.049901,0.164985,-0.69065
1475015818,-0.013008,0.228062,0.028029,0.080526,-0.674642
1475015818,-0.009601,0.173716,0.052944,-0.027436,-0.636578
1475015818,-0.009153,0.105961,-0.010873,-0.034984,-0.594926
1475015818,-0.009707,0.117272,0.044657,0.008154,-0.556016
1475015818,-0.013982,-0.0677,0.120604,0.041315,-0.506111
1475015818,-0.003528,0.120452,0.111057,-0.006197,-0.491173
1475015818,0.001569,-0.118048,0.152398,0.049115,-0.3922
1475015818,0.006605,-0.013227,0.208152,-0.052743,-0.447323
1475015818,0.011836,-0.235,0.204413,-0.096532,-0.363107
1475015818,0.038385,-0.207319,0.190258,-0.142846,-0.333036
1475015818,0.034892,-0.274908,0.232264,0.036105,-0.292516
1475015818,0.022208,-0.261151,0.287977,0.028559,-0.198946
1475015818,0.008105,-0.153672,0.292345,0.00288,-0.102292
1475015818,0.006052,-0.130154,0.350791,-0.060768,-0.150183
1475015818,-0.000929,-0.007076,0.375186,-0.194481,-0.047047
1475015818,0.006132,-0.024299,0.380929,-0.126961,-0.007871
1475015818,0.003534,0.045911,0.406781,-0.109226,0.047613
1475015819,0.016266,0.041214,0.442075,-0.036521,0.026726
1475015819,0.019394,0.0306,0.508157,0.049036,0.016929
1475015819,0.017526,0.052049,0.554245,0.124784,0.0427
1475015819,0.022535,0.020871,0.576102,0.241123,0.023744
1475015819,0.024383,0.085844,0.646234,0.299728,0.125735
1475015819,0.023869,0.146613,0.606551,0.366526,0.210592
1475015819,0.009852,0.188876,0.555717,0.418199,0.261802
1475015819,0.001263,0.249743,0.503981,0.44918,0.257042
1475015819,0.001341,0.237053,0.443083,0.498757,0.275972
1475015819,-0.012152,0.253608,0.354446,0.47519,0.282279
1475015819,-0.006917,0.310412,0.224684,0.525683,0.285925
1475015819,-0.00829,0.366742,0.10988,0.514657,0.263509
1475015819,0.004969,0.323649,-0.010354,0.508775,0.291967
1475015819,0.016218,0.347308,-0.112601,0.47783,0.292996
1475015819,0.014863,0.26588,-0.248214,0.535889,0.349699
1475015819,0.020383,0.256581,-0.318871,0.486259,0.43247
1475015819,0.017624,0.242362,-0.433416,0.524542,0.498462
1475015819,0.017465,0.260991,-0.514568,0.407825,0.537852
1475015819,0.003958,0.212187,-0.544533,0.4065,0.564715
1475015819,-0.001597,0.186506,-0.58743,0.347736,0.669324
1475015819,-0.001845,0.156179,-0.573335,0.319995,0.709226
1475015819,-0.004904,0.098331,-0.556192,0.332517,0.744635
1475015819,-0.004538,-0.014682,-0.525801,0.316338,0.742203
1475015819,-0.005598,-0.072066,-0.43726,0.280397,0.74661
1475015819,0.011341,-0.155544,-0.402953,0.239628,0.723167
1475015819,0.015708,-0.192074,-0.306635,0.212955,0.761359
1475015819,0.014958,-0.241733,-0.197141,0.189327,0.771021
1475015819,0.017328,-0.301567,-0.088824,0.127083,0.794088
1475015819,0.006268,-0.343949,-0.005708,0.085165,0.727853
1475015819,0.006319,-0.357931,0.142719,0.035905,0.719746
1475015819,-0.001015,-0.347647,0.247196,-0.017236,0.734648
1475015819,-0.001576,-0.331486,0.354085,-0.070821,0.711125
1475015819,-0.002176,-0.308029,0.452458,-0.110839,0.709421
1475015819,0.011434,-0.311253,0.540863,-0.185581,0.669366
1475015819,0.013784,-0.277218,0.612333,-0.249911,0.678473
1475015819,0.013556,-0.205299,0.651341,-0.26411,0.668767
1475015819,0.015151,-0.136734,0.666349,-0.284098,0.661172
1475015819,0.011758,-0.105666,0.679986,-0.32311,0.663921
1475015819,0.012296,-0.050645,0.648073,-0.339861,0.653678
1475015819,0.004017,-0.023434,0.648506,-0.347931,0.64441
1475015819,0.000571,0.029863,0.631946,-0.331822,0.647034
1475015819,0.001041,0.077055,0.625708,-0.29981,0.653425
1475015819,-0.006339,0.136224,0.569473,-0.249402,0.671483
1475015819,-0.002826,0.199061,0.544611,-0.19487,0.695939
1475015819,-0.00257,0.244104,0.526605,-0.17298,0.722212
1475015819,-0.005343,0.268526,0.501325,-0.132641,0.746078
1475015819,-0.003379,0.297158,0.465489,-0.089027,0.759371
1475015819,-0.004298,0.305682,0.420738,-0.02041,0.724931
1475015819,0.003293,0.308306,0.434507,0.058106,0.76311
1475015819,0.004364,0.300212,0.405339,0.07155,0.787476
1475015819,0.002162,0.329528,0.384746,0.141163,0.806414
1475015819,0.008431,0.32499,0.349378,0.180022,0.809201
1475015819,0.007423,0.307033,0.389993,0.215622,0.825274
1475015819,0.00648,0.312122,0.338295,0.225751,0.812888
1475015819,0.004467,0.30531,0.293514,0.26739,0.80109
1475015819,0.000321,0.285312,0.254225,0.291575,0.806061
1475015819,-0.000694,0.263532,0.192103,0.307285,0.867429
1475015819,0.001858,0.22672,0.101626,0.286364,0.855378
1475015819,0.013885,0.223286,0.033132,0.289903,0.834969
1475015819,0.012554,0.201137,-0.065205,0.310253,0.815156
1475015819,0.017204,0.16811,-0.122254,0.307075,0.835248
1475015819,0.021273,0.167325,-0.196445,0.309474,0.831849
1475015819,0.021657,0.173589,-0.257822,0.296815,0.832365
1475015819,0.02033,0.121597,-0.351071,0.262155,0.81024
1475015819,0.010382,0.110664,-0.302987,0.242569,0.822945
1475015819,0.011001,0.079162,-0.401221,0.21856,0.802209
1475015819,0.005554,0.049173,-0.400407,0.180076,0.807405
1475015819,-0.004296,0.003821,-0.41287,0.168011,0.791238
1475015819,-0.004861,0.013683,-0.39452,0.148956,0.771291
1475015819,-0.003213,-0.060099,-0.299223,0.15443,0.76575
1475015819,0.005997,-0.091422,-0.357988,0.126316,0.780981
1475015819,0.006013,-0.12313,-0.239895,0.076771,0.797309
1475015819,0.008236,-0.148839,-0.13111,0.109085,0.731763
1475015819,0.009962,-0.206524,-0.198325,0.030425,0.780673
1475015819,0.010291,-0.106723,-0.076957,0.009542,0.721242
1475015819,0.006637,-0.158226,-0.006243,-0.013087,0.741862
1475015819,0.003262,-0.208186,0.049066,-0.045148,0.731573
1475015819,0.003781,-0.181594,0.124503,-0.056098,0.742047
1475015819,0.001639,-0.142282,0.247214,-0.095545,0.72353
1475015819,0.001258,-0.194605,0.179436,-0.141146,0.731107
1475015819,0.001002,-0.111271,0.315682,-0.139178,0.716332
1475015819,0.004237,-0.160739,0.360722,-0.122534,0.698501
1475015819,0.0042,-0.111452,0.335925,-0.177027,0.69509
1475015819,0.004406,-0.075409,0.425314,-0.18631,0.692659
1475015819,0.007101,-0.021404,0.452594,-0.189873,0.69892
1475015819,0.007826,-0.021374,0.487669,-0.191743,0.698937
1475015819,0.008152,-0.009359,0.522189,-0.18856,0.709498
1475015819,0.009694,0.037329,0.534137,-0.179205,0.710424
1475015819,0.003449,0.118056,0.531719,-0.157265,0.717117
1475015819,0.004011,0.102908,0.572473,-0.128756,0.722039
1475015819,0.000948,0.125619,0.57552,-0.109925,0.720597
1475015819,-0.00279,0.145225,0.574531,-0.080594,0.744542
1475015819,-0.002607,0.171194,0.575046,-0.037664,0.77067
1475015819,-0.000348,0.173332,0.573583,-0.052226,0.768377
1475015819,0.004825,0.203166,0.518914,-0.020115,0.778747
1475015819,0.004962,0.209332,0.492509,0.032227,0.780824
1475015819,0.004719,0.185981,0.429808,0.030045,0.779865
1475015819,0.001652,0.18795,0.367119,0.072814,0.786213
1475015819,0.001564,0.207238,0.280192,0.086529,0.772122
1475015819,-0.000128,0.223207,0.163081,0.108195,0.769496
1475015820,0.003694,0.168153,0.184377,0.116049,0.782128
1475015820,0.003265,0.17176,0.153913,0.112689,0.745598
1475015820,0.003483,0.126647,0.199743,0.155689,0.741508
1475015820,0.006926,0.119004,0.197001,0.159436,0.76601
1475015820,0.00653,0.096476,0.204685,0.167752,0.784943
1475015820,0.008831,0.100106,0.378997,0.174071,0.795365
1475015820,0.008884,0.07487,0.253845,0.178243,0.799063
1475015820,0.008552,0.060429,0.111224,0.179703,0.797458
1475015820,0.005447,0.057328,-0.013705,0.157036,0.794813
1475015820,0.007783,0.050316,-0.126897,0.174167,0.788372
1475015820,0.007552,0.018435,-0.16463,0.150942,0.785065
1475015820,0.00609,0.009791,-0.273439,0.138679,0.76633
1475015820,0.003426,-0.030251,-0.338887,0.119879,0.777173
1475015820,0.003254,-0.01783,-0.419075,0.106978,1.692878
1475015820,0.004161,-0.011322,-0.477093,0.12552,1.658829
1475015820,0.001408,-0.08894,-0.467004,0.032515,1.811303
1475015820,0.001779,-0.081184,-0.487002,0.065819,2.183234
1475015820,-0.002253,-0.08815,-0.487963,0.033191,2.29907
1475015820,-0.009077,-0.111426,-0.462479,0.01666,2.23922
1475015820,-0.010101,-0.129047,-0.382952,0.016586,2.251335
1475015820,-0.007671,-0.139233,-0.362352,-0.014989,3.487502
1475015820,-0.009817,-0.124881,-0.328291,-0.028394,-3.718151
1475015820,-0.00584,-0.100756,-0.168461,-0.018001,-3.330391
1475015820,0.013605,-0.089769,-0.26147,-0.058854,1.059062
1475015820,0.015352,-0.081807,-0.062996,-0.04025,3.457041
1475015820,0.013269,-0.023226,0.022407,-0.059443,0.974102
1475015820,0.015662,-0.088587,0.101716,-0.077686,0.753931
1475015820,0.015327,0.013113,0.20257,-0.098504,1.143993
1475015820,0.014116,-0.019091,0.293042,-0.098705,1.861446
1475015820,0.011051,-0.020512,0.348844,-0.120106,1.422304
1475015820,0.011846,-0.021248,0.425566,-0.120289,0.738838
1475015820,0.007566,0.047247,0.456952,-0.118456,0.343005
1475015820,0.00743,0.02198,0.524732,-0.092228,0.277126
1475015820,0.008286,0.031466,0.539317,-0.120502,0.246069
1475015820,0.007738,0.031272,0.531996,-0.069028,0.319412
1475015820,0.010624,0.097925,0.540168,-0.032589,0.496298
1475015820,0.007078,0.097551,0.522623,-0.015668,0.387995
1475015820,0.005788,0.125559,0.532168,-0.022396,0.939306
1475015820,0.018362,0.128313,0.491871,0.006027,1.259473
1475015820,0.020543,0.136703,0.502943,0.00286,0.963771
1475015820,0.020678,0.134969,0.461947,0.015642,0.46791
1475015820,0.018718,0.123728,0.440698,0.035678,0.455891
1475015820,0.019624,0.11396,0.437537,0.05468,0.925112
1475015820,0.016839,0.084728,0.451197,0.04483,1.011893
1475015820,-0.002365,0.08515,0.422087,,
1475015820,-0.001109,0.057095,0.389008,0.075471,0.777048
1475015820,-0.000247,0.054836,0.34653,0.048299,0.634925
1475015820,-0.002956,0.222582,,0.073784,0.735209
1475015820,-0.002661,-0.249118,0.328625,0.079486,0.84138
1475015820,0.000971,0.193661,0.304747,0.068146,0.820075
1475015820,0.009154,0.026381,0.250636,0.076128,0.839816
1475015820,0.01124,0.708182,0.250948,0.08199,0.802899
1475015820,0.011662,0.355653,0.209488,0.075865,0.735233
1475015820,0.012643,0.081309,0.162133,0.075211,0.6877
1475015820,0.012444,-0.063016,0.119996,0.062367,0.746404
1475015820,0.011525,0.249849,0.049051,0.054092,0.803489
1475015820,0.012868,0.01509,-0.009716,0.053219,0.782723
1475015820,0.01408,0.02891,-0.054923,0.049353,0.750506
1475015820,0.01377,0.11098,-0.119536,0.048597,0.754322
1475015820,0.014357,0.06215,-0.176661,0.038659,0.758965
1475015820,0.012573,0.153526,-0.210499,0.095749,0.756941
1475015820,0.015666,0.176358,-0.275565,-0.000035,0.754922
1475015820,0.015099,0.119749,-0.276594,0.020102,0.771096
1475015820,0.014465,0.154619,-0.292517,0.039999,0.762987
1475015820,0.016379,0.196373,-0.291137,0.016243,0.773725
1475015820,0.017018,0.246916,-0.296898,0.015395,0.768665
1475015820,0.015376,0.284915,-0.302158,0.005668,0.772458
1475015820,0.012505,0.255632,-0.278862,-0.021528,0.77503
1475015820,0.003521,0.213768,-0.234966,0.010846,0.787753
1475015820,-0.001727,0.18549,-0.178056,-0.005386,0.786138
1475015820,-0.003717,0.131216,-0.208577,-0.002228,0.772998
1475015820,-0.00688,0.087282,-0.157513,-0.01039,0.774932
1475015820,-0.002279,0.046562,-0.081027,-0.004149,0.77438
1475015820,0.001032,-0.035413,-0.032157,-0.025702,0.774444
1475015820,0.00304,-0.073456,0.010629,-0.015092,0.776313
1475015820,0.009402,-0.137609,0.062938,-0.017942,0.7042
1475015820,0.012802,-0.110686,0.119149,-0.02216,0.597101
1475015820,0.011876,-0.046699,0.155828,-0.021043,0.639697
1475015820,0.015955,-0.09665,0.258126,-0.024025,0.552929
1475015820,0.020018,0.025043,0.234705,-0.025989,0.483606
1475015820,0.015765,0.107467,0.300743,-0.023272,0.509527
1475015820,0.007447,-0.035101,0.386237,-0.030807,0.44664
1475015820,0.012455,-0.125694,0.328925,-0.01678,0.441922
1475015820,0.0052,-0.154567,0.342364,-0.00091,0.42739
1475015820,0.013428,-0.173558,0.365585,0.000498,0.346989
1475015820,0.018353,-0.248414,0.325948,0.00492,0.407456
1475015820,0.031571,-0.325233,0.297312,0.009084,0.388095
1475015820,0.041097,-0.357469,0.307567,0.009308,0.402897
1475015820,0.033958,-0.355469,0.348884,0.008215,0.531161
1475015820,0.033978,-0.355266,0.297662,0.007853,0.062311
1475015820,0.016729,-0.334266,0.286392,0.00546,0.571831
1475015820,0.026223,-0.312314,0.275459,0.008203,0.579875
1475015820,0.02242,-0.27569,0.22785,0.009819,-0.23617
1475015820,0.01795,-0.23739,0.234122,0.009831,1.236344
1475015820,0.029103,-0.219511,0.236481,0.017146,-0.410872
1475015820,0.012729,-0.149012,0.177953,0.017939,0.699734
1475015820,-0.018481,-0.021561,0.186985,0.019859,0.423542
1475015820,-0.006498,0.031753,0.14182,0.017382,0.274991
1475015820,-0.021984,0.067097,0.117998,0.014706,0.468853
1475015821,-0.00657,0.053393,0.101486,0.011914,0.637421
1475015820,-0.017052,0.049398,0.031789,0.0107,0.276382
1475015821,0.017529,0.102121,-0.008714,0.006461,0.387722
1475015821,0.013906,0.14757,-0.018858,0.005828,0.381702
1475015821,0.026185,0.214239,-0.068566,0.003521,0.414394
1475015821,-0.001428,0.226712,-0.102541,0.000048,0.415687
1475015821,0.000205,0.226321,-0.135915,-0.001027,0.40502
1475015821,-0.012419,0.218533,-0.171804,-0.002286,0.43526
1475015821,0.002359,0.265243,-0.183512,-0.005936,0.454452
1475015821,-0.061884,0.238582,-0.188252,-0.007602,0.386057
1475015821,-0.050277,0.261894,-0.197143,-0.000278,0.390459
1475015821,-0.070279,0.259278,-0.200313,0.010033,0.393564
1475015821,-0.044009,0.225289,-0.193365,0.012583,0.380205
1475015821,-0.038822,0.218989,-0.186533,0.016665,0.388817
1475015821,-0.007706,0.21934,-0.156004,0.006565,0.389133
1475015821,-0.005591,0.184834,-0.129433,0.005889,0.384112
1475015821,-0.001801,0.15664,-0.114012,-0.002752,0.38682
1475015821,0.008979,0.162195,-0.107363,-0.00386,0.398128
1475015821,0.010088,0.160987,-0.070773,-0.00014,0.404573
1475015821,0.013987,0.155954,-0.056837,-0.002371,0.406711
1475015821,0.000186,0.166945,-0.002208,0.00268,0.40397
1475015821,0.01353,0.122115,0.018029,0.00138,0.403639
1475015821,0.017139,0.067037,0.063473,0.007224,0.391607
1475015821,0.036721,0.02817,0.04309,0.004204,0.38256
1475015821,0.052472,0.006858,0.107261,0.006968,0.383038
1475015821,0.046526,-0.027419,0.165964,0.011245,0.380587
1475015821,0.040028,-0.045988,0.17699,0.010736,0.386613
1475015821,0.045924,-0.077907,0.191198,0.005514,0.385027
1475015821,0.037302,-0.110166,0.230882,0.000071,0.384397
1475015821,0.012804,-0.101002,0.25874,-0.001432,0.392249
1475015821,-0.003688,-0.103896,0.336418,-0.004089,0.386986
1475015821,0.004889,-0.132392,0.300233,0.000928,0.388095
1475015821,-0.002394,-0.119921,0.337611,0.001122,0.390123
1475015821,-0.013219,-0.128185,0.340043,0.003781,0.392881
1475015821,-0.00556,-0.187559,0.317228,0.006984,0.392201
1475015821,-0.001988,-0.152494,0.343053,0.005426,0.388252
1475015821,-0.042201,-0.199769,0.325022,0.006682,0.381357
1475015821,-0.036144,-0.141457,0.284135,0.00303,0.38954
1475015821,-0.060894,-0.126849,0.247541,0.004488,0.390838
1475015821,-0.092328,-0.130602,0.19649,0.006376,0.381232
1475015821,-0.092565,-0.085504,0.19197,-0.001081,0.378596
1475015821,-0.091727,-0.135006,0.217786,0.003581,0.363136
1475015821,-0.061554,-0.084809,0.15816,-0.002195,0.34121
1475015821,-0.069753,-0.082982,0.089402,0.002329,0.313886
1475015821,-0.073304,-0.041629,0.2184,0.008284,0.313379
1475015821,-0.060675,-0.049695,0.067469,0.002275,0.291964
1475015821,-0.074724,-0.002707,0.115044,0.007694,0.277073
1475015821,0.01714,-0.046562,0.006891,0.009966,0.26156
1475015821,-0.000273,0.027075,0.037156,-0.011013,0.236768
1475015821,-0.017051,-0.005961,-0.031968,0.011981,0.2103
1475015821,0.071833,0.027996,-0.086484,-0.005234,0.216754
1475015821,0.083881,0.079681,-0.118311,0.001869,0.206849
1475015821,0.061515,0.02615,-0.140402,0.01342,0.188763
1475015821,0.058766,0.069806,-0.203978,-0.009946,0.186562
1475015821,0.067265,0.069617,-0.207601,0.012694,0.164463
1475015821,0.051442,0.029026,-0.216318,-0.006182,0.170464
1475015821,0.047045,0.042191,-0.215453,-0.002069,0.163027
1475015821,0.050084,0.126989,-0.202964,0.006079,0.145423
1475015821,0.044736,0.137283,-0.209826,-0.00567,0.127795
1475015821,0.020476,0.132724,-0.206176,0.004662,0.130375
1475015821,0.018199,0.137575,-0.185299,-0.00542,0.141012
1475015821,0.016118,0.122095,-0.169609,0.004833,0.118531
1475015821,0.014756,0.122265,-0.149142,0.008419,0.116727
1475015821,0.012577,0.124253,-0.123291,0.01208,0.128188
1475015821,0.010257,0.128692,-0.12202,0.005309,0.12698
1475015821,0.002373,0.121562,-0.021615,0.003367,0.103353
1475015821,0.005203,0.094115,1.200552,0.000318,0.090043
1475015821,-0.000783,0.051581,0.485511,-0.003775,0.083838
1475015821,0.005643,0.072812,0.015395,-0.000493,0.065908
1475015821,0.001839,0.02612,-0.104431,-0.004122,0.068419
1475015821,-0.002227,0.016423,-0.141166,0.001784,0.06798
1475015821,0.00636,0.003102,-0.12253,0.00327,0.083576
1475015821,0.001844,-0.000594,-0.090383,0.236159,0.063565
1475015821,-0.002543,0.008134,-0.068107,0.017259,0.072071
1475015821,0.001201,0.014592,-0.04347,0.003863,0.08206
1475015821,-0.002825,0.030281,-0.036439,-0.171119,0.073037
1475015821,-0.006889,0.032591,0.326219,-0.020793,0.068184
1475015821,0.006027,0.016549,0.344241,0.379326,0.083534
1475015821,0.002261,0.019014,0.198854,0.006828,0.075495
1475015821,0.004662,-0.001879,0.095103,-0.126151,0.087995
1475015821,0.017865,0.005912,0.013054,-0.12559,0.09328
1475015821,0.01512,-0.010278,0.07703,0.040288,0.09415
1475015821,0.025059,-0.015577,0.137251,0.049278,0.084083
1475015821,0.033712,-0.018052,0.154654,0.048609,0.112984
1475015821,0.033404,-0.013155,0.10875,-0.035887,0.098593
1475015821,0.028327,-0.019073,0.088263,-0.048069,0.101514
1475015821,0.015198,-0.029214,0.066127,0.004381,0.103994
1475015821,0.017234,-0.035149,0.058755,0.013045,0.102492
1475015821,0.009695,-0.049268,0.021091,-0.005552,0.118797
1475015821,-0.01413,-0.042176,0.009115,-0.004492,0.102483
1475015821,-0.011518,-0.03291,0.032971,-0.005526,0.122972
1475015821,-0.015023,-0.030883,0.049938,-0.001446,0.110326
1475015821,-0.020732,-0.036843,0.032102,-0.016303,0.117585
1475015821,-0.021829,-0.033939,-0.005874,-0.029125,0.106992
1475015821,-0.020583,-0.016105,-0.027822,0.023967,0.126493
1475015821,-0.020805,-0.010057,-0.003217,-0.020171,0.117235
1475015821,-0.022519,-0.006837,0.017696,-0.009829,0.142003
1475015821,-0.022307,0.011958,0.01977,0.016596,0.139458
1475015821,-0.007427,0.003369,0.013561,-0.059965,0.137094
1475015821,-0.010041,-0.013753,0.01276,0.061649,0.159943
1475015821,-0.008625,-0.018683,0.00653,-0.037074,0.149015
1475015822,-0.013552,-0.012765,-0.010009,0.004231,0.196196
1475015822,-0.016562,0.011646,-0.019354,0.124083,0.185517
1475015822,-0.016035,0.01659,-0.036841,-0.014773,0.210249
1475015822,-0.000484,0.036195,-0.033008,0.119946,0.216107
1475015822,-0.004344,1.231936,-0.016623,-0.132677,0.225325
1475015822,-0.003072,1.156639,0.004455,0.013011,0.21675
1475015822,0.016296,0.182724,0.015501,-0.103005,0.217967
1475015822,0.013072,0.317451,-0.012439,0.103459,0.237199
1475015822,0.012941,-0.045744,-0.002416,0.023686,0.240029
1475015822,0.013871,-0.130703,0.01201,-0.121097,0.242663
1475015822,0.01161,-0.082222,0.014036,0.016772,0.248441
1475015822,0.017312,-0.126197,0.018708,0.015893,0.258496
1475015822,0.021017,-0.18626,0.028152,0.010194,0.244704
1475015822,0.019984,-0.22496,0.015648,-0.035683,0.27166
1475015822,0.020768,-0.225876,-0.011138,0.01699,0.256243
1475015822,0.015076,-0.241826,-0.012338,-0.032425,0.272013
1475015822,0.015137,-0.217552,0.05899,-0.046538,0.271014
1475015822,0.008928,-0.20641,0.032441,-0.006818,0.273268
1475015822,0.004076,-0.209315,0.042503,-0.001722,0.288765
1475015822,0.004694,-0.199912,0.035748,-0.029078,0.281996
1475015822,0.00525,0.705468,0.023141,-0.014816,0.289361
1475015822,0.010154,0.255155,0.005933,0.031171,0.284159
1475015822,0.011062,0.557057,0.013272,-0.019861,0.283821
1475015822,0.012612,0.611118,0.028605,-0.028099,0.270738
1475015822,0.007312,0.721877,0.023856,0.029885,0.266194
1475015822,0.003664,-1.757109,0.008725,0.011242,0.269977
1475015822,0.005273,-1.08022,0.016632,0.036388,0.256862
1475015822,0.001301,0.098087,0.027276,0.024681,0.259645
1475015822,0.001513,0.07572,0.049385,0.047929,0.273319
1475015822,0.002085,0.6653,0.065775,0.06987,0.263806
1475015822,0.007565,0.236906,0.085808,0.063581,0.2349
1475015822,0.007523,0.08284,0.059184,0.053164,0.234624
1475015822,0.009572,-0.135013,0.081621,0.050313,0.224609
1475015822,0.006615,-0.113225,0.105346,0.033963,0.215137
1475015822,0.005553,-0.181276,-0.485183,0.077008,0.188705
1475015822,0.008217,-0.180265,-0.291585,0.115339,0.225913
1475015822,0.010023,0.0384,0.145802,0.117027,0.198966
1475015822,0.01659,-0.154704,0.091843,0.122252,0.155296
1475015822,0.020181,0.131393,0.043035,0.046212,0.139246
1475015822,0.018528,-0.019847,-0.021714,0.002959,0.090417
1475015822,0.010095,-0.072903,-0.02445,-0.028631,-0.104493
1475015822,0.015307,-0.016459,0.061752,-0.041079,-0.241794
1475015822,-0.00841,0.049515,-0.012209,-0.012018,-0.362748
1475015822,-0.023017,0.0386,-0.014095,0.036802,-0.469027
1475015822,-0.018371,-0.014447,0.013292,0.013468,-0.599505
1475015822,-0.003981,0.012518,0.034101,0.009669,-0.565326
1475015822,0.001118,0.020999,0.013043,-0.012069,-0.598527
1475015822,0.006112,-0.002909,-0.01823,-0.048627,-0.560524
1475015822,-0.009923,-0.014751,-0.004737,-0.034445,-0.472627
1475015822,-0.030454,0.039145,0.00199,-0.02123,-0.301493
1475015822,-0.02863,0.006997,-0.005863,-0.044776,-0.134481
1475015822,-0.016057,-0.045926,0.020751,-0.037574,-0.006677
1475015822,-0.003752,0.006011,0.007353,-0.043518,0.037592
1475015822,-0.004731,0.003142,-0.001149,-0.055662,0.094265
1475015822,0.005106,-0.010407,0.011434,-0.052928,0.076004
1475015822,0.00394,0.008572,-0.045505,-0.06352,0.038735
1475015822,0.002129,-0.01345,0.116333,-0.041993,0.050871
1475015822,0.00646,-0.059584,-0.049631,-0.027292,0.006137
1475015822,0.006808,-0.044552,0.043484,-0.020161,0.086887
1475015822,0.005,-0.013991,-0.102148,-0.001679,0.130225
1475015822,0.002669,-0.033792,0.063667,0.016586,0.256157
1475015822,0.014336,-0.023085,0.112839,-0.008799,0.432316
1475015822,0.013489,-0.030015,-0.201421,0.000752,0.568228
1475015822,0.005413,-0.011395,-0.079119,-0.007745,0.601802
1475015822,0.004279,-0.005665,0.074292,0.024035,0.580787
1475015822,0.004378,-0.010217,-0.05765,0.018274,0.411889
1475015822,0.004609,-0.028773,-0.020843,0.000884,0.246082
1475015822,0.00545,-0.046452,-0.001582,0.031394,0.133042
1475015822,0.006224,-0.024535,-0.047183,0.060577,0.038307
1475015822,0.022722,-0.006273,-0.00422,0.07824,-0.067708
1475015822,0.037882,-0.009419,0.006579,0.059784,-0.128338
1475015822,0.040927,0.009399,-0.048347,0.071996,-0.097956
1475015822,0.03028,-0.000981,-0.021904,0.025587,-0.066514
1475015822,0.01567,0.015697,-0.05598,0.033553,-0.037828
1475015822,0.021411,-0.004154,-0.063248,0.019192,0.040282
1475015822,0.000472,-0.00652,-0.052675,0.033835,0.042092
1475015822,0.013723,-0.003334,-0.046344,0.020781,-0.001524
1475015822,0.019819,-0.012708,-0.032983,0.007304,-0.051449
1475015822,-0.013718,-0.018084,-0.03501,-0.006509,-0.026563
1475015822,-0.03282,-0.019321,-0.072438,0.00276,0.055807
1475015822,-0.029703,-0.048087,-0.074765,-0.000217,0.113772
1475015822,-0.019138,-0.061428,-0.025934,-0.013976,0.129437
1475015822,-0.001629,-0.022248,-0.037011,-0.002189,0.142067
1475015822,0.005071,-0.013476,-0.063621,0.008708,0.103059
1475015822,0.002763,-0.020119,-0.085591,0.009208,0.109264
1475015822,-0.001072,-0.036445,-0.071487,0.029917,0.090467
1475015822,-0.000521,-0.063091,-0.087066,0.015458,0.095503
1475015822,0.003563,-0.071702,-0.06969,0.011274,0.099427
1475015822,0.005066,-0.074543,-0.097822,0.004408,0.09712
1475015822,0.005081,-0.057794,-0.126647,-0.022997,0.069711
1475015822,0.002506,-0.029118,-0.108179,-0.051296,0.010507
1475015822,0.005385,-0.036766,-0.10031,-0.015672,-0.03006
1475015822,0.006282,-0.051672,-0.150884,0.007876,-0.066681
1475015822,0.013202,-0.052096,-0.108185,-0.009431,-0.109293
1475015822,0.029973,-0.055006,-0.120197,-0.014136,-0.098857
1475015822,0.029695,-0.069,-0.134167,0.006309,-0.1069
1475015822,0.048013,-0.069616,-0.098444,-0.017919,-0.068546
1475015822,0.048204,-0.071593,-0.077253,0.000627,-0.041914
1475015822,0.051976,-0.082147,-0.105907,-0.01117,-0.031565
1475015822,0.034286,-0.086419,-0.105845,-0.009368,-0.027176
1475015823,0.005348,-0.077928,-0.085099,-0.009429,0.014277
1475015823,0.010358,-0.065475,-0.096153,-0.018487,0.008939
1475015823,-0.028107,-0.083982,-0.111642,-0.032736,0.019421
1475015823,-0.05841,-0.063132,-0.139414,-0.022858,0.160904
1475015823,-0.056569,-0.076465,-0.116508,-0.018136,0.094073
1475015823,-0.009778,-0.071116,-0.256291,-0.036041,0.194226
1475015823,-0.06193,-0.068403,-0.073878,-0.006748,0.268309
1475015823,-0.063222,-0.100955,-0.110315,-0.000384,0.33992
1475015823,0.013422,-0.119874,-0.23368,0.023659,0.350349
1475015823,-0.008786,-0.133402,-0.151589,0.043441,0.255115
1475015823,-0.008333,-0.106852,-0.248598,0.054667,0.170658
1475015823,-0.004152,-0.120959,-0.21102,0.044428,0.106846
1475015823,0.002615,-0.132689,-0.106709,0.050387,0.041609
1475015823,0.002469,-0.102965,-0.122421,0.02136,-0.030651
1475015823,-0.06199,-0.092937,-0.122244,0.042035,-0.070425
1475015823,-0.074741,-0.138266,-0.153806,0.021918,-0.058778
1475015823,-0.069685,-0.158022,-0.167526,0.048645,-0.086228
1475015823,-0.018966,-0.107736,-0.159816,0.038836,-0.074514
1475015823,-0.038761,-0.028055,-0.126331,0.040797,-0.001404
1475015823,-0.028584,-0.157628,-0.112422,0.050698,-0.047405
1475015823,0.03033,-0.127725,-0.076737,0.052336,0.028731
1475015823,0.022598,-0.139821,-0.019075,0.084373,0.053234
1475015823,0.015783,-0.092498,0.068267,0.076579,0.057614
1475015823,0.023814,-0.089146,0.140193,0.081188,0.030217
1475015823,0.015304,-0.099817,0.194013,0.083595,0.010341
1475015823,0.019089,-0.135366,0.28196,0.085,0.021125
1475015823,-0.016696,0.017699,0.319088,0.064349,0.037308
1475015823,-0.020211,-0.03095,0.398625,0.043176,0.057519
1475015823,-0.06094,-0.081913,0.459854,0.022355,0.043613
1475015823,-0.064687,-0.018223,0.505251,0.023092,0.067573
1475015823,-0.074227,-0.030094,0.580729,0.024647,0.073049
1475015823,-0.068011,0.001807,0.683,0.032121,0.069256
1475015823,-0.016816,0.019013,0.686187,0.036728,0.07753
1475015823,-0.031033,0.032335,0.745779,0.02515,0.190797
1475015823,0.015326,0.059943,0.874347,0.017716,0.155486
1475015823,0.075412,0.046486,0.888872,-0.02389,0.219739
1475015823,0.064944,0.071199,0.933134,-0.040161,0.22568
1475015823,0.07076,0.090614,1.019269,-0.042201,0.188128
1475015823,0.059754,0.096751,1.030925,-0.028062,0.027055
1475015823,0.054821,0.124516,1.022282,-0.066684,-0.140627
1475015823,0.058696,0.141024,1.041849,-0.053116,-0.247988
1475015823,0.059459,0.164919,1.073143,-0.086257,-0.248853
1475015823,0.059512,0.197177,1.070568,-0.057223,-0.258516
1475015823,0.051853,0.221606,1.026758,-0.063218,-0.378648
1475015823,0.039614,0.279022,0.99907,-0.100084,-0.429574
1475015823,0.043044,0.35625,0.946359,-0.108623,-0.344385
1475015823,0.039941,0.387035,0.922202,-0.142926,-0.149944
1475015823,0.016174,0.362313,0.904356,-0.16025,0.055189
1475015823,0.021709,0.392336,0.921605,-0.147863,0.22695
1475015823,0.025381,0.421492,0.917524,-0.15049,0.367436
1475015823,0.030058,0.472797,0.85762,-0.138518,0.483027
1475015823,0.037116,0.494944,0.899273,-0.1206,0.564243
1475015823,0.059277,0.497437,0.903176,-0.085565,0.605796
1475015823,-0.020718,0.522006,0.83035,-0.041153,0.564981
1475015823,-0.01001,0.53958,0.816554,-0.013864,0.413214
1475015823,-0.052182,0.530645,0.780449,0.00557,0.226249
1475015823,-0.038825,0.524467,0.690877,0.019652,0.061857
1475015823,-0.033713,0.559685,0.59559,0.029776,0.023015
1475015823,-0.026205,0.565763,0.609468,0.062212,0.063706
1475015823,-0.028369,0.557784,0.405662,0.078279,0.220922
1475015823,-0.024641,0.564217,0.411047,0.071055,0.415699
1475015823,-0.025305,0.575878,0.47575,0.072131,0.406105
1475015823,0.01257,0.564752,0.361514,0.066477,0.246932
1475015823,0.015551,0.553865,0.290329,0.058795,0.127814
1475015823,0.009177,0.575473,0.194843,0.063134,-0.126637
1475015823,0.004738,0.565663,0.196301,0.08442,-0.023742
1475015823,0.009018,0.583966,0.13178,0.089532,-0.211666
1475015823,0.010737,0.598024,0.040429,0.102549,-0.300746
1475015823,0.008635,0.578229,-0.055911,0.118706,-0.398334
1475015823,0.014041,0.551354,-0.129975,0.109132,-0.364267
1475015823,0.020991,0.598397,-0.122063,0.101597,-0.200497
1475015823,0.055826,0.580472,-0.27428,0.091277,-0.137471
1475015823,0.078556,0.54487,-0.355326,0.072228,-0.124261
1475015823,0.088456,0.523759,-0.522773,0.061078,-0.026683
1475015823,0.09128,0.505548,-0.673727,0.058963,0.10718
1475015823,0.074838,0.469743,-0.825211,0.029934,0.254314
1475015823,0.09173,0.425122,-0.958079,0.012504,0.352806
1475015823,-0.005676,0.436938,-1.149079,-0.000724,0.357064
1475015823,0.015073,0.420131,-1.284456,0.013907,0.306046
1475015823,-0.057236,0.427449,-1.406072,0.094263,-0.105489
1475015823,-0.163338,0.434002,-1.486764,0.222077,-0.172378
1475015823,-0.153883,0.456437,-1.59058,0.291577,0.025216
1475015823,-0.154952,0.41034,-1.666259,0.464694,0.200414
1475015823,-0.109377,0.328737,-1.68583,0.237109,0.241763
1475015823,-0.112108,0.319575,-1.708388,0.450823,0.337018
1475015823,-0.08187,0.272985,-1.667302,0.534632,0.298433
1475015823,-0.028699,0.31956,-1.55554,0.507532,0.172881
1475015823,-0.035967,0.316557,-1.531204,0.258849,0.170953
1475015823,-0.010475,0.413224,-1.344561,0.223975,0.111206
1475015823,0.015669,0.270608,-1.175788,-0.680064,0.02198
1475015823,0.009173,0.255857,-0.826528,-2.464525,-0.002454
1475015823,0.035919,0.291018,-0.651017,-1.779355,-0.093308
1475015823,0.109237,0.278293,-0.446391,0.342567,-0.234872
1475015823,0.107424,0.298686,-0.199205,1.4031,-0.298309
1475015823,0.118995,0.231455,0.074728,0.737141,-0.123983
1475015823,0.169576,0.22071,0.305595,0.302819,-0.209231
1475015823,0.179555,0.197008,0.545278,0.290278,-0.07364
1475015823,0.155446,0.17705,0.735911,0.189436,-0.004901
1475015823,0.043355,0.09496,0.872589,-0.285273,-0.045115
1475015823,0.064523,0.004117,0.98209,-0.119397,0.050087
1475015824,-0.022905,-0.088903,1.190365,-0.099279,0.131954
1475015824,-0.177571,-0.157111,1.382149,0.039872,0.119583
1475015824,-0.1662,-0.20841,1.546245,-0.031203,0.131242
1475015824,-0.16212,-0.255287,1.726169,0.126931,0.236206
1475015824,0.100142,-0.371995,1.92036,0.083347,0.330068
1475015824,0.103991,-0.489891,2.202153,0.001002,-0.725667
1475015824,0.171168,-0.573545,2.095668,-0.028758,-0.47831
1475015824,0.168795,-0.652308,2.311377,-0.14634,0.261218
1475015824,0.19045,-0.748751,2.22183,-0.183248,0.31313
1475015824,0.129061,-0.826121,2.312379,-0.061498,0.38477
1475015824,0.017313,-0.880453,2.099388,0.065465,0.432074
1475015824,0.044536,-0.931929,1.971853,0.044198,0.287978
1475015824,0.055834,-0.950606,1.838274,0.005238,0.266279
1475015824,-0.018984,-0.979742,1.717016,-0.042418,0.166414
1475015824,0.006082,-1.015072,1.525106,-0.060693,0.003111
1475015824,-0.002506,-1.01986,1.363145,0.011346,-0.021167
1475015824,-0.029136,-1.013614,1.320703,0.094802,0.03347
1475015824,-0.006669,,1.324225,0.078864,0.012366
1475015824,0.065464,-0.94815,1.170845,0.062027,0.09921
1475015824,0.126528,-0.907961,1.085342,-0.007,0.056423
1475015824,0.154521,-0.913896,1.132584,-0.078703,0.066123
1475015824,0.137865,-0.937523,1.039221,-0.098763,0.056266
1475015824,0.115418,-0.787978,0.792739,-0.089563,0.045304
1475015824,0.086595,-0.887196,0.748071,-0.046873,0.106378
1475015824,0.04503,-0.73109,0.697253,-0.094458,0.133514
1475015824,0.009183,-0.702638,0.576052,-0.033461,0.11909
1475015824,0.045629,-0.646427,0.265542,-0.057699,0.049535
1475015824,-0.037367,-0.545736,0.447247,-0.024889,0.026056
1475015824,-0.046052,-0.448954,0.082412,-0.026446,0.061382
1475015824,-0.004445,-0.34412,-0.302492,-0.020131,0.099861
1475015824,0.023758,-0.219534,-0.093477,-0.009205,0.085949
1475015824,0.044349,-0.093098,-0.441622,-0.035994,0.070043
1475015824,0.078856,0.01866,-0.552578,-0.012218,0.06253
1475015824,0.105213,0.150465,-0.714754,-0.002278,0.049762
1475015824,0.069794,0.281387,-0.950618,-0.002395,0.034542
1475015824,0.053084,0.371735,-1.219186,0.00208,0.030617
1475015824,0.016781,0.440196,-1.440012,-0.007247,0.040557
1475015824,-0.02571,0.478077,-1.675029,0.00506,0.043386
1475015824,-0.024146,0.539191,-1.796736,0.006751,0.042313
1475015824,-0.023182,0.547128,-1.961394,0.005763,0.033997
1475015824,-0.022524,0.629656,-2.029701,0.009466,0.042104
1475015824,-0.01869,0.692148,-2.172201,-0.007079,0.078615
1475015824,-0.008695,0.768791,-2.201863,-0.003398,0.079217
1475015824,-0.000666,0.82325,-2.243675,0.003423,0.061675
1475015824,-0.011385,0.886848,-2.252507,0.0138,0.046212
1475015824,-0.007522,0.943989,-2.179922,0.012335,0.046788
1475015824,-0.004969,1.020579,-2.046486,0.000042,0.036822
1475015824,0.013297,1.076734,-1.81756,-0.00853,0.023636
1475015824,0.011361,1.086669,-1.711486,-0.009493,0.039955
1475015824,0.000098,1.152779,-1.671069,-0.002597,0.040169
1475015824,-0.052472,1.175138,-1.460494,0.022169,0.023638
1475015824,-0.060084,1.186401,-1.070824,0.022844,0.021446
1475015824,-0.121728,1.167262,-0.660599,-0.033235,0.029979
1475015824,-0.137651,1.160717,-0.148155,-0.035499,0.033734
1475015824,-0.147332,1.130859,0.745201,-0.066668,0.040296
1475015824,-0.174301,1.121402,0.667358,-0.00598,0.041841
1475015824,-0.162079,1.063595,0.712939,-0.008158,0.055059
1475015824,-0.168815,1.038208,0.868715,0.006953,0.062062
1475015824,-0.122051,1.041325,1.37233,-0.001797,0.056629
1475015824,-0.096206,1.023335,1.681336,-0.003636,0.074116
1475015824,-0.099922,1.010983,1.941701,-0.004942,0.080764
1475015824,-0.045905,0.992185,2.123672,-0.022657,0.075475
1475015824,-0.050007,0.992982,2.239012,-0.025837,0.068026
1475015824,-0.052205,0.970841,2.304759,-0.06059,0.077679
1475015824,0.035838,0.823294,2.361371,-0.029085,0.081797
1475015824,0.155279,0.719558,2.374282,-0.05697,0.07432
1475015824,0.151903,0.736481,2.401111,-0.02171,0.072292
1475015824,0.195991,0.708277,2.443221,-0.04312,0.081319
1475015824,0.158008,0.726105,2.333633,-0.034215,0.08976
1475015824,0.146243,0.582271,2.195322,-0.040572,0.093488
1475015824,0.15666,0.557864,1.999714,-0.06406,0.087324
1475015824,0.154006,0.54044,1.895411,-0.032987,0.083473
1475015824,0.133829,0.48189,1.811612,-0.094997,0.102491
1475015824,0.114373,0.483925,1.655549,0.018965,0.109948
1475015824,0.020447,0.472799,1.510475,-0.079691,0.117716
1475015824,0.049194,0.482144,1.414251,-0.054908,0.124001
1475015824,0.007118,0.294912,1.368221,-0.029488,
1475015824,-0.031637,0.382723,1.245683,-0.069562,0.129129
1475015824,0.001702,0.262311,0.938495,-0.066291,0.12868
1475015824,-0.063907,0.159688,1.03269,-0.027707,0.146831
1475015824,-0.061336,0.058977,0.847248,-0.067608,0.157504
1475015824,-0.093768,-0.02334,0.464375,-0.055707,0.150442
1475015824,-0.137327,-0.099927,0.307538,-0.061148,0.147953
1475015824,-0.176698,-0.253535,0.223894,-0.057442,0.151668
1475015824,-0.151782,-0.329481,0.115138,-0.052424,0.167921
1475015824,-0.288674,-0.334979,-0.107021,-0.051524,0.161343
1475015824,-0.262538,-0.405702,-0.290984,-0.063436,0.168087
1475015824,-0.259192,-0.503558,-0.490529,-0.041457,0.174872
1475015824,-0.157635,-0.575785,-0.692334,-0.057606,0.195774
1475015824,-0.101109,-0.908694,-0.908057,-0.033614,0.167883
1475015824,-0.094178,-0.727057,-1.096706,-0.060766,0.147044
1475015824,-0.099426,-1.008176,-1.304392,-0.07296,0.163982
1475015824,-0.111631,-1.154684,-1.5399,-0.037399,0.128462
1475015824,-0.095865,-1.184847,-1.789451,-0.044929,0.188909
1475015824,-0.072488,-1.216607,-2.00454,-0.062187,0.137063
1475015824,-0.00141,-1.341698,-2.150751,-0.040767,0.255385
1475015824,-0.022112,-1.364144,-2.271661,-0.036318,0.109028
1475015824,0.020481,-1.384528,-2.424936,-0.034466,0.127545
1475015824,0.026867,-1.367089,-2.499431,-0.019932,0.224691
1475015824,0.047187,-1.353282,-2.516812,-0.060831,0.309172
1475015825,0.0749,-1.28044,-2.408165,-0.044549,0.365391
1475015825,0.078569,-1.156894,-2.173343,-0.042043,0.310398
1475015825,0.094354,-1.085681,-2.025048,-0.023104,0.206128
1475015825,0.087597,-1.017782,-1.911143,-0.056667,0.214854
1475015825,0.104614,-0.902615,-1.701747,-0.047018,0.301953
1475015825,0.115595,-0.66437,-1.306524,-0.021086,0.303616
1475015825,0.141942,-0.476125,-1.114613,-0.050477,0.278372
1475015825,0.150024,-0.302724,-0.770942,-0.022181,0.2969
1475015825,0.153293,-0.129915,-0.22554,-0.037011,0.269293
1475015825,0.13655,0.04405,0.414677,-0.034429,0.350116
1475015825,0.111044,0.241667,0.171105,0.008249,0.221549
1475015825,0.108204,0.374824,0.823013,0.002283,0.198441
1475015825,0.092933,0.442535,1.25882,0.038129,0.143551
1475015825,0.086613,0.420477,1.534072,0.032893,0.116284
1475015825,0.078597,0.4434,1.855153,0.04382,0.092018
1475015825,0.068916,0.494845,2.069964,0.076651,0.014046
1475015825,0.035215,0.594659,2.299206,0.082472,0.0008
1475015825,0.024339,0.736077,2.357461,0.124488,-0.075199
1475015825,0.00451,0.841304,2.376336,0.158018,-0.144932
1475015825,-0.006764,0.934647,2.429159,0.116052,-0.181025
1475015825,0.005066,1.022542,2.436918,0.177172,-0.20402
1475015825,-0.007933,1.096963,2.447387,0.205881,-0.374036
1475015825,-0.019354,1.243171,2.494629,0.165356,-0.283596
1475015825,0.013076,1.194739,2.431531,0.201301,-0.399318
1475015825,-0.035142,1.309188,2.272978,0.212693,-0.47535
1475015825,-0.045699,1.33875,2.141778,0.205293,-0.418957
1475015825,-0.040751,1.389694,2.065233,0.209197,-0.537828
1475015825,-0.040116,1.404899,1.976357,0.250218,-0.609118
1475015825,-0.046846,1.409092,1.751778,0.250066,-0.575308
1475015825,-0.045928,1.376132,1.592683,0.243863,-0.623865
1475015825,-0.069957,1.350734,1.471182,0.271231,-0.654287
1475015825,-0.064169,1.307698,1.180865,0.263688,-0.655926
1475015825,-0.063894,1.236399,0.949517,0.296617,-0.666066
1475015825,-0.051304,1.221699,1.004707,0.355895,-0.65549
1475015825,-0.041926,1.2668,1.061502,0.376444,-0.663702
1475015825,-0.037287,1.197359,0.554599,0.363284,-0.655102
1475015825,0.00574,1.157461,0.324417,0.385253,-0.649094
1475015825,0.011545,1.090083,0.089532,0.398739,-0.622407
1475015825,0.018714,1.021235,-0.058383,0.45036,-0.585091
1475015825,0.012919,0.667313,-0.212543,0.446647,-0.517227
1475015825,0.006799,0.51761,-0.472694,0.437922,-0.555989
1475015825,0.019382,0.689263,-0.779729,0.441965,-0.468103
1475015825,0.041181,1.510289,-1.083381,0.438712,-0.460546
1475015825,0.046965,-0.192647,-1.327992,0.45085,-0.4556
1475015825,0.052062,1.739857,-1.185852,0.462742,-0.439572
1475015825,0.051061,0.192422,-1.595704,0.402294,-0.387507
1475015825,0.054583,0.809337,-1.825746,0.461286,-0.199947
1475015825,0.057337,0.873287,-2.045063,0.382477,-0.304167
1475015825,0.049785,0.678559,-2.273397,0.406921,-0.186963
1475015825,0.051243,0.180148,-2.17787,0.422696,-0.183936
1475015825,0.049665,0.444922,-2.309327,0.392026,-0.091499
1475015825,0.037367,0.203947,-2.287807,0.395595,-0.058993
1475015825,0.036753,0.222277,-2.264543,0.421164,-0.069067
1475015825,0.037282,0.296453,-2.33146,0.407087,0.004014
1475015825,0.021235,0.013557,-2.520164,0.392054,0.070685
1475015825,0.023386,-0.146237,-1.452121,0.413208,0.051269
1475015825,0.016523,-0.243872,-1.949986,0.351323,0.086284
1475015825,0.019366,-0.32314,-1.425271,0.124837,0.135386
1475015825,0.016668,-0.604876,-1.059833,0.257437,-0.046737
1475015825,0.004711,-0.428459,-0.591871,0.115808,0.104063
1475015825,-0.001792,-0.709813,-0.3487,0.165399,0.396409
1475015825,-0.004563,-0.824997,0.342499,0.223661,0.611016
1475015825,-0.009482,-0.944739,0.766228,0.289765,0.412946
1475015825,-0.012008,-1.080123,0.800105,0.325198,0.157536
1475015825,-0.013939,-1.116769,0.697056,0.402094,0.296014
1475015825,-0.01691,-1.153896,0.816449,0.451347,0.551442
1475015825,-0.017554,-1.195945,1.284,0.526546,0.607449
1475015825,-0.017946,-1.201292,2.039751,-0.03844,0.613842
1475015825,-0.012424,-1.241317,2.542169,0.373598,0.633281
1475015825,-0.006947,-1.234181,2.39333,0.069007,0.641066
1475015825,-0.006032,-1.223843,2.273664,0.188147,0.661037
1475015825,-0.003923,-1.207424,2.473943,0.145873,0.7125
1475015825,0.004109,-1.127575,2.502909,0.165491,0.779465
1475015825,0.005641,-1.021288,2.072726,0.096722,0.78315
1475015825,0.011082,-0.926636,2.321264,0.117075,0.813794
1475015825,0.020052,-0.883831,1.551162,0.111773,0.824241
1475015825,0.021098,-0.797088,0.910409,0.123282,0.816889
1475015825,0.025926,-0.827631,1.242361,0.142245,0.82802
1475015825,0.021219,-0.517191,0.771614,0.142447,0.808275
1475015825,0.021174,-0.720307,0.551886,0.088636,0.837507
1475015825,0.02582,-0.442227,0.579835,0.140541,0.803148
1475015825,0.016631,-0.373244,0.702392,0.112925,0.810368
1475015825,0.015665,-0.268799,0.666871,0.130796,0.749304
1475015825,0.00983,-0.023785,0.846117,0.085579,0.709835
1475015825,0.003529,0.118492,0.791469,0.091569,0.690097
1475015825,0.002426,0.244507,0.160086,0.097229,0.705334
1475015825,-0.003061,0.342119,0.056861,0.077825,0.687026
1475015825,-0.008481,0.483343,0.568201,0.050655,0.670431
1475015825,-0.008335,0.627615,0.627854,0.027728,0.61996
1475015825,-0.00822,0.735165,0.710504,-0.001158,0.595142
1475015825,-0.005181,0.848804,0.500253,-0.008407,0.555103
1475015825,-0.004777,0.889877,-0.027058,-0.022471,0.579245
1475015825,-0.00082,0.935039,0.305052,-0.06231,0.532591
1475015825,0.004377,1.060271,-0.023975,-0.077256,0.5246
1475015825,0.010411,1.132236,-0.069863,-0.08606,0.5216
1475015825,0.01109,1.20637,-0.322372,-0.139091,0.463034
1475015825,0.012328,1.2857,0.453012,-0.155077,0.425334
1475015825,0.015821,1.3268,0.8798,-0.214682,0.438882
1475015825,0.015957,1.366729,3.578079,-0.241728,0.438937
1475015825,0.013885,1.432997,6.89709,-0.272416,0.470445
1475015826,0.010952,1.460263,6.140997,-0.303846,0.441503
1475015826,0.010501,1.43216,1.160754,-0.310392,0.496978
1475015826,0.007805,1.450708,-3.999956,-0.308293,0.532335
1475015826,0.004292,1.425962,-2.131559,-0.318517,0.434299
1475015826,0.003677,1.345044,-0.814531,-0.364217,0.360011
1475015826,0.000668,1.289415,-0.243564,-0.34926,0.279461
1475015826,-0.002473,1.290034,-0.277447,-0.36416,0.229944
1475015826,-0.002747,1.331615,0.665152,-0.371846,0.248858
1475015826,-0.00525,1.272021,-0.379746,-0.370696,0.136073
1475015826,0.001785,1.171837,-0.086046,-0.379452,0.091945
1475015826,0.001977,1.121762,0.166486,-0.382528,-0.00055
1475015826,0.003734,0.927493,0.273106,-0.38386,0.006732
1475015826,0.004876,1.078737,0.101768,-0.382685,-0.044731
1475015826,0.005207,0.769208,-0.094065,-0.368414,-0.142246
1475015826,0.007578,0.780829,-0.594296,-0.372395,-0.261476
1475015826,0.008545,0.942681,-0.901698,-0.354375,-0.316167
1475015826,0.008664,0.89211,-0.854936,-0.361552,-0.323952
1475015826,0.012159,0.509821,-0.877166,-0.358496,-0.445443
1475015826,0.006555,0.538016,-1.06957,-0.380771,-0.521149
1475015826,0.006335,0.619195,-1.152726,-0.380807,-0.558499
1475015826,0.005619,0.560831,-0.541003,-0.385625,-0.644703
1475015826,0.006951,0.406526,-0.868231,-0.365452,-0.74281
1475015826,0.006639,0.469271,-0.930507,-0.33317,-0.919518
1475015826,0.002533,0.368179,-2.041394,-0.380295,-0.831705
1475015826,0.000085,0.262726,-2.033794,-0.318389,-1.01683
1475015826,-0.000092,0.199189,-1.740156,-0.263604,-1.099554
1475015826,-0.000336,0.099697,-0.955313,-0.233509,-1.138758
1475015826,0.003432,0.017984,-0.934947,-0.248693,-1.158895
1475015826,0.003471,-0.029149,-0.956038,-0.22582,-1.187544
1475015826,0.002161,-0.133106,-1.207653,-0.150192,-1.141802
1475015826,0.003653,-0.273506,-1.030109,-0.202214,-1.171258
1475015826,0.003748,-0.358362,-1.125572,-0.034592,-1.096319
1475015826,0.00625,-0.503298,-0.931545,-0.113848,-1.029805
1475015826,0.006562,-0.646233,-0.816649,-0.046346,-0.925588
1475015826,0.006553,-0.772328,-0.587518,0.025004,-0.851217
1475015826,0.005458,-0.919608,-0.26382,-0.020823,-0.800017
1475015826,0.002592,-1.030649,0.74936,0.088605,-0.731315
1475015826,0.002488,-1.1,1.43867,0.049574,-0.630988
1475015826,0.002848,-1.148101,2.108905,0.043537,-0.563494
1475015826,0.002957,-1.225522,1.915335,0.077705,-0.490294
1475015826,0.002836,-1.149523,2.052979,0.056137,-0.405473
1475015826,0.005566,-1.21714,2.087945,0.10129,-0.304027
1475015826,0.004467,-1.239449,1.965413,0.079764,-0.148497
1475015826,0.004394,-1.261751,1.902645,0.135145,0.072499
1475015826,0.004806,-1.191353,1.21885,0.13043,0.134647
1475015826,0.00341,-1.013692,-6.316916,0.122275,0.232445
1475015826,0.001687,-1.083524,-6.658884,0.155683,0.301587
1475015826,0.001499,-0.942057,-2.311563,0.156615,0.392185
1475015826,0.004499,-0.927217,2.587795,0.184536,0.470869
1475015826,0.003867,-0.855143,2.293068,0.23131,0.549228
1475015826,0.004886,-0.688795,-0.724321,0.214995,0.628341
1475015826,0.004511,-0.576216,0.231314,0.258718,0.716477
1475015826,0.002618,-0.499173,1.724172,0.289219,0.781408
1475015826,0.00697,-0.340198,1.329625,0.292514,0.85828
1475015826,-0.001892,-0.138253,1.149111,0.333818,0.910483
1475015826,0.006952,-0.01193,1.036516,0.348652,1.026233
1475015826,-0.000093,0.084171,1.160475,0.382588,0.986043
1475015826,0.004797,0.245397,1.319188,0.427646,1.081175
1475015826,0.003857,0.355839,1.190503,0.558471,1.123301
1475015826,0.004134,0.437113,1.055796,0.209192,1.170696
1475015826,0.004437,0.58552,1.118219,0.735514,1.178135
1475015826,0.003331,0.698963,1.090999,0.308287,1.193805
1475015826,0.002375,0.808781,0.922774,0.716332,1.21309
1475015826,0.000878,0.937108,0.86127,0.45203,1.197485
1475015826,0.002416,1.005618,0.83458,0.593794,1.160035
1475015826,0.003193,1.097364,0.862822,0.521523,1.114702
1475015826,0.000891,1.169686,0.918012,0.558424,1.070799
1475015826,0.003789,1.229746,0.769345,0.550805,1.034057
1475015826,0.00355,1.289016,0.678158,0.559109,1.027146
1475015826,0.002512,1.383439,0.669396,0.555892,1.021803
1475015826,0.007041,1.346774,0.689382,0.546032,1.006264
1475015826,0.005089,1.40117,0.653685,0.589721,0.944242
1475015826,0.003963,1.443136,0.602459,0.589969,0.891606
1475015826,0.001781,1.45876,0.554559,0.568376,0.86263
1475015826,0.004291,1.413785,0.515319,0.548126,0.844191
1475015826,0.005718,1.362002,0.550873,0.481976,0.883391
1475015826,0.001851,1.364767,0.571509,0.507882,0.733483
1475015826,0.002274,1.384705,0.504906,0.476253,0.64898
1475015826,0.002214,1.382027,0.495861,0.486337,0.617896
1475015826,0.002839,1.329925,0.50742,0.465772,0.583143
1475015826,0.000633,1.296057,0.504658,0.42899,0.528514
1475015826,0.000551,1.236898,0.617658,0.495078,0.479382
1475015826,0.005361,1.188367,0.940513,0.471406,0.473115
1475015826,0.004067,1.125122,1.145182,0.477101,0.484372
1475015826,0.003998,1.075437,1.197317,0.468296,0.450798
1475015826,0.004891,0.967928,0.6109,0.431983,0.471449
1475015826,0.003067,0.865807,0.040758,0.406309,0.236034
1475015826,0.003002,0.791597,0.114254,0.385234,0.379866
1475015826,0.001387,0.80814,0.309849,0.403928,0.12733
1475015826,0.003623,0.758919,0.413298,0.326765,0.088837
1475015826,0.00407,0.742743,0.775082,0.340801,0.083123
1475015826,0.004005,0.751119,0.779389,0.352432,-0.05279
1475015826,0.001416,0.731515,0.810341,0.372334,-0.106878
1475015826,-0.002703,0.675849,-0.483808,0.336421,-0.097711
1475015826,-0.002765,0.607421,-0.212833,0.315267,-0.208795
1475015826,-0.00824,0.472082,-0.054637,0.332111,-0.381168
1475015826,-0.008286,0.398104,0.320075,0.353106,-0.572412
1475015826,-0.008518,0.279613,0.176229,0.274924,-0.629019
1475015826,-0.003135,0.13463,-0.151314,0.30798,-0.671979
1475015826,-0.003133,0.034556,-0.151528,0.309713,-0.811063
1475015827,0.018165,-0.126755,-0.20866,0.296776,-0.864767
1475015827,-0.005734,-0.259045,-0.366984,0.250912,-0.88186
1475015827,-0.005824,-0.436206,-0.479091,0.241617,-0.91422
1475015827,0.008705,-0.61767,-0.522991,0.20382,-0.965288
1475015827,0.007462,-0.757628,-0.680992,0.213993,-1.025144
1475015827,0.007427,-0.967271,-0.478824,0.189112,-1.051598
1475015827,0.012362,-1.140663,-0.767001,0.192038,-1.0958
1475015827,-0.00929,-1.228956,-0.827926,0.158624,-1.093193
1475015827,-0.0094,-1.284028,-0.903663,0.126319,-1.106427
1475015827,0.01057,-1.339987,-0.956801,0.070704,-1.052147
1475015827,0.005897,-1.383989,-1.010382,0.044333,-1.001988
1475015827,0.005805,-1.406803,-1.000667,0.046215,-0.975698
1475015827,-0.003823,-1.437637,-1.012888,0.033243,-0.95253
1475015827,0.006819,-1.430926,-1.022554,-0.035397,-0.935763
1475015827,0.006781,-1.434898,-0.992043,-0.087648,-0.894029
1475015827,0.001364,-1.362467,-0.986983,-0.121416,-0.820028
1475015827,-0.002407,-1.232034,-0.876279,-0.158768,-0.787532
1475015827,-0.002487,-1.295045,-0.908714,-0.277951,-0.640775
1475015827,-0.000027,-1.109789,-0.890362,-0.366336,-0.471448
1475015827,0.007358,-0.968276,-0.82717,-0.463972,-0.399733
1475015827,0.007323,-0.839622,-0.73452,-0.535742,-0.298469
1475015827,0.009393,-0.758735,-0.683336,-0.516315,-0.052981
1475015827,-0.000954,-0.649411,-0.482235,-0.56736,0.094963
1475015827,-0.001068,-0.383154,-0.598925,-0.584563,0.234999
1475015827,-0.000842,-0.113649,-0.462481,-0.626733,0.390348
1475015827,0.004379,0.049371,-0.446053,-0.606677,0.528425
1475015827,0.004356,0.105174,-0.242424,-0.624302,0.640314
1475015827,0.005922,0.228819,-0.212092,-0.656989,0.800942
1475015827,-0.001795,0.550266,-0.12007,-0.648527,0.88605
1475015827,-0.001901,0.356802,0.143684,-0.688131,0.949834
1475015827,-0.001162,0.699039,-0.012461,-0.652567,1.032544
1475015827,0.004661,0.858512,0.256623,-0.632159,1.083044
1475015827,0.004606,0.98584,0.4138,-0.620795,1.135254
1475015827,0.002101,1.089327,0.57765,-0.614958,1.185848
1475015827,-0.001746,1.152238,0.76378,-0.62375,1.281404
1475015827,-0.001829,1.225227,0.81161,-0.613098,1.249238
1475015827,0.002486,1.318831,1.061309,-0.604398,1.306715
1475015827,0.005004,1.421153,1.134619,-0.578601,1.373446
1475015827,0.004919,1.481363,1.138397,-0.542264,1.362282
1475015827,-0.001529,1.53645,1.376474,-0.528823,1.345821
1475015827,-0.001723,1.565839,1.353546,-0.506669,1.325875
1475015827,-0.001781,1.578666,1.517341,-0.446074,1.27438
1475015827,0.004628,1.605664,1.82923,-0.338259,1.266553
1475015827,0.002683,1.546395,1.457875,-0.309724,1.269274
1475015827,0.002586,1.498282,1.883841,-0.221852,1.130944
1475015827,-0.002294,1.48629,1.708115,-0.189762,1.075895
1475015827,0.00274,1.498909,1.555627,-0.081314,1.112805
1475015827,0.002708,1.509762,1.620168,-0.031351,1.035585
1475015827,0.006286,1.437108,1.649453,-0.01875,0.918773
1475015827,0.001393,1.350476,1.404689,-0.008717,0.860436
1475015827,0.001282,1.281433,1.383174,0.039814,0.901669
1475015827,-0.001227,1.208945,1.497297,0.090966,0.737172
1475015827,-0.008099,1.071907,1.290129,0.210046,0.648336
1475015827,-0.00846,0.820354,1.152701,0.238904,0.646509
1475015827,0.002186,0.725271,1.233665,0.25651,0.555521
1475015827,-0.006241,0.795793,1.207004,0.296669,0.479864
1475015827,-0.006248,0.861828,0.909882,0.380186,0.582431
1475015827,0.011658,0.913596,1.159896,0.404946,0.343953
1475015827,0.010512,0.834569,0.847081,0.471431,0.239565
1475015827,0.010396,0.460848,1.120554,0.47806,0.24722
1475015827,0.005727,0.478851,1.140458,0.56825,0.275711
1475015827,0.001044,0.503762,0.913948,0.606959,0.248791
1475015827,-0.002001,0.510056,0.726286,0.663157,0.168659
1475015827,-0.005558,0.409962,0.625055,0.687987,0.109254
1475015827,0.004624,0.258404,0.543347,0.769313,-0.007286
1475015827,0.010445,0.24756,0.468951,0.813689,-0.131675
1475015827,0.010381,0.211192,0.341149,0.853471,-0.263697
1475015827,0.002272,0.132215,0.127876,0.917344,-0.328759
1475015827,0.000638,-0.014481,-0.05236,0.999719,-0.412096
1475015827,-0.005577,-0.169419,-0.183053,0.946849,-0.528841
1475015827,0.003322,-0.305908,-0.442587,1.031075,-0.624399
1475015827,0.00421,-0.411362,-0.709264,1.035088,-0.774219
1475015827,0.001542,-0.576359,-0.986183,1.030193,-0.839347
1475015827,0.004447,-0.766546,-1.273396,1.009538,-0.895891
1475015827,0.00327,-0.886586,-1.42387,0.998061,-0.937793
1475015827,0.002628,-1.01623,-1.581044,0.980797,-1.013124
1475015827,0.006399,-1.094636,-1.736641,0.964345,-1.056766
1475015827,0.002422,-1.236756,-1.993907,0.932791,-1.068479
1475015827,-0.002274,-1.184165,-1.786085,0.892229,-1.116337
1475015827,-0.00083,-1.26576,-1.284128,0.895809,-1.122425
1475015827,0.001518,-1.30833,-0.669168,0.900745,-1.133584
1475015827,0.001452,-1.352508,-0.599275,0.874847,-1.136434
1475015827,0.006135,-1.337798,-1.086312,0.843469,-1.10514
1475015827,0.000781,-1.323896,-1.414222,0.767627,-1.043986
1475015827,0.000682,-1.304536,-1.280245,0.699295,-1.035749
1475015827,0.00324,-1.286437,-0.874779,0.678857,-1.036318
1475015827,-0.003337,-1.240592,-0.535247,0.671554,-0.958089
1475015827,-0.003434,-1.160958,-0.337773,0.621154,-0.867789
1475015827,0.000953,-0.902921,-0.193761,0.562098,-0.827859
1475015827,0.001043,-0.748768,-0.077383,0.565336,-0.820382
1475015827,0.000956,-0.554518,-0.00048,0.504486,-0.712037
1475015827,0.002927,-0.325688,-0.229567,0.492175,-0.643583
1475015827,0.003266,-0.081286,-0.633985,0.398989,-0.511287
1475015827,0.003209,-0.01211,-1.190642,0.48538,-0.348939
1475015827,-0.00058,0.16039,-2.274869,0.408968,-0.269157
1475015827,0.000079,0.254946,-4.08401,0.253351,-0.173434
1475015827,-0.000007,0.36613,-3.609964,0.316647,0.023616
1475015827,0.003979,0.477671,1.886457,0.240742,0.240038
1475015827,0.007277,0.64901,0.924222,0.217431,0.379841
1475015827,0.007225,0.562934,2.125475,0.162225,0.485214
1475015828,0.000512,0.745653,-0.913083,0.12496,0.68397
1475015828,0.000097,0.905097,-0.099744,0.117585,0.872432
1475015828,0.000016,0.999154,1.088117,0.069038,0.974526
1475015828,0.003585,1.090204,1.589758,-0.024182,1.021874
1475015828,0.004247,1.14411,0.684758,-0.07796,1.139988
1475015828,0.004169,1.256435,1.140225,-0.101053,1.220298
1475015828,-0.002188,1.305245,1.494995,-0.155101,1.280414
1475015828,0.000785,1.394685,1.571713,-0.259712,1.300663
1475015828,0.000836,1.403162,1.934726,-0.339144,1.385687
1475015828,0.003594,1.455529,1.334852,-0.444696,1.379467
1475015828,0.00341,1.4897,1.71422,-0.518705,1.394297
1475015828,0.003319,1.479905,1.966708,-0.620565,1.409781
1475015828,0.000843,1.470146,1.846453,-0.652689,1.383031
1475015828,0.001927,1.460106,1.663619,-0.757397,1.355738
1475015828,0.003451,1.460063,1.820194,-0.810019,1.312159
1475015828,0.005967,1.469039,1.845713,-0.875347,1.276621
1475015828,0.000721,1.387034,1.805232,-0.856765,1.249357
1475015828,0.001083,1.432188,1.727096,-0.884482,1.204054
1475015828,0.002632,1.327525,1.568943,-0.92206,1.149327
1475015828,0.003912,1.219814,1.798322,-0.959715,1.102462
1475015828,0.003276,1.290259,1.606156,-0.937546,1.048626
1475015828,0.00199,1.115362,1.275658,-0.889506,0.98771
1475015828,-0.000021,0.99167,1.335501,-0.849865,0.92534
1475015828,0.001435,0.939128,1.365721,-0.802543,0.802439
1475015828,0.004718,0.938116,0.933836,-0.702778,0.694617
1475015828,0.004363,0.90238,0.506941,-0.658445,0.632025
1475015828,0.003516,0.812451,0.216979,-0.692611,0.519246
1475015828,0.000014,0.713273,-0.244993,-0.71452,0.460009
1475015828,-0.000204,0.666429,-0.701143,-0.708635,0.507114
1475015828,0.00141,0.68812,-0.545771,-0.61421,0.614871
1475015828,0.00361,0.645177,-0.691804,-0.523024,0.674833
1475015828,0.005419,0.473416,-0.69071,-0.271138,0.39239
1475015828,0.002311,0.570714,-0.739079,-0.289451,0.249868
1475015828,0.002545,0.409474,-0.764331,-0.266401,0.267481
1475015828,0.001137,0.235645,-0.533928,-0.118429,0.268467
1475015828,0.003556,0.333048,-0.808562,-0.059548,0.122163
1475015828,0.004223,0.142294,-0.475688,-0.029509,0.169031
1475015828,0.00291,0.017437,-0.482084,0.048458,0.151088
1475015828,0.002653,-0.066682,6.2737,0.070436,0.096701
1475015828,0.00127,-0.21699,4.00299,0.15775,0.039975
1475015828,0.002781,-0.336133,-2.893812,0.17362,-0.034619
1475015828,0.003334,-0.492909,-1.358719,0.228898,-0.16587
1475015828,0.00609,-0.661733,1.643138,0.301997,-0.411017
1475015828,-0.000296,-0.811569,0.142394,0.321351,-0.5392
1475015828,0.000413,-0.841231,0.690651,0.451556,-0.656116
1475015828,0.002236,-0.884413,-0.726006,0.52536,-0.764909
1475015828,-0.000861,-0.960955,-0.455471,0.593387,-0.886387
1475015828,-0.006534,-1.052019,0.14517,0.639234,-0.948396
1475015828,0.012305,-1.144908,-0.02617,0.653056,-1.042926
1475015828,0.017681,-1.243701,-0.288484,0.711731,-1.110213
1475015828,0.017599,-1.329435,-0.495861,0.786619,-1.195492
1475015828,-0.022369,-1.377376,-0.483065,0.813283,-1.234095
1475015828,-0.221421,-1.403189,-0.522302,0.87549,-1.257865
1475015828,-0.221407,-1.390688,-0.692176,0.890906,-1.233985
1475015828,-0.123827,-1.354219,-0.757698,0.93986,-1.216508
1475015828,-0.124743,-1.365674,-0.770462,0.938735,-1.221951
1475015828,-0.123563,-1.273409,-0.767977,0.984622,-1.13547
1475015828,0.033901,-1.165304,-0.848793,0.968102,-1.178319
1475015828,0.032947,-1.079765,-1.132044,0.975114,-1.137837
1475015828,0.033207,-1.0556,-1.001719,0.96338,-1.146943
1475015828,0.006651,-0.931013,-1.194557,0.926359,-1.039287
1475015828,0.006349,-0.778164,-1.193178,0.941192,-0.961678
1475015828,0.006444,-0.585163,-1.085888,0.916584,-0.923267
1475015828,0.026167,-0.400417,-1.086938,0.902241,-0.870331
1475015828,0.026007,-0.203759,-1.171653,0.861854,-0.560588
1475015828,0.025647,-0.309366,-1.087575,0.845438,-0.753305
1475015828,-0.015791,-0.021789,-0.979551,0.841402,-0.493098
1475015828,-0.015788,0.196237,-0.841368,0.797587,0.01733
1475015828,-0.01581,0.341247,-0.931936,0.74148,0.268699
1475015828,0.003499,0.447432,-0.684704,0.703431,0.398774
1475015828,0.003485,0.549527,-0.549912,0.676205,0.160686
1475015828,0.00358,0.656611,-0.462117,0.638607,0.33055
1475015828,0.008473,0.722095,-0.328658,0.631451,0.476887
1475015828,0.00849,0.818675,-0.219052,0.671175,0.685021
1475015828,0.008521,0.910827,-0.047795,0.632933,0.926164
1475015828,-0.001341,0.985939,0.095268,0.542461,1.137423
1475015828,-0.001373,1.169197,0.206281,0.507736,1.195668
1475015828,-0.001408,1.056386,0.36067,0.524239,1.202581
1475015828,0.005529,1.212091,0.499102,0.48368,1.363438
1475015828,0.005482,1.297685,0.712883,0.418636,1.263804
1475015828,0.002608,1.363515,0.75179,0.415936,1.418219
1475015828,0.01049,1.407016,0.815692,0.338113,1.461578
1475015828,0.010314,1.407919,1.013147,0.307663,1.488151
1475015828,-0.003032,1.417107,0.919534,0.247645,1.479838
1475015828,-0.003182,1.431339,1.09415,0.236638,1.460696
1475015828,-0.003188,1.455082,1.208906,0.199851,1.432488
1475015828,-0.001305,1.465309,1.141787,0.168895,1.376945
1475015828,0.041909,1.445721,1.198831,0.160963,1.314418
1475015828,0.041763,1.426318,1.230744,0.115387,1.260001
1475015828,0.055922,1.407245,1.321709,0.068953,1.205887
1475015828,-0.034543,1.39677,1.314776,0.046632,1.134416
1475015828,-0.034296,1.318718,1.303114,-0.05282,1.091341
1475015828,-0.007357,1.210333,1.309715,0.005414,0.998574
1475015828,-0.011634,1.1322,1.317464,-0.069055,1.082584
1475015828,-0.011609,1.085501,1.247871,-0.172561,0.822561
1475015828,-0.00055,0.995754,1.325297,-0.195293,0.756417
1475015828,0.020431,0.928656,1.204884,-0.283615,0.768896
1475015828,0.020252,0.855719,1.149343,-0.300136,0.728479
1475015828,0.019574,0.812863,1.194528,-0.355692,0.630161
1475015828,0.003644,0.798364,1.063043,-0.413247,0.627735
1475015829,0.003765,0.819506,0.717786,-0.477897,0.594095
1475015829,0.003859,0.735717,0.365621,-0.524127,0.438927
1475015829,-0.007445,0.632184,0.27066,-0.606219,0.396114
1475015829,-0.007455,0.546447,0.47919,-0.651247,0.398039
1475015829,0.007936,0.480839,0.742017,-0.737346,0.308777
1475015829,0.002895,0.421448,1.00169,-0.745918,0.188272
1475015829,0.002744,0.346295,1.044928,-0.803094,0.118181
1475015829,0.004659,0.277026,1.206386,-0.789494,0.122683
1475015829,-0.002739,0.077443,1.566065,-0.798401,0.073412
1475015829,-0.002596,-0.043963,0.741781,-0.80211,0.058949
1475015829,-0.004084,-0.15374,0.052832,-0.774463,0.001366
1475015829,-0.007866,-0.285519,0.524255,-0.787628,0.038493
1475015829,-0.007951,-0.446573,0.595146,-0.748613,-0.014096
1475015829,0.001178,-0.59065,0.589828,-0.755397,-0.104624
1475015829,0.005087,-0.757274,0.270713,-0.659198,-0.142256
1475015829,0.005052,-0.853484,0.216169,-0.554346,-0.176298
1475015829,0.001836,-0.987465,0.236385,-0.544036,-0.22564
1475015829,0.000159,-1.118843,0.268527,-0.477607,-0.501107
1475015829,0.000072,-1.187207,0.256693,-0.489379,-5.477271
1475015829,-0.000619,-1.293915,0.173949,-0.428162,-1.788322
1475015829,0.001884,-1.365885,0.119138,-0.421179,-3.17545
1475015829,0.001845,-1.411299,0.029649,-0.422597,5.150431
1475015829,0.005111,-1.417789,-0.110755,-0.481387,1.363279
1475015829,0.004988,-1.426704,-0.209086,-0.513781,0.183841
1475015829,0.004901,-1.406787,-0.372334,-0.362818,-2.393689
1475015829,0.002816,-1.359906,-0.500031,0.105621,-2.494959
1475015829,-0.006102,-1.286914,-0.621708,-0.085164,-1.384661
1475015829,-0.006157,-1.198775,-0.91214,-0.073574,-1.143668
1475015829,0.001348,-1.118465,-0.75213,0.03372,-0.98487
1475015829,0.001073,-0.893589,-1.05357,0.008869,-0.557558
1475015829,0.002088,-1.009616,-1.172814,0.085648,-0.096763
1475015829,0.001985,-0.74477,-1.230842,0.107998,-0.817804
1475015829,-0.003695,-0.470584,-1.352476,0.135389,-0.932375
1475015829,0.001498,-0.311831,-1.373157,0.2007,-0.647731
1475015829,0.001463,-0.24771,-1.35822,0.253227,-0.534421
1475015829,0.002132,0.229704,-1.330748,0.376653,-0.485522
1475015829,-0.002011,-0.065917,-1.224633,0.265892,-0.48733
1475015829,-0.002089,0.39164,-1.369344,0.403401,-0.587876
1475015829,0.004128,0.522954,-1.111504,0.448163,-0.377846
1475015829,0.008493,0.621991,-1.210919,0.481639,-0.729244
1475015829,0.008451,0.701788,-1.418106,0.492844,-0.010731
1475015829,0.002845,0.85002,-1.511595,0.593467,-0.23679
1475015829,-0.003105,0.91416,-1.315659,0.570306,-0.023116
1475015829,-0.003213,1.003677,-0.712905,0.639852,-0.170157
1475015829,-0.002492,1.138194,-0.636885,0.652489,0.464179
1475015829,0.002367,1.062956,,0.706194,0.192379
1475015829,0.002286,1.244346,-0.506929,,0.287758
1475015829,-0.003457,1.335114,-0.679361,0.744389,0.616588
1475015829,0.002884,1.374016,-0.412215,0.768137,0.861462
1475015829,0.002835,1.394569,-0.232964,0.773804,0.804775
1475015829,0.000846,1.42702,-0.07288,0.823234,1.016596
1475015829,0.005208,1.44954,0.071758,0.855123,0.886493
1475015829,0.00513,1.453004,0.469048,0.851741,1.130951
1475015829,0.004575,1.495544,0.268457,0.880273,1.180456
1475015829,-0.005253,1.523658,0.652386,0.899518,1.171727
1475015829,-0.005378,1.494061,0.813833,0.878324,1.245441
1475015829,0.007858,1.47646,0.966324,0.874719,1.262488
1475015829,0.006643,1.500139,1.073246,0.860966,1.307882
1475015829,0.00661,1.461179,1.205188,0.850052,1.292003
1475015829,0.001723,1.341592,1.341075,0.838896,1.223081
1475015829,-0.007343,1.176816,1.449242,0.807133,1.243584
1475015829,-0.007463,1.231946,1.593996,0.788351,1.222953
1475015829,0.00014,1.106297,1.673131,0.772965,1.181363
1475015829,0.014573,1.052652,1.754197,0.770992,1.215929
1475015829,0.014465,1.061981,1.788953,0.722904,1.105594
1475015829,0.014944,1.003788,1.785561,0.731768,1.094318
1475015829,-0.030183,0.887151,1.790667,0.738842,1.088366
1475015829,-0.030303,0.855427,1.745219,0.6875,1.034624
1475015829,-0.009847,0.831821,1.643874,0.665902,0.953053
1475015829,0.013408,0.738399,1.563059,0.656421,0.902374
1475015829,0.013403,0.707381,1.496937,0.580661,0.84345
1475015829,-0.020443,0.661519,1.448604,0.530243,0.883099
1475015829,0.012346,0.490469,1.342031,0.555154,0.880419
1475015829,0.012347,0.629146,1.209933,0.5086,0.775922
1475015829,0.000253,0.370707,1.131732,0.481011,0.796938
1475015829,-0.027144,0.194405,1.225013,0.442231,0.793422
1475015829,-0.027023,0.076332,0.956892,0.391657,0.477224
1475015829,-0.051146,-0.003656,1.18886,0.39224,0.414634
1475015829,0.017103,-0.351053,0.998314,0.323439,0.408809
1475015829,0.017065,-0.176148,1.055714,0.298789,0.637064
1475015829,-0.000441,-0.559951,0.838025,0.290143,0.683151
1475015829,0.032771,-0.793215,0.712958,0.224855,0.466519
1475015829,0.032613,-0.697112,0.553467,0.211984,0.489628
1475015829,0.013813,-0.960741,0.55105,0.169194,0.11054
1475015829,-0.00602,-1.121361,0.518013,0.119415,0.002724
1475015829,-0.00595,-1.245962,0.296978,0.139226,0.036793
1475015829,0.063716,-1.250148,0.408611,0.082325,-0.033477
1475015829,-0.057945,-1.319399,0.215028,-0.013074,-0.030063
1475015829,-0.057801,-1.364099,0.084242,0.054326,-0.058432
1475015829,0.009799,-1.430393,0.024593,-0.069846,-0.117424
1475015829,-0.073923,-1.437584,-0.139598,-0.214426,-0.175204
1475015829,0.069735,-1.461962,-0.307529,-0.135728,-0.171714
1475015829,-0.012186,-1.436195,-0.409385,-0.269231,-0.244988
1475015829,-0.023987,-1.262809,-0.606923,-0.302906,-0.314944
1475015829,0.040421,-1.355337,-0.795513,-0.368906,-0.312356
1475015829,-0.033198,-1.193833,-0.885026,-0.447007,-3.204075
1475015829,0.016643,-1.10864,-1.027806,-0.522438,-1.364343
1475015829,0.019453,-1.002712,-1.193087,-0.591557,0.799043
1475015829,-0.013715,-0.773912,-1.338277,-0.62888,-0.118705
1475015829,-0.001116,-0.701921,-1.508713,-0.759986,-1.455906
1475015830,-0.005842,-0.556703,-1.617765,-0.708386,-1.059441
1475015830,0.002225,-0.35253,-1.626163,-0.818513,-0.526063
1475015830,0.000115,0.145211,-1.672106,-0.835239,-0.420144
1475015830,-0.002576,-0.092353,-1.700226,-0.851701,-0.329023
1475015830,0.007457,0.178945,-1.729897,-0.860627,-0.517715
1475015830,-0.007642,0.280341,-1.728191,-0.857765,-1.013133
1475015830,-0.010768,0.495839,-1.666523,-0.844703,-1.225535
1475015830,0.007854,0.689852,-1.742609,-0.836487,-1.207794
1475015830,-0.002622,0.855282,-1.617541,-0.840533,-1.162928
1475015830,0.011958,0.967327,-1.502954,-0.736545,-0.954068
1475015830,0.012072,1.020614,-1.2993,-0.795769,-0.65652
1475015830,0.002397,1.105063,-1.113878,-0.709591,-0.826653
1475015830,0.002338,1.195704,-0.968205,-0.596296,-0.81741
1475015830,-0.031134,1.303944,-0.747866,-0.652924,-0.553291
1475015830,0.001146,1.358865,-0.5762,-0.501706,-0.702007
1475015830,-0.003306,1.424843,-0.321126,-0.436598,-0.34377
1475015830,-0.002522,1.472925,-0.010378,-0.335297,-0.070018
1475015830,0.013425,1.469254,0.309596,-0.390318,-0.146577
1475015830,-0.010107,1.510325,0.583474,-0.181915,-0.068204
1475015830,-0.002077,1.503631,0.827278,-0.200298,-0.23333
1475015830,-0.002583,1.545754,1.019873,-0.059518,-0.07375
1475015830,-0.005348,1.579036,1.250358,-0.03867,0.139452
1475015830,0.011774,,1.450607,-0.047533,0.442937
1475015830,-0.002887,1.546812,1.630583,0.125562,0.626066
1475015830,-0.001239,1.542785,1.823179,0.080352,0.661695
1475015830,-0.002281,1.535519,1.915367,0.183871,0.66397
1475015830,0.007415,1.476527,1.983514,0.250025,0.708335
1475015830,0.000589,1.384186,2.117355,0.42477,0.785257
1475015830,-0.001047,1.272221,2.099378,0.344913,0.882757
1475015830,-0.001127,1.200531,2.104424,0.386341,0.951429
1475015830,0.005741,1.14269,2.147198,0.374694,1.021799
1475015830,0.003852,1.090962,2.067991,0.509484,1.078689
1475015830,-0.008416,0.985256,1.957882,0.490116,1.141792
1475015830,0.00711,0.918926,1.893167,0.620612,1.226272
1475015830,-0.012147,0.915362,1.817668,0.626264,1.318876
1475015830,0.000121,0.870504,1.624174,0.712834,1.281887
1475015830,-0.003875,0.787584,1.479243,0.707331,1.333248
1475015830,-0.005131,0.715141,1.431168,0.758632,1.34848
1475015830,0.003013,0.556939,1.43464,0.809235,1.348565
1475015830,-0.004838,0.548843,1.386893,0.834916,1.304739
1475015830,-0.015791,0.536025,1.190654,,1.304542
1475015830,0.003059,0.461324,1.203481,0.826793,1.210836
1475015830,-0.040036,0.510465,1.249147,0.854271,1.154211
1475015830,0.062297,0.333711,1.037343,,1.064484
1475015830,0.00356,0.120073,0.81367,0.876534,1.123859
1475015830,-0.019856,0.22981,0.729868,0.879199,1.006299
1475015830,0.029439,-0.01205,0.654225,0.887589,0.927782
1475015830,-0.003475,-0.194117,0.556565,0.899564,0.925556
1475015830,-0.030599,-0.290404,0.427576,0.868216,0.939156
1475015830,-0.036098,-0.459635,0.322877,0.869973,0.841544
1475015830,-0.036626,-0.695351,0.15874,0.841132,0.890519
1475015830,-0.002105,-0.563854,0.064203,0.812413,0.75707
1475015830,-0.012141,-0.824992,-0.171984,0.796341,0.476208
1475015830,-0.012129,-1.049836,-0.315192,0.784542,0.565289
1475015830,-0.003656,-0.951223,-0.460256,0.731101,0.411018
1475015830,0.004147,-1.181109,-0.59716,0.704154,-0.009588
1475015830,0.004751,-1.32706,-0.740578,0.705258,0.062479
1475015830,0.005391,-1.271445,-0.887619,0.694981,0.137291
1475015830,0.002877,-1.335884,-1.07314,0.672632,0.03055
1475015830,0.002912,-1.311311,-1.237751,0.647844,0.086634
1475015830,0.008312,-1.338082,-1.4427,0.619912,0.037771
1475015830,0.005262,-1.367345,-1.572773,0.617419,0.020138
1475015830,0.00508,-1.354408,-1.680787,0.589354,0.007946
1475015830,0.011909,-1.270296,-1.712525,0.571982,0.632959
1475015830,0.006378,-1.197537,-1.772118,0.548458,0.26104
1475015830,0.006078,-1.118871,-1.796425,0.53916,1.536867
1475015830,-0.033686,-1.017849,-1.817333,0.507842,1.016625
1475015830,-0.023429,-0.863325,-1.814463,0.437673,-1.283103
1475015830,-0.023804,-0.676663,-1.78238,0.357727,-4.4357
1475015830,0.0266,-0.562605,-1.697074,0.383415,-0.200549
1475015830,-0.000168,-0.478178,-1.576889,0.330571,0.037806
1475015830,-0.000349,-0.303782,-1.45233,0.354305,-0.869993
1475015830,-0.012142,-0.150109,-1.298779,0.323193,-1.241302
1475015830,0.002434,-0.052836,-1.104608,0.310229,-0.750259
1475015830,0.002606,0.101452,-0.611683,0.282016,-0.764287
1475015830,0.007737,0.284553,-0.957684,0.281533,-0.89342
1475015830,-0.00485,0.44185,-0.362053,0.269572,-0.981042
1475015830,-0.004761,0.619032,-0.192193,0.220332,-0.993618
1475015830,0.00145,0.73965,0.153862,0.186127,
1475015830,0.013593,0.801898,0.441981,0.131735,-1.035848
1475015830,0.013553,0.856576,0.840128,0.094443,-1.065867
1475015830,0.00223,0.949308,0.651732,0.056039,-1.068233
1475015830,-0.004597,1.011917,1.002289,-0.024956,-1.111814
1475015830,-0.004788,1.099196,1.201165,-0.109935,-1.115868
1475015830,-0.002622,1.200415,1.32583,-0.1624,-1.068603
1475015830,-0.029413,1.267319,1.467036,-0.298073,-1.046335
1475015830,-0.02977,1.382329,1.535875,-0.34554,-0.977078
1475015830,-0.029969,1.399939,1.626502,-0.483158,-1.039492
1475015830,0.024999,1.450851,1.670171,-0.675816,-0.823585
1475015830,0.024826,1.492718,1.715442,-0.611218,-0.757531
1475015830,0.021995,1.561226,1.804628,-0.785157,-0.725678
1475015830,0.000987,1.566443,1.742829,-0.857069,-0.586788
1475015830,0.000996,1.543849,1.83145,-0.976159,-0.485936
1475015830,-0.017722,1.547617,1.773373,-0.927492,-0.496189
1475015830,0.005982,1.487851,1.747552,-0.991059,-0.352178
1475015830,0.006008,1.301047,1.739537,-1.019564,-0.202108
1475015830,0.002134,1.430875,1.563143,-1.048471,-0.027779
1475015830,-0.014604,1.249546,1.681203,-1.035933,0.157917
1475015830,-0.014519,1.221347,1.46214,-0.999935,0.311802
1475015830,-0.003811,1.227141,1.411111,-0.978912,0.382527
1475015831,0.002841,1.133684,1.390336,-0.929251,0.482439
1475015831,0.002761,0.998037,1.279685,-0.917441,0.582617
1475015831,-0.010557,0.98051,1.191355,-0.871582,0.653027
1475015831,-0.012786,1.041459,1.153917,-0.789805,0.766583
1475015831,-0.013066,0.812998,1.181734,-0.661813,0.887787
1475015831,0.005305,0.671175,1.033287,-0.596305,0.970211
1475015831,0.009831,0.993245,0.916174,-0.487712,1.064857
1475015831,0.009758,0.675325,0.954972,-0.335513,1.221803
1475015831,-0.000794,0.701481,0.906461,-0.425817,1.166772
1475015831,0.000808,0.720847,0.813946,-0.218354,1.280078
1475015831,0.000896,0.666242,0.75545,-0.079369,1.375869
1475015831,0.00855,0.560765,0.601478,0.002432,1.337831
1475015831,0.003226,0.418965,0.699715,0.074025,1.391255
1475015831,0.003176,0.299695,0.502815,0.188268,1.422396
1475015831,0.001813,0.228351,0.248678,0.242567,1.409449
1475015831,-0.005576,0.116944,0.369115,0.374636,1.396364
1475015831,-0.005705,-0.027418,0.131774,0.454352,1.36538
1475015831,0.033343,-0.182939,0.02034,0.428207,1.322643
1475015831,0.052673,-0.28603,-0.119878,0.507446,1.276307
1475015831,0.052541,-0.420619,-0.276401,0.625467,1.171801
1475015831,-0.003035,-0.645241,-0.598414,0.677248,1.248549
1475015831,-0.002951,-0.505591,-0.458615,0.767938,1.07397
1475015831,-0.003214,-0.780616,-0.792171,0.797915,0.977069
1475015831,0.008517,-0.916606,-0.963022,0.854068,0.953389
1475015831,-0.00521,-1.009372,-1.149186,1.010721,0.920057
1475015831,-0.005293,-1.120478,-1.313185,0.929595,0.686736
1475015831,0.00863,-1.220601,-1.404427,1.05488,0.869044
1475015831,0.009534,-1.278762,-1.50789,1.076971,0.441306
1475015831,0.009695,-1.334341,-1.583513,1.131644,0.417528
1475015831,0.006046,-1.357196,-1.648474,1.20242,0.9827
1475015831,-0.007538,-1.330259,-1.71024,1.224468,1.187684
1475015831,0.010779,-1.353036,-1.744755,1.252596,0.201676
1475015831,-0.003378,-1.34586,-1.654722,1.246071,0.106751
1475015831,-0.004382,-1.288272,-1.588789,1.232979,0.310887
1475015831,-0.005698,-1.158932,-1.509913,1.208539,0.463812
1475015831,0.027773,-1.01095,-1.334295,1.156763,0.316536
1475015831,-0.048357,-0.893147,-1.164933,1.11175,0.219056
1475015831,0.035602,-0.778661,-1.004138,1.104722,0.085939
1475015831,0.03589,-0.688719,-0.772541,1.02167,0.102046
1475015831,-0.00018,-0.552798,-0.529602,0.980679,-0.046747
1475015831,0.003602,-0.383474,-0.223189,1.02311,-0.14906
1475015831,0.003504,-0.225286,0.059824,0.948751,-0.259367
1475015831,-0.000223,-0.109094,0.293706,0.935515,-0.32315
1475015831,-0.025139,0.083733,0.560063,0.815569,-0.423279
1475015831,-0.025111,0.382747,0.780211,0.890756,-0.552429
1475015831,-0.002094,0.25393,1.048597,0.811531,-0.62228
1475015831,-0.010323,0.533089,1.300565,0.750025,-0.679805
1475015831,-0.010305,0.607285,1.456528,0.672778,-0.785212
1475015831,-0.009176,0.673056,1.630379,0.619535,-0.86436
1475015831,0.004396,0.787789,1.717906,0.566542,-0.92187
1475015831,-0.004928,0.885009,1.804927,0.522423,-1.002673
1475015831,-0.002744,0.990869,1.90943,0.466801,-1.021339
1475015831,0.003841,1.040119,1.959251,0.459429,-1.034782
1475015831,0.003841,1.102259,2.000666,0.406322,-1.027002
1475015831,-0.005415,1.179278,2.074916,0.373221,-1.048886
1475015831,-0.011035,1.240576,2.133791,0.24079,-1.043098
1475015831,-0.011183,1.293597,2.074819,0.245736,-1.04331
1475015831,0.012038,1.315521,2.106876,0.233625,-1.039671
1475015831,0.005735,1.372782,1.764799,0.141393,-1.024394
1475015831,0.000104,1.439089,1.812428,0.088727,-1.005282
1475015831,-0.001158,1.467401,1.760878,-0.01777,-0.990677
1475015831,-0.02831,1.492899,1.584409,-0.105935,-0.993515
1475015831,0.024024,1.52013,1.548046,-0.190402,-0.950764
1475015831,0.027091,1.498333,1.466087,-0.242284,-0.919629
1475015831,-0.008685,1.481057,1.305294,-0.495005,-0.839978
1475015831,0.020994,1.36094,1.168922,-0.279058,-0.746889
1475015831,-0.000672,1.460879,0.975369,-0.55737,-0.665134
1475015831,0.001422,1.260106,0.837228,-0.704887,-0.501121
1475015831,0.021559,1.247651,1.093835,-0.652011,-0.617883
1475015831,0.015191,1.224344,1.085445,-0.810704,-0.367785
1475015831,-0.028519,1.151341,0.747767,-0.865788,-0.336271
1475015831,0.034506,1.047837,0.491319,-0.914151,-0.254311
1475015831,-0.002722,1.024373,0.150153,-0.934549,-0.150053
1475015831,-0.017311,0.994275,-0.11419,-1.00085,0.334383
1475015831,0.028806,0.95354,0.476753,-0.943544,0.103653
1475015831,-0.007958,0.860261,0.644866,-0.97641,0.479382
1475015831,-0.001289,0.787846,0.26373,-0.999794,0.754691
1475015831,0.008068,0.755528,-0.264904,-0.970436,0.621871
1475015831,-0.007621,0.734952,-0.776521,-0.978803,0.795752
1475015831,0.004881,0.718248,-0.630553,-0.916137,0.988825
1475015831,-0.011148,0.705227,-0.85165,-0.960091,0.8865
1475015831,-0.004635,0.639028,-0.814763,-0.873219,1.10264
1475015831,-0.006007,0.56731,-1.026841,-0.767398,1.170345
1475015831,-0.007549,0.428896,-1.335297,-0.7271,1.249555
1475015831,0.003132,0.296511,-1.489627,-0.660567,1.311184
1475015831,-0.002725,0.16101,-1.645373,-0.588118,1.342626
1475015831,0.002341,-0.072458,-1.709197,-0.524043,1.387958
1475015831,-0.000469,0.075402,-1.758777,-0.450602,1.421506
1475015831,-0.001971,-0.204763,-1.786753,-0.314255,1.424886
1475015831,0.00363,-0.340941,-1.797828,-0.350358,1.426432
1475015831,0.006065,-0.506381,-1.796135,-0.232858,1.421591
1475015831,0.001832,-0.648072,-1.832427,-0.173969,1.397766
1475015831,0.006118,-0.915051,-1.687331,-0.118195,1.365206
1475015831,0.001072,-0.79115,-1.672063,-0.008196,1.301821
1475015831,0.002488,-1.055624,-1.806421,0.142179,1.245251
1475015831,-0.000127,-1.200789,-1.396698,0.070663,1.100149
1475015831,0.005034,-1.276191,-1.193875,0.222927,1.040327
1475015831,0.003474,-1.338472,-1.244278,0.294274,0.971155
1475015831,0.00471,-1.324009,-0.836374,0.359145,1.030817
1475015831,-0.005297,-1.312069,-0.979923,0.40916,0.799316
1475015832,0.031742,-1.35851,-0.430103,0.605418,0.320792
1475015832,0.765583,-1.363458,-0.173651,0.498604,0.378731
1475015832,-1.01031,-1.384843,0.174959,0.645575,0.657728
1475015832,0.553387,-1.349632,0.43446,0.701422,1.412274
1475015832,-0.21988,-1.230051,0.678574,0.771749,1.295763
1475015832,0.012337,-1.078117,0.959988,0.804787,-0.176378
1475015832,-0.175545,-0.92679,1.210944,0.873357,0.153363
1475015832,-0.214853,-0.845096,1.45833,0.900794,0.529077
1475015832,0.159474,-0.763649,1.579737,0.944868,0.448531
1475015832,0.134336,-0.625608,1.709945,0.943141,0.317226
1475015832,0.046599,-0.256989,2.059509,0.983359,0.189794
1475015832,-0.038689,-0.434832,1.468584,0.988493,0.165337
1475015832,-0.017459,-0.172614,1.964409,1.029567,0.055789
1475015832,0.055745,-0.007409,2.085995,1.049596,-0.069912
1475015832,0.089169,0.175438,1.911869,1.083471,-0.174044
1475015832,0.069757,0.492459,2.182124,1.07495,-0.262284
1475015832,0.033675,0.416971,1.813832,1.052635,-0.294587
1475015832,0.015162,0.617811,2.188629,1.012679,-0.452794
1475015832,0.017439,0.735654,1.898573,0.956114,-0.364503
1475015832,0.034619,0.804448,1.371283,0.996944,-0.549921
1475015832,0.023964,0.898843,0.856271,0.942396,-0.66061
1475015832,0.026295,1.058845,0.962287,0.900446,-0.722888
1475015832,0.027392,1.122612,1.552593,0.94185,-0.875683
1475015832,0.032416,1.180396,2.122551,0.872811,-0.982441
1475015832,0.035209,1.265842,2.213311,0.848453,-1.081674
1475015832,0.036165,1.364248,1.854485,0.805693,-1.176366
1475015832,0.053152,1.405095,0.65354,0.76435,-1.252469
1475015832,0.057512,1.457266,0.611098,0.741598,-1.286056
1475015832,0.056979,1.49314,1.27208,0.717688,-1.329238
1475015832,0.049203,1.513331,1.062097,0.67918,-1.379159
1475015832,0.027614,1.510664,0.727853,0.562281,-1.391344
1475015832,0.02639,1.520868,1.062985,0.576476,-1.387623
1475015832,0.01246,1.532441,0.734568,0.533782,-1.418177
1475015832,0.009407,1.502766,0.574228,0.48038,-1.225784
1475015832,0.008998,1.483792,0.588306,0.49915,-1.365729
1475015832,0.01362,1.382525,0.934555,0.484815,-1.233646
1475015832,0.022779,1.35969,0.68378,0.408237,-1.197095
1475015832,0.023373,1.304305,0.284949,0.373774,-0.971689
1475015832,0.040034,1.207342,-0.161127,0.354981,-0.815024
1475015832,0.040998,1.118107,-0.422402,0.284178,-0.757055
1475015832,0.035216,1.033032,-0.500423,0.29685,-0.531579
1475015832,0.045218,0.990992,-0.025925,0.236173,-0.304561
1475015832,0.041263,0.961123,-0.43911,0.159541,-0.260869
1475015832,0.039912,0.887797,-0.806133,0.136782,-0.019135
1475015832,0.037176,0.728981,-1.037987,0.06251,0.333298
1475015832,0.042027,0.635327,-1.318844,-0.009319,0.369476
1475015832,0.041672,0.63799,-1.224323,-0.034884,0.496168
1475015832,0.040871,0.616363,-1.43532,-0.101208,0.608163
1475015832,0.032033,0.548368,-1.447607,-0.165033,0.741904
1475015832,0.0298,0.521748,-1.54031,-0.267417,0.592478
1475015832,0.035346,0.479918,-1.61577,-0.180981,0.850572
1475015832,0.03508,0.252854,-1.640578,-0.606227,1.029757
1475015832,0.050937,0.36823,-1.69295,-0.219793,0.925401
1475015832,0.056187,0.110035,-1.675689,-0.712321,1.039186
1475015832,0.05627,0.027679,-1.472575,-0.487362,1.143516
1475015832,0.056114,-0.080076,-1.648895,-0.734893,1.262693
1475015832,0.053289,-0.177545,-1.871043,-0.716997,1.295175
1475015832,0.051692,-0.461299,-1.45966,-0.764531,1.373561
1475015832,0.024378,-0.31509,-1.34365,-0.782577,1.438994
1475015832,0.003166,-0.60056,-1.148026,-0.815262,1.483777
1475015832,-0.018383,-0.742,-1.062602,-0.798485,1.513994
1475015832,-0.024857,-0.872224,-0.949817,-0.866296,1.504674
1475015832,-0.024892,-1.047941,-0.588013,-0.895942,1.522025
1475015832,-0.023039,-1.168701,-0.160934,-0.865045,1.499398
1475015832,-0.014335,-1.230655,-0.05859,-0.866273,1.426617
1475015832,-0.012941,-1.279361,0.118165,-0.840967,1.317975
1475015832,0.006794,-1.278183,0.359994,-0.768085,1.287463
1475015832,0.008027,-1.324315,0.630058,-0.749505,1.268904
1475015832,0.000331,-1.346874,0.870333,-0.709565,1.21827
1475015832,-0.001982,-1.377766,1.072788,-0.621495,1.03846
1475015832,-0.003252,-1.368438,1.263524,-0.579509,1.120089
1475015832,0.00387,-1.34672,1.443834,-0.558947,0.965355
1475015832,-0.002842,-1.240167,1.552167,-0.494084,0.607926
1475015832,0.001993,-1.122561,1.694269,-0.470817,0.709498
1475015832,-0.008704,-0.983749,1.825081,-0.425536,0.627091
1475015832,-0.00918,-0.809343,1.908394,-0.356948,1.02639
1475015832,-0.014514,-0.891774,2.014558,-0.295494,0.664333
1475015832,-0.01452,-0.675961,2.103335,-0.228349,0.813175
1475015832,-0.008884,-0.526077,2.080842,-0.141798,0.431395
1475015832,-0.006116,-0.380783,2.073087,-0.103352,0.164678
1475015832,-0.015088,-0.25532,1.847673,0.064541,0.357931
1475015832,-0.039862,-0.110862,1.780053,0.108221,0.325339
1475015832,-0.046967,0.041751,1.745,0.176153,0.313728
1475015832,-0.037513,0.230015,1.584214,0.245644,0.256006
1475015832,-0.032331,0.3331,1.417053,0.250753,0.182506
1475015832,-0.0181,0.455417,1.455761,0.252122,-0.037775
1475015832,-0.118643,0.502222,1.462123,0.287281,-0.166122
1475015832,0.046098,0.72232,1.305005,0.354144,-0.259127
1475015832,-0.035345,0.622091,1.143347,0.407874,-0.329121
1475015832,-0.135757,0.844167,1.17207,0.498523,-0.438806
1475015832,-0.130186,0.941107,1.161771,0.508934,-0.651117
1475015832,-0.15154,1.048144,0.996932,0.565633,-0.557486
1475015832,0.058742,1.131081,1.143899,0.705471,-0.754299
1475015832,-0.059906,1.196072,0.906262,0.604376,-0.884951
1475015832,-0.027957,1.312772,0.824324,0.751807,-1.089268
1475015832,-0.043527,1.240865,0.76943,0.744142,-1.192041
1475015832,-0.04076,1.367494,0.582165,0.80885,-1.250705
1475015832,-0.044828,1.424259,0.469989,0.807082,-1.297364
1475015832,-0.069495,1.474779,0.356378,0.890142,-1.319209
1475015832,-0.037579,1.470158,0.296021,0.935457,-1.337649
1475015833,-0.051486,1.458155,0.270691,0.980884,-1.320368
1475015833,-0.048173,1.484511,-0.067278,0.980379,-1.308428
1475015833,-0.057596,1.489456,-0.257173,0.999942,-1.302858
1475015833,-0.054046,1.414904,-0.356886,0.977363,-1.280377
1475015833,-0.055769,1.460334,-0.51601,1.005037,-1.256455
1475015833,-0.051124,1.43473,-0.749867,0.994001,-1.219836
1475015833,-0.047289,1.403861,-1.016153,0.962217,-1.120319
1475015833,-0.051881,1.315876,-1.292375,0.920545,-1.03721
1475015833,-0.054239,1.265879,-1.403302,0.917201,-1.076216
1475015833,-0.050701,1.180659,-1.511673,0.880865,-0.971388
1475015833,-0.025595,1.134583,-1.725885,0.864201,-0.636639
1475015833,-0.022875,1.122934,-1.77283,0.880062,-0.498006
1475015833,-0.042505,0.958904,-1.861421,0.864994,-0.086119
1475015833,-0.040187,0.80672,-1.844689,0.818695,-0.034632
1475015833,-0.080389,0.780776,-1.782493,0.769276,0.21295
1475015833,-0.083337,0.82082,-1.784439,0.724713,0.062595
1475015833,-0.081706,0.799273,-1.635858,0.691397,0.504983
1475015833,-0.066065,0.75572,-1.565711,0.626964,0.750217
1475015833,-0.070334,0.72158,-1.289331,0.604318,0.870574
1475015833,-0.06695,0.683887,-1.479918,0.582934,0.946148
1475015833,-0.08075,0.574844,-1.132523,0.596925,1.056836
1475015833,-0.102071,0.455812,-1.070582,0.543585,1.207301
1475015833,-0.098151,0.408953,-0.826671,0.52968,1.372551
1475015833,-0.081419,0.260478,-0.667236,0.497785,1.484514
1475015833,-0.057776,0.132997,-0.531419,0.474544,1.547702
1475015833,-0.053252,0.037594,-0.400405,0.440684,1.650475
1475015833,-0.031003,-0.07257,0.135363,0.414465,1.689851
1475015833,-0.032194,-0.251216,0.506203,0.347138,1.745572
1475015833,-0.029084,-0.374303,0.801748,0.309447,1.764837
1475015833,-0.048858,-0.54829,0.813393,0.301002,1.766607
1475015833,-0.094536,-0.688485,0.92166,0.207228,1.777961
1475015833,-0.092465,-0.857447,1.303176,0.156062,1.783563
1475015833,-0.114756,-0.993868,1.568585,0.151261,1.678392
1475015833,-0.108971,-1.128371,1.6646,0.128558,1.561952
1475015833,-0.105862,-1.161108,1.752359,0.054878,1.611539
1475015833,-0.129218,-1.211067,1.84476,-0.01526,1.578493
1475015833,-0.06585,-1.296338,1.982531,-0.064977,1.456725
1475015833,-0.061385,-1.327105,2.081655,-0.153616,1.396882
1475015833,-0.058408,-1.353983,2.130948,-0.319894,1.32609
1475015833,-0.034302,-1.353526,2.151869,-0.204426,1.236073
1475015833,-0.030784,-1.353669,2.048671,-0.379928,1.097962
1475015833,-0.084149,-1.352196,1.967356,-0.565419,0.904243
1475015833,-0.051812,-1.345043,1.83427,-0.495659,0.9164
1475015833,-0.048989,-1.229162,1.920076,-0.677236,0.849201
1475015833,-0.094025,-1.078259,1.714301,-0.7656,0.539833
1475015833,-0.075245,-0.994218,1.615474,-0.849731,0.597615
1475015833,-0.073204,-0.961894,1.574863,-0.899162,0.554431
1475015833,-0.0877,-0.826104,1.507344,-0.882102,0.469916
1475015833,-0.084927,-0.609032,1.364324,-0.98068,0.419964
1475015833,0.014621,-0.488753,1.26665,-1.028696,0.2521
1475015833,-0.298124,-0.355421,1.181334,-1.003095,0.106852
1475015833,-0.154756,-0.162117,1.122895,-0.943472,0.008967
1475015833,-0.066132,0.04183,1.007754,-1.028932,-0.119939
1475015833,-0.102112,0.169677,0.846698,-0.934455,-0.231525
1475015833,-0.114656,0.293518,0.840222,-0.979467,-0.428018
1475015833,-0.05257,0.447808,0.713538,-0.870419,-0.598226
1475015833,-0.111724,0.532879,0.72238,-0.789148,-0.747113
1475015833,-0.021171,0.697559,0.570305,-0.745892,-0.9309
1475015833,-0.03959,0.795963,0.32492,-0.714444,-1.122362
1475015833,-0.034397,0.892387,0.239597,-0.616245,-1.31228
1475015833,-0.115589,0.996386,0.206355,-0.492888,-1.434284
1475015833,-0.089483,1.09885,0.256625,-0.433357,-1.444251
1475015833,-0.069822,1.178529,0.378467,-0.35853,-1.501458
1475015833,-0.074635,1.275727,0.614452,-0.240408,-1.535803
1475015833,-0.102891,1.324331,0.456556,-0.223016,-1.528617
1475015833,-0.088274,1.381032,0.407275,-0.112718,-1.48456
1475015833,-0.068473,1.405846,-2.237705,-0.088603,-1.4819
1475015833,-0.067533,1.435532,-1.648237,-0.031467,-1.451142
1475015833,-0.066304,1.4773,-0.916576,0.014305,-1.375727
1475015833,-0.050809,1.486803,-0.786178,0.004567,-1.290094
1475015833,-0.041424,1.520232,-1.163031,0.118537,-1.271844
1475015833,-0.044563,1.487085,-1.641027,0.163401,-1.020382
1475015833,-0.043227,1.429277,-1.626709,0.221356,-1.188761
1475015833,-0.036214,1.441593,-1.66982,0.320259,-0.916959
1475015833,-0.03847,1.465274,-1.517345,0.352857,-0.843742
1475015833,-0.036917,1.337652,-1.409697,0.488611,-0.668647
1475015833,-0.043316,1.420287,-1.538171,0.519717,-0.480411
1475015833,-0.159384,1.288307,-1.543162,0.650124,-0.26031
1475015833,0.127014,1.222284,-1.43136,0.690279,-0.035965
1475015833,-0.023667,1.15629,-1.337407,0.805097,0.174895
1475015833,0.145053,1.082071,-1.403312,0.931919,0.382454
1475015833,0.07712,0.841374,-1.274917,0.988448,0.628717
1475015833,0.118634,0.982425,-0.915046,1.022198,0.966563
1475015833,0.11879,0.800399,-0.868746,1.062653,1.190032
1475015833,0.11071,0.723465,-0.478705,1.135371,1.343392
1475015833,-0.063889,0.687696,-0.687314,1.153219,1.503277
1475015833,0.085599,0.668208,-0.388976,1.168368,1.732435
1475015833,0.087269,0.619918,-0.096249,1.16509,1.612515
1475015833,-0.016421,0.5851,-0.227822,1.19946,1.807258
1475015833,-0.167509,0.509159,0.142069,1.176312,1.927704
1475015833,-0.168419,0.324961,0.302008,1.130042,1.872057
1475015833,-0.049464,0.214586,0.508959,1.119821,1.920825
1475015833,-0.028182,0.11177,0.752633,1.094153,1.896713
1475015833,-0.02849,0.021553,1.028281,1.110149,1.881619
1475015833,0.087658,-0.052846,1.237131,1.12106,1.87081
1475015833,-0.040305,-0.141096,1.422535,0.972933,1.686626
1475015833,-0.041173,-0.310585,1.5142,1.076302,1.753775
1475015833,0.074719,-0.478867,1.824153,1.005669,1.676788
1475015833,-0.061014,-0.614456,1.921193,1.009643,1.697186
1475015833,-0.062451,-0.763387,3.173707,0.919231,1.639952
1475015834,-0.107618,-0.901537,0.456312,0.778815,1.520121
1475015834,-0.140937,-0.992699,2.580631,0.738741,1.364967
1475015834,-0.142062,-1.149799,1.123682,0.666076,1.443585
1475015834,-0.066237,-1.212204,2.529466,0.699808,1.246109
1475015834,-0.06658,-1.240341,1.399593,0.663773,1.102277
1475015834,-0.067087,-1.295025,1.759806,0.652135,0.95522
1475015834,-0.068299,-1.342388,1.467806,0.702883,0.894725
1475015834,-0.084696,-1.379622,1.778545,0.646169,0.824775
1475015834,-0.085086,-1.42815,1.353732,0.625991,0.673767
1475015834,0.066056,-1.378046,1.581005,0.565898,0.681604
1475015834,0.132727,-1.329813,1.423919,0.626449,0.543407
1475015834,0.130495,-1.250934,1.325989,0.5371,0.396799
1475015834,0.258407,-1.156943,1.222477,0.451276,0.217338
1475015834,-0.056745,-1.077341,1.211051,0.290565,-0.005704
1475015834,-0.065801,-0.977529,1.148148,0.220718,0.087979
1475015834,-0.071594,-0.812565,1.105258,0.115583,-0.150849
1475015834,-0.210824,-0.643859,1.0515,0.038101,-0.62538
1475015834,-0.218886,-0.562319,0.970889,-0.144089,-0.36726
1475015834,-0.303336,-0.456425,0.935069,-0.227975,-0.84037
1475015834,-0.244298,-0.335691,0.855034,-0.48153,-1.32316
1475015834,-0.244669,-0.07534,0.731885,-0.34466,-1.051732
1475015834,0.005344,0.053267,0.632959,-0.673888,-1.54299
1475015834,-0.147169,0.199376,0.599684,-1.057758,-1.697721
1475015834,0.082448,0.312849,0.544938,-0.888932,-1.766829
1475015834,-0.044622,0.427063,0.500247,-1.153089,-1.818597
1475015834,-0.109242,0.521604,0.366476,-1.292963,-1.855614
1475015834,-0.092872,0.652787,0.239685,-1.396483,-1.844566
1475015834,-0.156322,0.755825,0.065411,-1.238737,-1.868912
1475015834,-0.14603,0.886301,-0.142951,-1.382407,-1.81993
1475015834,-0.186937,1.024029,-0.204163,-1.441689,-1.715982
1475015834,-0.258448,1.090509,-0.223557,-1.418195,-1.60027
1475015834,-0.197168,1.186229,-1.23157,-1.379689,-1.591837
1475015834,-0.235733,1.261075,-0.618973,-1.269621,-1.383242
1475015834,0.290318,1.342528,-1.413749,-1.15907,-1.736157
1475015834,1.735679,1.419969,-1.105824,-1.078735,-1.843501
1475015834,0.291106,1.477079,-1.410033,-1.041389,-1.639152
1475015834,0.600936,1.518801,-1.702621,-0.860615,0.185556
1475015834,0.258784,1.554406,-1.552199,-0.787956,0.185911
1475015834,-0.405666,1.600741,-1.289593,-0.660715,1.284729
1475015834,-0.074055,1.586208,-1.352744,-0.55124,0.986233
1475015834,0.622157,1.523614,-1.489422,-0.397378,0.362264
1475015834,0.077949,1.491753,-1.592105,-0.227288,0.610587
1475015834,0.107456,1.495486,-1.452621,-0.055375,0.919847
1475015834,-0.025935,1.505964,-1.25826,0.127398,1.444959
1475015834,0.107681,1.420955,-1.27793,0.246565,1.378244
1475015834,0.173467,1.350304,-1.394308,0.365726,1.547234
1475015834,0.135284,1.289755,-1.168695,0.612839,1.833493
1475015834,0.134011,1.252499,-0.567647,0.484688,1.72319
1475015834,0.206475,1.201695,-0.703225,0.693975,2.095367
1475015834,0.205262,0.950039,-0.567538,0.756721,2.448985
1475015834,0.202605,1.086881,-0.458729,0.885583,2.347746
1475015834,0.231363,0.910228,-0.362708,0.94076,2.500375
1475015834,0.229533,0.902603,-0.028034,1.044142,2.525147
1475015834,0.284063,0.866435,0.035934,1.085151,2.326997
1475015834,0.234753,0.751762,0.222626,1.133859,2.177664
1475015834,0.23144,0.703017,0.507434,1.148288,2.14421
1475015834,0.282043,0.714587,0.892391,1.21012,2.006682
1475015834,0.236793,0.651005,0.781459,1.287236,1.779227
1475015834,0.241166,0.56535,1.088235,1.344161,1.670987
1475015834,0.273933,0.395401,1.229259,1.362484,1.585094
1475015834,0.277711,0.276715,1.406018,1.383718,1.290656
1475015834,0.220517,0.21152,1.568705,1.321762,0.970859
1475015834,0.213905,0.116117,1.688276,1.280062,0.659838
1475015834,0.243813,0.014114,1.675486,1.216552,0.356695
1475015834,0.273767,-0.292045,1.851151,1.197305,0.518574
1475015834,0.268076,-0.095355,1.845821,1.17225,1.183537
1475015834,0.238674,-0.465849,1.909763,1.115825,1.507875
1475015834,0.203585,-0.645857,1.902368,1.050954,-0.134259
1475015834,0.198036,-0.812301,1.855151,1.003377,-0.075859
1475015834,0.228142,-0.942815,1.815993,0.982677,-0.128302
1475015834,0.269757,-1.09338,1.71654,0.855423,-0.240646
1475015834,0.263529,-1.146688,1.651817,0.974278,-0.382091
1475015834,0.193521,-1.183754,1.566319,0.796694,-0.516458
1475015834,0.222005,-1.219045,1.459458,0.784189,-0.733125
1475015834,0.214658,-1.280038,1.389007,0.748919,-0.994641
1475015834,0.195064,-1.337981,1.310308,0.777638,-1.229601
1475015834,0.153292,-1.395333,1.199277,0.641429,-1.436648
1475015834,0.144451,-1.414822,1.146459,0.77668,-1.52013
1475015834,0.138784,-1.380979,1.158271,0.56188,-1.650865
1475015834,0.122136,-1.275718,1.052412,0.569115,-1.772942
1475015834,0.130384,-1.130444,0.953828,0.527921,-1.719245
1475015834,0.117462,-1.084364,1.048327,0.482093,-1.797428
1475015834,0.078496,-1.053987,0.831845,0.363779,-1.901409
1475015834,0.071092,-0.81246,0.823914,0.270058,-1.847091
1475015834,0.012783,-0.917319,0.598919,0.222433,-1.794846
1475015834,0.049575,-0.721222,0.472517,0.162728,-1.743159
1475015834,0.05272,-0.46447,0.509654,0.170182,-1.730907
1475015834,0.08181,-0.620804,0.344866,0.057291,-1.677262
1475015834,0.086989,-0.207117,0.347774,-0.005415,-1.492908
1475015834,0.085476,-0.123629,0.246118,-0.150918,-1.374841
1475015834,0.007181,0.025341,0.12425,-0.222155,-1.602311
1475015834,-0.010607,0.122521,0.099842,-0.422511,-0.860141
1475015834,-0.011039,0.260965,-0.078338,-0.305276,-0.386753
1475015834,-0.048761,0.462108,0.039761,-0.571289,-0.416625
1475015834,-0.047842,0.675644,-0.027799,-0.685857,-0.372526
1475015834,-0.047435,0.906714,-0.332035,-0.762377,0.813277
1475015834,-0.129786,0.767673,-0.166263,-0.953665,0.877706
1475015834,-0.160504,1.020701,-0.674088,-0.993198,0.642706
1475015834,-0.157486,1.16605,-3.613015,-1.128408,0.058
1475015834,-0.133595,1.098937,0.184482,-1.218453,1.009337
1475015835,-0.18939,1.222305,-0.96045,-1.22673,1.314908
1475015835,-0.185783,1.267181,-1.861885,-1.190368,1.471266
1475015835,-0.219447,1.38124,-1.447675,-1.292175,1.826084
1475015835,-0.271331,1.421106,-1.694898,-1.268811,1.793923
1475015835,-0.266392,1.522839,-1.311118,-1.240559,1.79391
1475015835,-0.312033,1.484502,-1.203518,-1.249823,1.894189
1475015835,-0.445656,1.590308,-1.261935,-1.13972,1.986897
1475015835,-0.437338,1.576599,-1.285581,-1.087461,1.945961
1475015835,-0.67311,1.546475,-1.435603,-0.989212,1.941399
1475015835,-0.511735,1.526746,-1.125751,-1.002855,1.926202
1475015835,-0.495591,1.490027,-0.996815,-0.814475,1.884681
1475015835,-0.601403,1.545749,-0.942538,-0.729904,1.803498
1475015835,-0.539645,1.436256,-0.63,-0.658858,1.745992
1475015835,-0.517657,1.300486,-0.267626,-0.489478,1.7278
1475015835,-0.500637,1.366806,-0.352733,-0.367065,1.651407
1475015835,-0.446057,1.271683,-0.21308,-0.223399,1.543488
1475015835,-0.429771,1.081193,0.004502,-0.062503,1.443428
1475015835,-0.042108,1.2263,-0.132084,0.029478,1.39764
1475015835,0.377577,0.95937,0.100118,0.092504,1.269098
1475015835,-0.615659,0.920491,0.286127,0.219645,1.008178
1475015835,-1.692037,0.894819,0.540015,0.282882,0.955352
1475015835,-0.132972,0.868756,0.734701,0.360507,0.904358
1475015835,0.682436,0.781374,0.88285,0.39898,0.984805
1475015835,0.370286,0.683656,1.00389,0.480492,0.751384
1475015835,0.070119,0.641298,1.207512,0.537734,0.766135
1475015835,-0.367096,0.585125,1.429518,0.615038,0.739043
1475015835,-0.65345,0.494694,1.590415,0.724084,0.74871
1475015835,-0.480386,0.394675,1.66637,0.811054,0.45771
1475015835,-0.31151,0.352389,1.747389,0.907196,-0.280052
1475015835,-0.376563,0.306994,1.851435,0.947341,0.315198
1475015835,-0.636551,0.248653,1.853371,1.032868,-0.117179
1475015835,-0.81996,0.117557,1.865052,1.092079,-0.435635
1475015835,-0.518674,-0.148105,1.837653,1.171037,-1.087206
1475015835,-0.214977,-0.268868,1.805401,1.222641,-1.309999
1475015835,-0.255943,-0.385847,1.68833,1.286353,-1.190162
1475015835,-0.286637,-0.534361,1.609216,1.31973,-1.236689
1475015835,-0.279315,-0.696494,1.56133,1.352356,-1.749986
1475015835,-0.475548,-0.8195,1.529679,1.349419,-1.675436
1475015835,-0.490689,-0.907312,1.385666,1.328455,-1.633663
1475015835,-0.580598,-0.969222,1.282629,1.286616,-1.61511
1475015835,-0.464901,-1.054139,1.221761,1.295206,-1.687193
1475015835,-0.459636,-1.106268,1.158959,1.271947,-1.846569
1475015835,-0.36439,-1.167942,1.094667,1.240956,-2.021254
1475015835,-0.196649,-1.226512,1.075959,1.22052,-2.123081
1475015835,-0.331695,-1.256968,1.18013,1.22805,-1.948486
1475015835,-0.343087,-1.28163,0.956874,1.232649,-1.735476
1475015835,-0.098664,-1.289005,1.142453,1.123887,-1.723254
1475015835,-0.137015,-1.267849,0.969166,1.062585,-1.645207
1475015835,-0.136363,-1.24054,0.826077,0.945575,-0.883601
1475015835,-0.341437,-1.210794,0.663926,1.000984,-1.576814
1475015835,-0.56856,-1.170211,0.384264,0.910675,-0.959478
1475015835,-0.567329,-1.081126,0.295577,0.815321,-1.086952
1475015835,-0.660824,-0.917857,0.325627,0.856427,1.11111
1475015835,-0.436436,-0.979288,0.234957,0.821834,0.187778
1475015835,-0.436646,-0.863854,0.229484,0.633081,0.373861
1475015835,-0.327632,-0.75366,0.141941,0.749654,0.942007
1475015835,-0.085259,-0.553414,0.171711,0.618547,0.869695
1475015835,-0.086009,-0.381779,0.140801,0.568193,0.969044
1475015835,-0.024822,-0.257837,-0.078939,0.554939,1.460589
1475015835,-0.028633,-0.13147,0.051093,0.542833,1.664133
1475015835,-0.027696,-0.021154,-0.032936,0.479939,1.902921
1475015835,-0.143413,0.177122,-0.15606,0.362149,1.867341
1475015835,-0.409074,0.359085,-0.182791,0.294124,1.986628
1475015835,-0.408619,0.502549,-0.189358,0.169027,2.083565
1475015835,-0.437771,0.61718,-5.689977,0.106482,2.151808
1475015835,-0.36143,0.69021,-0.23694,-0.07699,2.195703
1475015835,-0.361554,0.784056,-3.28052,-0.416465,2.208662
1475015835,-0.33142,0.865519,1.754046,-0.218582,2.151971
1475015835,0.824137,0.934026,-0.555149,-0.61126,2.068045
1475015835,0.819335,1.009004,-1.933085,-0.807698,1.962892
1475015835,0.291069,1.100485,-1.797823,-0.931943,1.898383
1475015835,0.301433,1.173768,-2.087023,-1.143275,1.829628
1475015835,0.303318,1.251143,-0.641364,-1.317626,1.549953
1475015835,0.406434,1.297316,-0.533938,-1.429864,1.686087
1475015835,0.587721,1.357778,-0.659192,-1.551316,1.411386
1475015835,0.588916,1.418996,-1.045486,-1.590742,1.214341
1475015835,0.520603,1.460167,-1.641395,-1.549843,0.966983
1475015835,0.332379,1.457381,-1.406909,-1.539271,0.795561
1475015835,0.329686,1.457367,-1.103187,-1.508474,0.762329
1475015835,0.404431,1.432733,0.311881,-1.487894,0.868756
1475015835,0.522443,1.433222,-0.200195,-1.470019,0.677683
1475015835,0.519119,1.422942,-0.215502,-1.322394,0.501494
1475015835,0.551153,1.341738,0.01353,-1.166445,0.334119
1475015835,0.61786,1.281779,0.350575,-1.02973,0.370167
1475015835,0.613428,1.296714,0.43345,-0.728912,-0.109514
1475015835,0.594558,1.207569,0.674816,-0.801575,-0.028542
1475015835,0.57671,1.043584,0.825387,-0.695441,-0.421204
1475015835,0.56967,0.986727,1.340163,-0.035142,-0.660211
1475015835,0.526573,1.019611,1.08892,-0.287407,-0.50379
1475015835,0.543125,0.998197,1.540154,-0.072008,-0.745998
1475015835,0.534654,0.971562,1.713881,0.279342,-1.234775
1475015835,0.477886,0.972032,1.706883,0.124052,-0.995397
1475015835,0.447237,0.874485,1.979523,0.347257,-1.401397
1475015835,0.436072,0.818039,1.997464,0.501736,-1.46478
1475015835,0.432918,0.814516,2.107503,0.646823,-1.502446
1475015835,0.319198,0.801225,1.999999,0.86373,-1.578412
1475015835,0.305179,0.733953,2.025523,0.96577,-1.670346
1475015835,0.243982,0.664314,1.975161,1.067584,-1.723768
1475015835,0.151113,0.561547,1.834843,1.116691,-1.766671
1475015835,0.137032,0.433161,1.82045,1.202269,-1.887941
1475015836,0.119856,0.486423,1.546255,1.263425,-1.859854
1475015836,0.091767,0.333253,1.796154,1.358995,-1.826273
1475015836,0.078845,0.202051,1.431183,1.459884,-1.633508
1475015836,0.031364,0.041583,1.641024,1.536409,-1.700629
1475015836,0.001397,-0.052791,1.409985,1.594515,-1.515726
1475015836,-0.011384,-0.355552,1.104728,1.622721,-1.310974
1475015836,-0.089103,-0.194906,1.258909,1.600105,-1.116883
1475015836,-0.128847,-0.56655,1.257862,1.573535,-1.155734
1475015836,-0.139636,-0.675542,1.478998,1.52825,-0.911925
1475015836,-0.13996,-0.795246,1.012131,1.527563,-0.470307
1475015836,-0.237674,-0.851108,0.689526,1.418043,-0.159155
1475015836,-0.247759,-0.919331,0.737081,1.397393,-0.009256
1475015836,-0.260169,-0.989479,0.594773,1.357802,0.083056
1475015836,-0.282709,-1.10874,0.776804,1.295112,0.291948
1475015836,-0.290965,-1.188496,0.744157,1.222098,0.597623
1475015836,-0.35825,-1.191393,0.475122,1.164434,0.806655
1475015836,-0.468545,-1.193717,0.256517,0.95381,1.019834
1475015836,-0.476048,-1.237133,0.168986,1.050604,1.164328
1475015836,-0.539032,-1.249688,0.03877,0.941344,1.295499
1475015836,-0.593415,-1.252211,-0.126002,0.96577,1.439255
1475015836,-0.594456,-1.233372,-0.391048,1.081023,1.56617
1475015836,-0.610054,-1.156782,-0.699308,0.944586,1.683346
1475015836,-0.627348,-1.035229,-0.606799,0.68198,1.758023
1475015836,-0.620987,-0.922267,-0.909463,0.616783,1.814416
1475015836,-0.636246,-0.860429,-1.372672,0.495194,1.850912
1475015836,-0.628568,-0.783688,-1.149934,0.444554,1.86789
1475015836,-0.616983,-0.674347,-1.623666,0.421411,1.86152
1475015836,-0.619284,-0.518124,-1.924447,0.352668,1.823055
1475015836,-0.601163,-0.375016,-1.931171,0.195693,1.760643
1475015836,-0.587907,-0.302908,-1.946046,0.330449,1.724552
1475015836,-0.584876,-0.233398,-1.918675,0.070154,1.717903
1475015836,-0.623978,-0.094261,-1.99945,-0.147992,1.658004
1475015836,-0.62033,0.093352,-2.093289,-0.024914,1.493661
1475015836,-0.608665,0.24696,-2.097934,-0.24251,1.379396
1475015836,-0.594435,0.362872,-2.047231,-0.419755,1.320835
1475015836,-0.580537,0.511689,-1.749877,-0.544833,1.20794
1475015836,-0.569122,0.615277,-1.196611,-0.697357,0.988889
1475015836,-0.537867,0.765684,-1.476955,-0.811152,0.86849
1475015836,-0.521228,0.895348,-1.091506,-0.927669,0.879185
1475015836,-0.511455,0.986446,-0.807335,-1.082864,0.732934
1475015836,-0.536487,0.959371,-0.57636,,0.545002
1475015836,-0.513344,1.073156,-0.242991,-1.158913,0.421594
1475015836,-0.504789,1.159116,0.42486,-1.187588,0.411383
1475015836,-0.367177,1.23865,0.089189,-1.267637,0.350103
1475015836,-0.380045,1.303571,0.819679,-1.380415,0.212863
1475015836,-0.372272,1.397449,1.298247,-1.331536,0.075613
1475015836,-0.435306,1.351067,1.072269,-1.218363,-0.01877
1475015836,-0.419204,1.434381,1.523777,-1.043742,-0.101425
1475015836,-0.41263,1.44676,1.789415,-0.993072,-0.252001
1475015836,-0.533086,1.469619,2.008904,-0.93652,-0.416958
1475015836,-0.426921,1.476653,2.003079,-0.857247,-0.592923
1475015836,-0.435842,1.447279,2.104698,-0.891191,-0.651773
1475015836,-0.242367,1.466604,2.173785,-0.856501,-0.833285
1475015836,-0.299812,1.41277,2.200545,-0.777444,-1.071307
1475015836,-0.295329,1.405937,2.254618,-0.656149,-1.34668
1475015836,-0.323303,1.386461,2.265934,-0.443999,-1.484626
1475015836,-0.322579,1.305507,2.134531,-0.449917,-1.548121
1475015836,-0.317178,1.196231,2.163242,-0.569779,-1.637897
1475015836,-0.282608,1.126609,2.040363,-0.170618,-1.696519
1475015836,-0.25256,1.078042,1.844143,0.34938,-1.764871
1475015836,-0.247797,1.044762,1.754985,0.018633,-1.79756
1475015836,-0.224374,1.006494,1.676369,0.276012,-1.772247
1475015836,-0.222298,0.946069,1.639014,0.329218,-1.747023
1475015836,-0.21832,0.882194,1.442163,0.370394,-1.731554
1475015836,-0.176268,0.868936,1.240332,0.575726,-1.667675
1475015836,-0.161958,0.853709,1.187035,0.53905,-1.547587
1475015836,-0.159006,0.68551,1.008796,0.800315,-1.479098
1475015836,-0.073784,0.758529,0.450391,0.649497,-1.378476
1475015836,-0.054732,0.604713,0.079621,0.83763,-1.232483
1475015836,-0.053117,0.57633,0.31047,0.895613,-0.858041
1475015836,-0.04655,0.548223,1.423712,0.877124,-0.515339
1475015836,-0.006481,0.426722,1.909319,0.982004,-0.301652
1475015836,-0.005448,0.345143,-0.311072,1.059088,-0.12742
1475015836,0.103129,0.191589,-0.086611,1.136246,0.182326
1475015836,0.206504,0.14809,-0.046715,1.180002,0.433534
1475015836,0.292778,-0.089227,-0.021446,1.216187,0.630091
1475015836,0.338843,0.011166,0.18546,1.270106,0.85812
1475015836,0.228223,-0.238954,-0.314982,1.293536,1.27834
1475015836,0.302713,-0.417135,-0.609363,1.325043,1.069261
1475015836,0.35592,-0.625456,-0.413089,1.323535,1.432798
1475015836,0.415131,-0.705702,-0.770481,1.305906,
1475015836,0.527131,-0.842983,-0.873487,1.307366,1.796507
1475015836,0.51144,-0.966006,-1.133653,1.264935,1.760424
1475015836,0.536512,-1.046741,-1.260082,1.198794,1.934091
1475015836,0.573128,-1.171264,-1.714086,1.208174,2.071979
1475015836,0.563309,-1.219002,-1.527364,1.206946,2.03391
1475015836,0.592936,-1.258241,-1.809239,1.14415,2.117903
1475015836,0.610792,-1.212837,-1.90012,1.091043,2.037521
1475015836,0.589517,-1.195445,-1.931752,1.068941,2.035782
1475015836,0.584435,-1.227304,-1.987461,1.00723,2.043976
1475015836,0.568521,-1.259076,-1.998854,0.941471,1.985433
1475015836,0.625544,-1.189668,-1.954902,0.941715,2.019536
1475015836,0.647995,-1.074833,-1.904801,0.909016,1.875232
1475015836,0.660907,-0.976949,-1.716619,0.818491,1.813706
1475015836,0.616118,-0.938004,-1.545203,0.761253,1.724884
1475015836,0.558485,-0.873673,-1.417488,0.719592,1.557705
1475015836,0.574624,-0.728864,-1.228223,0.666138,1.288813
1475015836,0.566118,-0.563693,-0.922691,0.638563,1.15753
1475015836,0.559146,-0.455046,-0.686413,0.480582,1.134307
1475015836,0.547215,-0.402723,-0.412527,0.543698,0.874636
1475015837,0.518458,-0.291974,-0.085186,0.48889,1.100441
1475015837,0.4257,-0.194939,0.191891,0.379543,0.606364
1475015837,0.367395,0.088777,0.806192,0.396056,0.616651
1475015837,0.311295,-0.034922,0.537413,0.329539,0.43278
1475015837,0.319628,0.216674,0.887924,0.24792,0.336095
1475015837,0.228371,0.486915,1.154741,0.18216,0.212586
1475015837,0.190481,0.372821,1.324793,0.137247,0.162727
1475015837,0.122814,0.671184,1.491624,0.070065,0.265998
1475015837,0.10131,0.755357,1.580901,-0.018697,-0.064436
1475015837,0.088521,0.854843,1.773453,-0.152082,-0.012463
1475015837,0.004504,1.021877,1.783799,-0.350811,-0.499935
1475015837,-0.000529,0.928909,1.879063,-0.252802,-0.978231
1475015837,-0.061888,1.080534,1.911766,-0.441236,-1.10888
1475015837,-0.081758,1.172179,2.030066,-0.554881,-1.47178
1475015837,-0.234892,1.283549,2.057472,-0.657929,-1.602042
1475015837,-0.200312,1.36753,2.032841,-0.792499,-1.285441
1475015837,-0.309101,1.447719,2.027333,-0.875705,-1.9679
1475015837,-0.316365,1.472163,1.935577,-1.087639,-1.940316
1475015837,-0.447959,1.471902,1.828319,-0.998475,-2.15686
1475015837,-0.453869,1.479076,1.733146,-1.177721,-1.616148
1475015837,-0.516868,1.510328,1.664297,-1.212954,-1.857416
1475015837,-0.585862,1.510206,1.578351,-1.19877,-2.207876
1475015837,-0.586351,1.463554,,-1.196174,-2.209816
1475015837,-0.631684,1.417312,1.43407,-1.140701,-1.949694
1475015837,-0.631177,1.401976,1.35008,-1.068881,-1.889193
1475015837,-0.626764,1.362848,1.247531,-1.087386,-1.833845
1475015837,-0.623329,1.308313,1.223825,-1.088295,-1.598332
1475015837,-0.694234,1.250924,1.162402,-1.083462,-1.54941
1475015837,-0.685908,1.182483,0.841102,-0.956909,-0.882247
1475015837,-0.672718,1.151476,0.852508,-0.822211,-1.02
1475015837,-0.653017,1.131859,0.884797,-0.768471,-0.98662
1475015837,-0.703409,1.070452,0.518439,-0.843594,-0.666092
1475015837,-0.720778,0.992139,0.449235,-0.11973,-0.248677
1475015837,-0.734179,0.951084,0.531501,-0.5783,-0.06748
1475015837,-0.722536,0.949788,0.464337,-0.311873,0.732972
1475015837,-0.688299,0.776007,0.209875,-0.132994,0.754961
1475015837,-0.781243,0.865603,0.022078,-0.033242,0.954687
1475015837,-0.770926,0.706681,-0.095747,0.026186,1.296992
1475015837,-0.746733,0.661601,-0.185575,0.105287,1.639706
1475015837,-0.696456,0.629138,-0.257046,0.135671,1.622872
1475015837,-0.681193,0.595451,-0.462131,0.194268,1.822505
1475015837,-0.68728,0.515898,-0.693982,0.249686,1.879581
1475015837,-0.697163,0.382891,-0.862129,0.336119,1.996426
1475015837,-0.68305,0.288295,-1.035044,0.422062,2.090208
1475015837,-0.634478,0.06507,-1.268817,0.465696,2.136633
1475015837,-0.637807,0.190942,-1.491368,0.556097,2.072014
1475015837,-0.624033,-0.021022,-1.579328,0.630275,2.012174
1475015837,-0.608835,-0.182147,-1.68787,0.724755,2.181171
1475015837,-0.535834,-0.328919,-1.926538,0.836273,2.099012
1475015837,-0.521891,-0.505645,-1.800632,0.906697,2.059156
1475015837,-0.481523,-0.733355,-1.959516,1.019285,1.871609
1475015837,-0.455249,-0.608011,-2.000088,1.074841,1.885084
1475015837,-0.444506,-0.841449,-1.976265,1.187625,1.937125
1475015837,-0.438077,-0.94198,-1.860789,1.255975,1.347193
1475015837,-0.440504,-1.066817,-1.645836,1.273753,1.712245
1475015837,-0.431683,-1.140954,-1.489774,1.267865,1.264439
1475015837,-0.33135,-1.258745,-1.043078,1.272475,1.145203
1475015837,-0.354847,-1.239551,-1.2941,1.305816,1.268225
1475015837,-0.348955,-1.217609,-0.877222,1.311672,0.669577
1475015837,-0.350385,-1.24992,-0.583688,1.257436,0.527769
1475015837,-0.327883,-1.199292,-0.037861,1.195859,0.506055
1475015837,-0.323825,-1.246208,-0.333118,1.104895,0.414271
1475015837,-0.302917,-1.204499,0.282465,1.11019,0.411501
1475015837,-0.1695,-1.098181,0.471622,1.036114,0.283002
1475015837,-0.165532,-0.988571,0.621193,1.01186,0.369862
1475015837,-0.208858,-1.040039,0.850039,0.996848,0.259837
1475015837,-0.222476,-0.88823,1.046393,1.048594,0.234494
1475015837,-0.220298,-0.700327,1.211493,0.879248,0.190533
1475015837,-0.17346,-0.784001,1.429112,0.836413,1.677249
1475015837,-0.063675,-0.660242,1.52789,0.84171,0.988065
1475015837,-0.060971,-0.616435,1.6653,0.840953,-1.753669
1475015837,-0.062296,-0.431928,1.766037,0.755013,-3.234106
1475015837,-0.060283,-0.258598,1.917792,0.750223,-1.210277
1475015837,0.111089,-0.17699,1.99655,0.645727,-0.386949
1475015837,0.212295,-0.036869,2.086952,0.58267,-0.619025
1475015837,0.327789,0.110531,2.158108,0.530686,-2.274375
1475015837,0.326141,0.287806,2.18277,0.475888,-1.969999
1475015837,0.356079,0.458984,2.124203,0.388121,-1.462069
1475015837,0.304349,0.620761,2.021668,0.344405,-1.234188
1475015837,0.299727,0.82479,1.91477,0.258301,-0.968014
1475015837,0.327422,0.743456,1.814018,0.224284,-1.502711
1475015837,0.411758,0.895775,1.748546,0.157889,-1.855315
1475015837,0.409132,1.038548,1.61137,0.098057,-1.8514
1475015837,0.493024,0.986026,1.478537,-0.03367,-1.528993
1475015837,0.571237,1.10702,1.427311,-0.137593,-1.250316
1475015837,0.567752,1.204824,1.358374,-0.290508,-1.201009
1475015837,0.61549,1.262226,1.228565,-0.39519,-1.212859
1475015837,0.5997,1.329612,1.093748,-0.489576,-0.999814
1475015837,0.584913,1.391648,0.983676,-0.572472,-0.733475
1475015837,0.617495,1.420967,0.955387,-0.686389,-0.593719
1475015837,0.685905,1.455276,0.737323,-0.83903,-0.709559
1475015837,0.682143,1.477007,0.843246,-0.905462,-0.454238
1475015837,0.685822,1.457258,0.617338,-1.018949,-0.32055
1475015837,0.663379,1.432954,0.413895,-1.110049,-0.145458
1475015837,0.656846,1.454248,0.56032,-1.204523,0.145306
1475015837,0.638944,1.423765,0.233365,-1.276459,0.317074
1475015837,0.673786,1.456837,0.025863,-1.230386,0.886453
1475015837,0.638491,1.34561,0.12364,-1.304065,0.925216
1475015837,0.61152,1.236059,-0.133912,-1.307704,1.121762
1475015837,0.565124,1.183164,-0.500561,-1.337658,1.01541
1475015838,0.541497,1.153657,-0.291476,-1.334552,1.453201
1475015838,0.545086,1.127555,-0.726386,-1.266418,1.590898
1475015838,0.502478,1.028894,-0.878618,-1.21897,1.703758
1475015838,0.481385,0.924696,-1.097697,-1.201578,1.768572
1475015838,0.40247,0.892271,-1.360051,-1.065983,1.83852
1475015838,0.317246,0.841657,-1.735111,-0.91295,1.996598
1475015838,0.255531,0.697381,-1.497124,-0.706513,1.885913
1475015838,0.236291,0.776876,-1.807525,-0.717438,1.927
1475015838,0.213086,0.601319,-2.067341,-0.438493,1.854431
1475015838,0.128481,0.584237,-1.891409,-0.398821,1.80637
1475015838,0.10585,0.559718,-2.060215,-0.122894,1.749113
1475015838,0.019966,0.494705,-2.130947,-0.009311,1.570914
1475015838,-0.035092,0.413633,-2.158038,0.048152,1.461614
1475015838,-0.057963,0.313619,-2.105309,0.201887,1.303054
1475015838,-0.152821,0.231779,-1.927305,0.257878,1.181238
1475015838,-0.214241,-0.004672,-1.665357,0.33397,1.313333
1475015838,-0.2361,0.101047,-1.441176,0.470732,1.371293
1475015838,-0.267812,-0.151316,-0.929457,0.431951,1.110892
1475015838,-0.375664,-0.298024,-1.235031,0.502972,1.115418
1475015838,-0.39426,-0.418029,-0.702822,0.622819,1.06699
1475015838,-0.511044,-0.502518,-0.326805,0.708693,0.949562
1475015838,-0.48252,-0.716103,0.07638,0.87898,0.746435
1475015838,-0.472475,-0.589414,0.289308,1.004836,0.297409
1475015838,-0.514623,-0.852784,0.559961,1.095844,0.685151
1475015838,-0.598002,-1.082857,0.86471,1.133183,0.626369
1475015838,-0.657994,-0.990318,1.125899,1.181838,0.463996
1475015838,-0.674158,-1.157117,1.419413,1.241259,0.531856
1475015838,-0.630743,-1.207653,1.622957,1.276045,0.425185
1475015838,-0.673461,-1.217494,1.776863,1.341328,0.043466
1475015838,-0.701412,-1.229041,1.890182,1.389113,-0.190489
1475015838,-0.699093,-1.250385,1.928068,1.43315,-0.531782
1475015838,-0.735385,-1.238982,1.994703,1.393242,-0.679824
1475015838,-0.753549,-1.202253,2.179819,1.308374,-0.690414
1475015838,-0.752377,-1.095254,2.13466,1.271555,-0.660426
1475015838,-0.749506,-1.151192,2.201506,1.210353,-0.863292
1475015838,-0.741959,-1.00472,2.203059,1.139789,-1.287494
1475015838,-0.753527,-0.930614,2.183647,1.115852,-1.565363
1475015838,-0.743518,-0.870517,2.047138,1.052757,-1.668329
1475015838,-0.724688,-0.778052,1.875682,0.978569,-1.571418
1475015838,-0.68362,-0.701666,1.956785,1.014943,-1.664161
1475015838,-0.701911,-0.650054,1.789272,1.006778,-1.770087
1475015838,-0.684935,-0.561298,1.568413,0.957746,-1.596634
1475015838,-0.653366,-0.285966,1.501431,0.90221,-1.386913
1475015838,-0.658835,-0.438391,1.429121,0.871959,-1.448627
1475015838,-0.647573,-0.151829,1.229375,0.841974,-1.545091
1475015838,-0.62561,0.166426,1.099671,0.755673,-1.529867
1475015838,-0.585262,-0.00633,1.109468,0.70571,-1.336244
1475015838,-0.61496,0.358935,1.049101,0.651973,-0.916225
1475015838,-0.513785,0.488986,1.055819,0.564332,-0.637296
1475015838,-0.497184,0.609351,0.733257,0.529788,-0.584664
1475015838,-0.490782,0.699203,0.631456,0.478209,-0.557314
1475015838,-0.490469,0.80001,0.660095,0.423019,-0.396675
1475015838,-0.430273,0.883412,0.53549,0.353218,-0.297797
1475015838,-0.440897,0.974602,0.386951,0.339253,-0.157889
1475015838,-0.442574,1.061298,0.201619,0.231587,-0.116548
1475015838,-0.419417,1.109609,0.077991,0.286819,0.093478
1475015838,-0.397322,1.199684,-0.009105,0.17563,0.518251
1475015838,-0.331399,1.257177,-0.17426,-0.003823,0.614985
1475015838,-0.301845,1.300225,-0.386124,0.071403,0.739329
1475015838,-0.267899,1.328247,-0.627601,-0.14129,0.974007
1475015838,-0.296595,1.361369,-0.806286,-0.210128,1.343123
1475015838,-0.286484,1.418155,-1.05958,-0.301769,1.371413
1475015838,-0.278191,1.420256,-1.302177,-0.382806,1.751021
1475015838,-0.303177,1.435642,-1.453873,-0.464457,1.898216
1475015838,-0.318227,1.432817,-1.602774,-0.560646,2.045486
1475015838,-0.27482,1.369998,-1.741271,-0.698862,2.006085
1475015838,-0.275804,1.347728,-1.850798,-0.868029,1.932014
1475015838,-0.230144,1.263125,-1.957854,-0.808499,2.012381
1475015838,-0.236926,1.348501,-2.026003,-0.966178,2.044275
1475015838,-0.210443,1.205373,-2.113206,-1.053177,1.964387
1475015838,-0.206221,1.141606,-2.10664,-1.173149,1.647851
1475015838,-0.176903,1.15054,-2.011583,-1.137351,1.891234
1475015838,-0.111158,1.05598,-1.799127,-1.181891,1.586125
1475015838,-0.054722,0.96098,-1.62849,-1.1562,1.277447
1475015838,-0.020036,0.91186,-1.425792,-1.156173,1.075098
1475015838,0.021921,0.927561,-1.204363,-1.11746,1.01232
1475015838,0.070426,0.869018,-1.01934,-1.099945,0.756923
1475015838,0.132329,0.778162,-0.785662,-1.08353,0.69952
1475015838,0.196802,0.67586,-0.285017,-0.974313,0.468866
1475015838,0.277924,0.626398,-0.106317,-0.748178,-0.342679
1475015838,0.336701,0.63112,0.189094,-0.646409,0.104487
1475015838,0.337631,0.633279,0.431108,-0.703289,1.029438
1475015838,0.414071,0.583412,0.750772,-0.936056,1.710836
1475015838,0.548302,0.489427,1.323887,-0.854656,1.737594
1475015838,0.673276,0.440679,1.178694,-0.595188,-1.060563
1475015838,0.681629,0.232539,1.570154,0.120115,-0.9404
1475015838,0.741252,0.324359,1.726965,-0.234955,-0.236898
1475015838,0.732959,0.153192,1.905971,-0.092028,0.398145
1475015838,0.682144,0.042873,1.959493,0.053514,0.625367
1475015838,0.742259,-0.091277,2.09574,0.000233,-0.327328
1475015838,0.775981,-0.22779,2.201234,0.105872,-1.274359
1475015838,0.767635,-0.401011,2.202199,0.102718,-1.429584
1475015838,0.804289,-0.307493,2.289728,0.159229,-0.996987
1475015838,0.832189,-0.497373,2.207849,0.281878,-0.841125
1475015838,0.822327,-0.628062,2.057856,0.282009,-1.076418
1475015838,0.758644,-0.722008,1.992381,0.397108,-1.529506
1475015838,0.680771,-0.845632,2.000289,0.504866,-1.776947
1475015838,0.632539,-0.962863,1.84186,0.578163,-1.871145
1475015839,0.726184,-1.036068,1.620577,0.708336,-2.013891
1475015838,0.73193,-1.130583,1.69012,0.84374,-1.961883
1475015839,0.819964,-1.176748,1.581679,0.990393,-1.816869
1475015839,0.541203,-1.166228,1.212988,0.915893,-1.766815
1475015839,0.524269,-1.201586,1.42892,1.078826,-1.853784
1475015839,0.515993,-1.198504,1.13994,1.13815,-1.801611
1475015839,0.588396,-1.217679,1.138911,1.179175,-1.728424
1475015839,0.559016,-1.18338,1.177489,1.202279,-1.681141
1475015839,0.542997,-1.195589,0.972992,1.36599,-1.515262
1475015839,0.382445,-1.222106,0.709297,1.373305,-1.296558
1475015839,0.3267,-1.117703,0.844302,1.341561,-1.003491
1475015839,0.29115,-0.898135,0.560986,1.299306,-0.816095
1475015839,0.214568,-1.014449,0.255024,1.278752,-0.646258
1475015839,0.119231,-0.818038,0.361767,1.226416,-0.674219
1475015839,0.095139,-0.785879,0.130852,1.100663,-0.382416
