timestamp,attitude_roll,attitude_pitch,attitude_yaw,rotation_rate_x,rotation_rate_y,rotation_rate_z,gravity_x,gravity_y,gravity_z,user_acc_x,user_acc_y,user_acc_z,magnetic_field_x,magnetic_field_y,magnetic_field_z,latitude(degree),longitude(degree),altitude(meter),speed(m/s),course(degree),timestamp
1467747076.52,2.485900,-0.265560,0.134917,-0.001375,-0.057859,0.002242,0.588335,0.262450,0.764841,-0.833437,-0.238738,-1.730783,19.691013,18.793217,-11.084455,,,,,,
,,,,,,,,,,,,,,,,29.719868,-95.399243,9.631352,-1.000000,-1.000000,1467747246.80
,,,,,,,,,,,,,,,,29.719972,-95.399112,9.658513,-1.000000,-1.000000,1467746963.08
,,,,,,,,,,,,,,,,29.719868,-95.399243,9.631352,-1.000000,-1.000000,1467747246.80
1467747076.54,2.471233,-0.275519,0.131315,-0.002375,-0.057949,0.002218,0.597836,0.272047,0.754044,-0.855923,-0.247678,-1.718796,19.295200,18.680803,-11.937714,,,,,,
1467747076.53,2.478539,-0.270448,0.133118,-0.001345,-0.060028,0.002244,0.593153,0.267163,0.759469,-0.843916,-0.244123,-1.724420,19.295200,18.680803,-11.937714,,,,,,
1467747076.55,2.463924,-0.280682,0.129422,0.000878,-0.039944,0.001032,0.602443,0.277011,0.748550,-0.858211,-0.251620,-1.709488,19.295200,18.680803,-11.937714,,,,,,
1467747076.56,2.456321,-0.285659,0.127392,0.000914,-0.038930,0.001014,0.607237,0.281790,0.742871,-0.855955,-0.259741,-1.707914,18.830339,18.561245,-12.832951,,,,,,
1467747076.57,2.448383,-0.290639,0.125286,-0.000273,-0.057914,0.000094,0.612210,0.286564,0.736940,-0.860821,-0.265232,-1.707673,18.830339,18.561245,-12.832951,,,,,,
1467747076.58,2.440174,-0.295537,0.123125,-0.003489,-0.089832,0.007731,0.617326,0.291253,0.730808,-0.876038,-0.275659,-1.709598,18.830339,18.561245,-12.832951,,,,,,
1467747076.59,2.431966,-0.300826,0.120892,0.003001,-0.047388,0.000009,0.622291,0.296309,0.724538,-0.868674,-0.269575,-1.677571,18.582724,18.488169,-13.291203,,,,,,
1467747076.60,2.423985,-0.306018,0.118569,0.001991,-0.029387,0.000948,0.627033,0.301264,0.718380,-0.880192,-0.280084,-1.687633,18.582724,18.488169,-13.291203,,,,,,
1467747076.61,2.415534,-0.311276,0.116157,0.000929,-0.058097,-0.001013,0.632022,0.306273,0.711860,-0.879931,-0.281920,-1.681419,18.582724,18.488169,-13.291203,,,,,,
1467747076.62,2.407224,-0.316788,0.113753,0.003104,-0.049651,-0.001076,0.636774,0.311516,0.705320,-0.894953,-0.287468,-1.667493,18.042065,18.319595,-14.235958,,,,,,
1467747076.63,2.399106,-0.322312,0.111300,0.001049,-0.019964,-0.002341,0.641305,0.316761,0.698849,-0.905786,-0.296482,-1.661755,18.042065,18.319595,-14.235958,,,,,,
,,,,,,,,,,,,,,,,29.721037,-95.400800,9.631352,-1.000000,-1.000000,1467747356.20
1467747076.64,2.391197,-0.327995,0.108741,0.005381,0.011836,-0.001484,0.645575,0.322145,0.692428,-0.907064,-0.298464,-1.651198,18.042065,18.319595,-14.235958,,,,,,
1467747076.65,2.383216,-0.333526,0.106041,0.003329,0.042582,-0.002756,0.649845,0.327377,0.685949,-0.905430,-0.306167,-1.649343,17.753681,18.227299,-14.709126,,,,,,
1467747076.66,2.375255,-0.339060,0.103197,0.005513,0.057393,-0.001794,0.654019,0.332601,0.679438,-0.905362,-0.311193,-1.644633,17.753681,18.227299,-14.709126,,,,,,
1467747076.67,2.366462,-0.344377,0.100186,0.001234,0.008504,-0.002569,0.658721,0.337610,0.672389,-0.901213,-0.317102,-1.652873,17.753681,18.227299,-14.709126,,,,,,
1467747076.68,2.357017,-0.349611,0.096981,0.003376,-0.010669,-0.000330,0.663784,0.342532,0.664878,-0.894787,-0.321414,-1.637885,17.176523,18.006737,-15.636833,,,,,,
1467747076.69,2.347132,-0.354962,0.093738,-0.000903,-0.060622,-0.001097,0.669007,0.347555,0.656990,-0.905533,-0.326208,-1.634758,17.176523,18.006737,-15.636833,,,,,,
1467747076.70,2.336647,-0.360088,0.090339,-0.001939,-0.069173,0.000007,0.674566,0.352357,0.648696,-0.905507,-0.334763,-1.626876,17.176523,18.006737,-15.636833,,,,,,
,,,,,,,,,,,,,,,,29.721393,-95.401273,9.631352,-1.000000,-1.000000,1467747356.21
1467747076.71,2.325043,-0.364912,0.086620,-0.003045,-0.137185,0.000421,0.680801,0.356867,0.639653,-0.887176,-0.335215,-1.629369,16.847179,17.874073,-16.139275,,,,,,
1467747076.72,2.311813,-0.369680,0.082807,-0.007437,-0.280580,0.000239,0.687940,0.361317,0.629435,-0.892820,-0.339252,-1.623423,16.847179,17.874073,-16.139275,,,,,,
1467747076.73,2.298921,-0.375229,0.079292,-0.008506,-0.313558,0.002561,0.694490,0.366485,0.619170,-0.943697,-0.346008,-1.593246,16.847179,17.874073,-16.139275,,,,,,
1467747076.74,2.286702,-0.381447,0.075908,-0.008435,-0.287073,0.003445,0.700271,0.372264,0.609131,-0.974868,-0.347163,-1.565704,16.029083,17.569792,-17.267223,,,,,,
1467747076.75,2.275293,-0.388104,0.072544,-0.004054,-0.221300,0.003022,0.705271,0.378434,0.599484,-0.993662,-0.349122,-1.544872,16.029083,17.569792,-17.267223,,,,,,
1467747076.76,2.273763,-0.388059,0.072566,-0.003940,-0.132106,0.001398,0.706201,0.378393,0.598414,-1.002206,-0.357427,-1.545970,16.029083,17.569792,-17.267223,,,,,,
1467747076.77,2.272936,-0.388068,0.072554,0.003591,-0.071584,-0.000039,0.706692,0.378401,0.597828,-0.993085,-0.349409,-1.542774,15.560545,17.426960,-17.831337,,,,,,
1467747076.78,2.272189,-0.388060,0.072556,-0.001738,-0.075829,-0.000017,0.707141,0.378393,0.597302,-0.980991,-0.363257,-1.565686,15.560545,17.426960,-17.831337,,,,,,
1467747076.79,2.271513,-0.388062,0.072537,0.002527,-0.069463,0.001011,0.707544,0.378395,0.596824,-0.961588,-0.350792,-1.556434,15.560545,17.426960,-17.831337,,,,,,
1467747076.80,2.270499,-0.388038,0.072548,-0.001786,-0.110874,0.002331,0.708156,0.378373,0.596111,-0.954647,-0.359498,-1.571865,15.493710,17.426804,-17.889593,,,,,,
1467747076.81,2.269024,-0.388013,0.072536,-0.001849,-0.160779,0.002644,0.709041,0.378350,0.595073,-0.955822,-0.351540,-1.569942,15.493710,17.426804,-17.889593,,,,,,
1467747076.82,2.267281,-0.387976,0.072529,-0.001867,-0.173523,0.003789,0.710089,0.378316,0.593845,-0.952230,-0.355473,-1.560092,15.449799,17.426771,-17.927561,,,,,,
1467747076.83,2.264969,-0.387903,0.072536,-0.006226,-0.252097,0.005341,0.711481,0.378248,0.592219,-0.967981,-0.355314,-1.574290,15.449799,17.426771,-17.927561,,,,,,
1467747076.84,2.262335,-0.387818,0.072547,-0.006242,-0.264839,0.005421,0.713063,0.378169,0.590363,-0.968480,-0.357402,-1.555756,15.449799,17.426771,-17.927561,,,,,,
1467747076.85,2.259390,-0.387731,0.072565,-0.008427,-0.309434,0.005699,0.714824,0.378089,0.588282,-0.974391,-0.357566,-1.560160,15.449799,17.426771,-17.927561,,,,,,
,,,,,,,,,,,,,,,,29.719949,-95.399103,9.603395,-1.000000,-1.000000,1467747356.42
1467747076.86,2.256145,-0.387623,0.072617,-0.010580,-0.327483,0.005810,0.716761,0.377989,0.585985,-0.977411,-0.357741,-1.552705,15.279673,17.427305,-18.072264,,,,,,
1467747076.87,2.252602,-0.387522,0.072639,-0.009569,-0.371018,0.006084,0.718862,0.377896,0.583466,-0.984090,-0.354367,-1.548828,15.279673,17.427305,-18.072264,,,,,,
1467747076.88,2.248430,-0.387370,0.072714,-0.014973,-0.431543,0.008587,0.721334,0.377755,0.580498,-0.995108,-0.356591,-1.554680,15.279673,17.427305,-18.072264,,,,,,
1467747076.89,2.243940,-0.387252,0.072760,-0.011805,-0.455961,0.006614,0.723969,0.377645,0.577281,-0.998871,-0.349951,-1.534724,15.158197,17.428871,-18.172771,,,,,,
1467747076.91,2.234541,-0.386985,0.072910,-0.013948,-0.468698,0.005628,0.729442,0.377398,0.570513,-1.033534,-0.351535,-1.518054,15.158197,17.428871,-18.172771,,,,,,
1467747076.90,2.239253,-0.387120,0.072832,-0.012895,-0.476134,0.006740,0.726705,0.377523,0.573912,-1.015310,-0.351156,-1.530791,15.158197,17.428871,-18.172771,,,,,,
1467747076.92,2.218436,-0.394565,0.068469,-0.009580,-0.420994,0.006378,0.736232,0.384407,0.556950,-1.054561,-0.358970,-1.499516,14.830343,17.434620,-18.435862,,,,,,
1467747076.93,2.214689,-0.394473,0.068501,-0.007371,-0.359408,0.004930,0.738342,0.384322,0.554209,-1.066681,-0.359938,-1.491236,14.830343,17.434620,-18.435862,,,,,,
1467747076.94,2.211632,-0.394388,0.068532,-0.007286,-0.290393,0.005562,0.740060,0.384243,0.551968,-1.077950,-0.359372,-1.483548,14.431406,17.340136,-18.837208,,,,,,
1467747076.95,2.209314,-0.394321,0.068554,-0.005057,-0.213939,0.002955,0.741357,0.384182,0.550267,-1.085077,-0.360607,-1.481572,14.431406,17.340136,-18.837208,,,,,,
1467747076.96,2.207760,-0.394287,0.068557,-0.000702,-0.137491,0.002480,0.742222,0.384150,0.549122,-1.085972,-0.360087,-1.479405,14.431406,17.340136,-18.837208,,,,,,
1467747076.97,2.206951,-0.394278,0.068551,-0.000604,-0.061038,0.000936,0.742669,0.384141,0.548523,-1.088769,-0.359666,-1.478119,14.331186,17.341242,-18.912550,,,,,,
1467747076.98,2.206875,-0.394273,0.068547,0.000549,0.009040,0.000498,0.742712,0.384137,0.548468,-1.086767,-0.359814,-1.479575,14.331186,17.341242,-18.912550,,,,,,
1467747076.99,2.207401,-0.394312,0.068506,0.005949,0.068501,-0.000934,0.742412,0.384173,0.548850,-1.084102,-0.357699,-1.479697,14.331186,17.341242,-18.912550,,,,,,
1467747077.00,2.208461,-0.394364,0.068460,0.007080,0.119470,-0.002317,0.741813,0.384221,0.549625,-1.076408,-0.359533,-1.484470,14.295910,17.340189,-18.940191,,,,,,
1467747077.01,2.209844,-0.394430,0.068409,0.007113,0.146015,-0.002483,0.741032,0.384282,0.550635,-1.065770,-0.355366,-1.489691,14.295910,17.340189,-18.940191,,,,,,
1467747077.02,2.211338,-0.394495,0.068359,0.007120,0.151324,-0.002517,0.740188,0.384342,0.551726,-1.057632,-0.358784,-1.495788,14.295910,17.340189,-18.940191,,,,,,
1467747077.03,2.212779,-0.394571,0.068295,0.009242,0.144952,-0.002475,0.739369,0.384412,0.552775,-1.046880,-0.357114,-1.501353,14.295910,17.340189,-18.940191,,,,,,
1467747077.04,2.214020,-0.394649,0.068234,0.009210,0.118410,-0.003373,0.738659,0.384484,0.553674,-1.035748,-0.359735,-1.506478,14.397527,17.335630,-18.867254,,,,,,
1467747077.05,2.214859,-0.394707,0.068178,0.007021,0.073810,-0.000966,0.738176,0.384538,0.554280,-1.028505,-0.360810,-1.514180,14.397527,17.335630,-18.867254,,,,,,
1467747077.06,2.215153,-0.394742,0.068141,0.002689,0.015413,-0.000604,0.738003,0.384570,0.554489,-1.022335,-0.361148,-1.519455,14.397527,17.335630,-18.867254,,,,,,
1467747077.07,2.214837,-0.394750,0.068134,0.000479,-0.048294,-0.000207,0.738175,0.384578,0.554254,-1.018296,-0.364528,-1.523004,14.436802,17.333107,-18.839539,,,,,,
1467747077.08,2.213853,-0.394716,0.068144,-0.002806,-0.117316,0.002352,0.738731,0.384546,0.553535,-1.016624,-0.365244,-1.523018,14.436802,17.333107,-18.839539,,,,,,
1467747077.09,2.212196,-0.394674,0.068156,-0.005017,-0.181026,0.003813,0.739660,0.384507,0.552320,-1.021886,-0.361940,-1.522229,14.436802,17.333107,-18.839539,,,,,,
1467747077.10,2.210054,-0.394606,0.068191,-0.006139,-0.226683,0.004099,0.740862,0.384445,0.550750,-1.030810,-0.361679,-1.513304,14.387416,17.332609,-18.877741,,,,,,
1467747077.11,2.207541,-0.394533,0.068230,-0.008310,-0.259598,0.004303,0.742266,0.384377,0.548903,-1.039950,-0.360238,-1.503691,14.387416,17.332609,-18.877741,,,,,,
1467747077.12,2.204812,-0.394446,0.068258,-0.008333,-0.276589,0.005474,0.743789,0.384297,0.546895,-1.049544,-0.360570,-1.498082,14.300108,17.334200,-18.942507,,,,,,
1467747077.13,2.202009,-0.394371,0.068289,-0.007275,-0.281899,0.005508,0.745342,0.384227,0.544826,-1.057643,-0.358470,-1.491924,14.300108,17.334200,-18.942507,,,,,,
1467747077.14,2.199181,-0.394285,0.068333,-0.008345,-0.286146,0.005534,0.746907,0.384149,0.542734,-1.063359,-0.360070,-1.488718,14.300108,17.334200,-18.942507,,,,,,
1467747077.15,2.196268,-0.394187,0.068368,-0.007294,-0.295705,0.006659,0.748515,0.384058,0.540579,-1.066447,-0.359933,-1.488180,14.300108,17.334200,-18.942507,,,,,,
1467747077.16,2.193174,-0.394084,0.068427,-0.010513,-0.316937,0.005725,0.750216,0.383962,0.538283,-1.068377,-0.358556,-1.487304,14.088229,17.337135,-19.097948,,,,,,
1467747077.17,2.172929,-0.403630,0.061909,-0.010465,-0.339332,0.004775,0.757903,0.392760,0.520886,-1.076263,-0.367567,-1.468487,14.088229,17.337135,-19.097948,,,,,,
1467747077.18,2.152275,-0.413119,0.055174,-0.010420,-0.361734,0.005953,0.765351,0.401468,0.503052,-1.085480,-0.375253,-1.449479,14.088229,17.337135,-19.097948,,,,,,
1467747077.19,2.130969,-0.422488,0.048167,-0.011461,-0.401124,0.007237,0.772674,0.410031,0.484613,-1.092422,-0.382687,-1.431009,13.611429,17.197372,-19.564392,,,,,,
1467747077.20,2.108827,-0.431650,0.040882,-0.013577,-0.452189,0.006465,0.779955,0.418370,0.465442,-1.097887,-0.390782,-1.412616,13.611429,17.197372,-19.564392,,,,,,
1467747077.21,2.085451,-0.440463,0.033237,-0.014659,-0.527680,0.006911,0.787381,0.426359,0.445252,-1.098599,-0.398344,-1.395524,13.611429,17.197372,-19.564392,,,,,,
1467747077.22,2.061666,-0.448440,0.025666,-0.017901,-0.621221,0.009599,0.794723,0.433560,0.424784,-1.105437,-0.407590,-1.379694,11.772354,16.566816,-21.230602,,,,,,
1467747077.23,2.039132,-0.455222,0.018942,-0.022199,-0.704126,0.010094,0.801450,0.439662,0.405432,-1.121763,-0.414760,-1.358527,11.772354,16.566816,-21.230602,,,,,,
1467747077.24,2.013575,-0.463032,0.011076,-0.021142,-0.767938,0.011535,0.808421,0.446663,0.383337,-1.133784,-0.422112,-1.329168,11.772354,16.566816,-21.230602,,,,,,
1467747077.25,1.994598,-0.467148,0.006419,-0.025464,-0.847637,0.015210,0.813868,0.450341,0.367168,-1.146021,-0.426248,-1.313991,10.791420,16.248974,-21.984138,,,,,,
1467747077.26,1.970757,-0.473390,-0.000145,-0.026550,-0.912489,0.015595,0.819784,0.455906,0.346561,-1.168401,-0.430912,-1.284168,10.791420,16.248974,-21.984138,,,,,,
1467747077.27,1.957266,-0.474817,-0.001852,-0.030827,-0.940116,0.015759,0.823781,0.457175,0.335224,-1.185720,-0.434119,-1.262364,9.826780,15.969483,-22.631748,,,,,,
1467747077.28,1.943175,-0.476370,-0.003687,-0.029790,-0.975183,0.017038,0.827760,0.458557,0.323325,-1.199632,-0.433853,-1.247611,9.826780,15.969483,-22.631748,,,,,,
1467747077.29,1.930036,-0.477222,-0.004802,-0.033059,-1.044215,0.017464,0.831571,0.459313,0.312284,-1.200467,-0.433907,-1.235944,9.826780,15.969483,-22.631748,,,,,,
1467747077.30,1.898526,-0.484956,-0.013922,-0.037381,-1.158997,0.018153,0.837608,0.466169,0.284778,-1.199654,-0.441007,-1.216587,8.371334,15.718448,-23.380274,,,,,,
1467747077.31,1.883828,-0.485263,-0.014553,-0.039710,-1.321468,0.021296,0.841567,0.466441,0.272393,-1.192657,-0.436594,-1.201669,8.371334,15.718448,-23.380274,,,,,,
1467747077.32,1.866774,-0.485657,-0.015398,-0.047375,-1.495619,0.024506,0.845914,0.466790,0.257948,-1.207257,-0.442361,-1.194822,8.371334,15.718448,-23.380274,,,,,,
1467747077.33,1.848806,-0.485787,-0.015802,-0.052914,-1.672947,0.025611,0.850354,0.466904,0.242692,-1.212338,-0.438004,-1.167130,7.312025,15.500109,-23.876078,,,,,,
1467747077.34,1.831015,-0.485372,-0.015271,-0.059519,-1.842838,0.028799,0.854724,0.466538,0.227575,-1.238619,-0.436188,-1.143286,7.312025,15.500109,-23.876078,,,,,,
1467747077.35,1.812045,-0.484919,-0.014681,-0.060723,-1.950085,0.031599,0.859092,0.466137,0.211372,-1.264655,-0.436840,-1.108634,7.312025,15.500109,-23.876078,,,,,,
1467747077.36,1.791530,-0.484435,-0.014035,-0.069481,-2.138026,0.034898,0.863467,0.465709,0.193753,-1.254809,-0.439571,-1.085462,5.587819,15.497410,-24.339119,,,,,,
1467747077.37,1.767953,-0.483900,-0.013258,-0.081634,-2.486297,0.039199,0.868039,0.465235,0.173392,-1.241421,-0.435664,-1.082679,5.587819,15.497410,-24.339119,,,,,,
1467747077.38,1.741117,-0.483292,-0.012340,-0.092679,-2.795291,0.046448,0.872658,0.464697,0.150086,-1.270927,-0.438726,-1.050354,5.587819,15.497410,-24.339119,,,,,,
1467747077.39,1.711847,-0.482647,-0.011356,-0.097239,-3.029956,0.051108,0.876973,0.464125,0.124525,-1.289540,-0.429976,-0.983579,4.504972,15.529239,-24.542496,,,,,,
1467747077.40,1.679965,-0.481985,-0.010256,-0.108259,-3.327255,0.052962,0.880802,0.463539,0.096540,-1.300220,-0.433083,-0.935468,4.504972,15.529239,-24.542496,,,,,,
1467747077.41,1.643922,-0.481381,-0.009100,-0.124713,-3.708445,0.058529,0.883988,0.463003,0.064757,-1.335160,-0.433645,-0.905639,4.504972,15.529239,-24.542496,,,,,,
1467747077.42,1.606496,-0.480730,-0.007829,-0.124844,-3.808264,0.062348,0.886093,0.462427,0.031647,-1.407745,-0.423837,-0.791596,4.504972,15.529239,-24.542496,,,,,,
1467747077.44,1.525898,-0.479384,-0.004770,-0.144742,-4.382707,0.072318,0.886385,0.461232,-0.039824,-1.391253,-0.413167,-0.677293,1.421059,15.622006,-24.853964,,,,,,
1467747077.43,1.567891,-0.480067,-0.006347,-0.131450,-3.977096,0.066594,0.886960,0.461838,-0.002577,-1.400586,-0.432267,-0.730196,1.421059,15.622006,-24.853964,,,,,,
1467747077.45,1.481154,-0.478738,-0.003017,-0.164228,-4.633291,0.077063,0.884013,0.460660,-0.079458,-1.413051,-0.428586,-0.621897,1.421059,15.622006,-24.853964,,,,,,
1467747077.46,1.431444,-0.478112,-0.001026,-0.172380,-5.187554,0.082660,0.879258,0.460104,-0.123326,-1.425111,-0.419332,-0.535014,-2.645847,15.757166,-24.667738,,,,,,
1467747077.48,1.323585,-0.477073,0.003380,-0.193259,-5.700403,0.089049,0.861336,0.459181,-0.217378,-1.437615,-0.406736,-0.276365,-2.645847,15.757166,-24.667738,,,,,,
1467747077.47,1.378652,-0.477543,0.001126,-0.173739,-5.410553,0.091509,0.871783,0.459598,-0.169601,-1.444445,-0.419910,-0.451890,-2.645847,15.757166,-24.667738,,,,,,
1467747077.49,1.264919,-0.476691,0.005811,-0.193725,-6.058254,0.099809,0.847276,0.458842,-0.267559,-1.483521,-0.420954,-0.238651,-5.172605,15.848840,-24.204226,,,,,,
1467747077.50,1.204090,-0.476458,0.008437,-0.218442,-6.248290,0.095653,0.829543,0.458634,-0.318610,-1.517791,-0.406770,-0.049279,-5.172605,15.848840,-24.204226,,,,,,
1467747077.51,1.142107,-0.476356,0.011003,-0.205734,-6.298210,0.099173,0.808257,0.458544,-0.369402,-1.594634,-0.395922,0.048434,-5.172605,15.848840,-24.204226,,,,,,
1467747077.52,1.084338,-0.476402,0.013539,-0.201764,-5.683422,0.093192,0.785562,0.458584,-0.415443,-1.820794,-0.388180,0.302528,-10.726093,16.065948,-22.149998,,,,,,
1467747077.53,1.037835,-0.476473,0.015551,-0.141606,-4.424128,0.075774,0.765372,0.458648,-0.451495,-1.998496,-0.399779,0.478381,-10.726093,16.065948,-22.149998,,,,,,
1467747077.54,1.002291,-0.476555,0.017063,-0.113663,-3.383548,0.059696,0.748813,0.458721,-0.478388,-2.028217,-0.368557,0.591684,-10.726093,16.065948,-22.149998,,,,,,
1467747077.55,0.973955,-0.476626,0.018236,-0.084359,-2.765261,0.047406,0.734931,0.458784,-0.499393,-1.954856,-0.391767,0.505390,-12.985337,16.165203,-20.829147,,,,,,
1467747077.56,0.948607,-0.476761,0.019278,-0.085126,-2.534838,0.041702,0.721988,0.458903,-0.517824,-1.838779,-0.375621,0.460557,-12.985337,16.165203,-20.829147,,,,,,
1467747077.57,0.925587,-0.476901,0.020244,-0.072016,-2.269393,0.040050,0.709826,0.459028,-0.534266,-1.811373,-0.397551,0.435893,-12.985337,16.165203,-20.829147,,,,,,
1467747077.58,0.905460,-0.477045,0.021031,-0.062068,-1.991183,0.029800,0.698877,0.459156,-0.548403,-1.755442,-0.378315,0.508563,-15.242961,16.267086,-19.152550,,,,,,
1467747077.59,0.886729,-0.477192,0.021785,-0.059810,-1.886071,0.031272,0.688431,0.459287,-0.561354,-1.727432,-0.396817,0.473586,-15.242961,16.267086,-19.152550,,,,,,
1467747077.60,0.868920,-0.477329,0.022476,-0.057550,-1.782016,0.030621,0.678277,0.459409,-0.573484,-1.709420,-0.380322,0.530256,-15.242961,16.267086,-19.152550,,,,,,
1467747077.61,0.852015,-0.477450,0.023158,-0.050024,-1.723620,0.030263,0.668444,0.459516,-0.584831,-1.660586,-0.407301,0.514320,-15.978197,16.300385,-18.514339,,,,,,
1467747077.62,0.833421,-0.477600,0.023885,-0.063104,-1.963584,0.032819,0.657404,0.459649,-0.597112,-1.578882,-0.388925,0.525533,-15.978197,16.300385,-18.514339,,,,,,
1467747077.63,0.812962,-0.477811,0.024760,-0.070737,-2.103744,0.035819,0.644980,0.459836,-0.610370,-1.591117,-0.412214,0.513705,-15.978197,16.300385,-18.514339,,,,,,
1467747077.64,0.791904,-0.478022,0.025555,-0.067611,-2.157898,0.036162,0.631916,0.460024,-0.623747,-1.553745,-0.380968,0.601042,-17.300529,16.364471,-17.224455,,,,,,
1467747077.65,0.770536,-0.478255,0.026450,-0.070838,-2.179141,0.039485,0.618370,0.460230,-0.637030,-1.576988,-0.404856,0.620077,-17.300529,16.364471,-17.224455,,,,,,
1467747077.66,0.748277,-0.478507,0.027267,-0.068863,-2.309732,0.036049,0.603960,0.460455,-0.650549,-1.499299,-0.404119,0.642325,-17.300529,16.364471,-17.224455,,,,,,
1467747077.68,0.695906,-0.479197,0.029302,-0.092019,-2.930898,0.048437,0.568873,0.461067,-0.681029,-1.376368,-0.409217,0.690047,-18.015726,16.400749,-16.438831,,,,,,
1467747077.67,0.723763,-0.478829,0.028259,-0.086231,-2.565632,0.042958,0.587733,0.460740,-0.665047,-1.424251,-0.391923,0.680169,-18.015726,16.400749,-16.438831,,,,,,
1467747077.69,0.663912,-0.479686,0.030564,-0.111741,-3.363063,0.058579,0.546658,0.461501,-0.698700,-1.354657,-0.401717,0.761994,-18.015726,16.400749,-16.438831,,,,,,
1467747077.70,0.628275,-0.480260,0.031924,-0.119628,-3.706027,0.062851,0.521261,0.462009,-0.717520,-1.291341,-0.405750,0.830389,-19.657345,16.488504,-14.335413,,,,,,
1467747077.72,0.544754,-0.481766,0.035029,-0.148545,-4.674404,0.078475,0.459224,0.463345,-0.757908,-1.160762,-0.404690,0.922734,-19.657345,16.488504,-14.335413,,,,,,
1467747077.71,0.589110,-0.480940,0.033442,-0.138222,-4.086167,0.073732,0.492592,0.462613,-0.737118,-1.198159,-0.394360,0.878094,-19.657345,16.488504,-14.335413,,,,,,
1467747077.73,0.494435,-0.482815,0.036880,-0.179083,-5.238232,0.091561,0.420291,0.464275,-0.779618,-1.098514,-0.399059,1.054414,-20.667160,16.549459,-12.758137,,,,,,
1467747077.75,0.380741,-0.485504,0.040752,-0.211100,-6.133339,0.105658,0.328666,0.466654,-0.821105,-0.970084,-0.403223,1.241500,-20.667160,16.549459,-12.758137,,,,,,
1467747077.74,0.439955,-0.484025,0.038751,-0.183846,-5.638532,0.095131,0.376975,0.465346,-0.800839,-1.023063,-0.408583,1.130520,-20.667160,16.549459,-12.758137,,,,,,
1467747077.76,0.317255,-0.487180,0.042749,-0.221202,-6.542137,0.111405,0.275665,0.468136,-0.839558,-0.866028,-0.407803,1.344517,-22.815170,16.701847,-8.018880,,,,,,
1467747077.77,0.249511,-0.489108,0.044811,-0.239855,-6.971117,0.121528,0.217978,0.469838,-0.855417,-0.728613,-0.404943,1.436349,-22.815170,16.701847,-8.018880,,,,,,
1467747077.78,0.176813,-0.491289,0.046753,-0.252242,-7.509445,0.124892,0.155089,0.471762,-0.867979,-0.591964,-0.413489,1.519789,-22.815170,16.701847,-8.018880,,,,,,
1467747077.79,0.097693,-0.493813,0.048749,-0.279699,-8.156107,0.142758,0.085885,0.473987,-0.876333,-0.428155,-0.409671,1.617407,-23.634333,16.784473,-4.846215,,,,,,
1467747077.80,0.012332,-0.496612,0.050576,-0.294319,-8.769834,0.150850,0.010842,0.476450,-0.879135,-0.265801,-0.431772,1.715637,-23.634333,16.784473,-4.846215,,,,,,
1467747077.81,-0.079627,-0.499814,0.052219,-0.318585,-9.436643,0.158202,-0.069813,0.479262,-0.874891,-0.147625,-0.415954,1.854642,-23.634333,16.784473,-4.846215,,,,,,
1467747077.82,-0.176736,-0.503379,0.053678,-0.343644,-9.862463,0.178943,-0.154009,0.482388,-0.862313,0.070925,-0.448910,1.917611,-23.796991,16.927635,3.308241,,,,,,
1467747077.83,-0.278954,-0.507132,0.054764,-0.343285,-10.425219,0.182473,-0.240695,0.485672,-0.840350,0.240024,-0.426910,2.051410,-23.796991,16.927635,3.308241,,,,,,
1467747077.84,-0.386920,-0.511281,0.055457,-0.382311,-10.970980,0.191179,-0.329084,0.489295,-0.807648,0.556867,-0.441596,1.996063,-23.796991,16.927635,3.308241,,,,,,
1467747077.85,-0.503099,-0.515644,0.055585,-0.395109,-11.820445,0.207138,-0.419453,0.493095,-0.762179,0.716587,-0.454444,2.146273,-22.590418,16.970221,8.091394,,,,,,
1467747077.86,-0.626025,-0.520410,0.055063,-0.432069,-12.411875,0.219326,-0.508361,0.497236,-0.703083,0.962889,-0.450452,2.121876,-22.590418,16.970221,8.091394,,,,,,
1467747077.87,-0.755368,-0.525165,0.053765,-0.444528,-13.018141,0.216729,-0.593172,0.501356,-0.629912,1.148760,-0.462232,2.226226,-22.590418,16.970221,8.091394,,,,,,
1467747077.89,-1.024883,-0.534578,0.048752,-0.465171,-13.335629,0.226151,-0.735415,0.509478,-0.446762,1.370761,-0.476595,2.225128,-16.174150,16.918642,17.774771,,,,,,
1467747077.88,-0.889676,-0.530044,0.051654,-0.465254,-13.381323,0.239211,-0.670270,0.505571,-0.543264,1.244687,-0.467653,2.189672,-16.174150,16.918642,17.774771,,,,,,
1467747077.90,-1.158173,-0.538651,0.045309,-0.446776,-13.098860,0.225749,-0.786358,0.512978,-0.344231,1.471996,-0.462563,2.042320,-16.174150,16.918642,17.774771,,,,,,
1467747077.91,-1.289838,-0.542226,0.041228,-0.448613,-12.877983,0.216910,-0.822977,0.516044,-0.237504,1.510721,-0.498969,1.940691,-10.814199,16.796940,21.556946,,,,,,
1467747077.92,-1.416912,-0.545259,0.036847,-0.427682,-12.315245,0.215531,-0.844890,0.518640,-0.131051,1.515208,-0.466897,1.745706,-10.814199,16.796940,21.556946,,,,,,
1467747077.93,-1.536291,-0.547605,0.032271,-0.399971,-11.473198,0.192182,-0.853266,0.520644,-0.029454,1.504297,-0.503051,1.580113,-10.814199,16.796940,21.556946,,,,,,
1467747077.94,-1.646297,-0.549368,0.027845,-0.366837,-10.529261,0.182037,-0.850425,0.522148,0.064330,1.425636,-0.473061,1.345659,1.122130,16.430098,24.342941,,,,,,
1467747077.95,-1.745092,-0.550549,0.023696,-0.321657,-9.349555,0.151266,-0.839325,0.523155,0.147790,1.385559,-0.496284,1.162269,1.122130,16.430098,24.342941,,,,,,
1467747077.96,-1.830716,-0.551315,0.020043,-0.280605,-8.035052,0.138805,-0.823224,0.523808,0.218924,1.299481,-0.472966,0.917947,6.105973,16.246267,23.718388,,,,,,
1467747077.97,-1.902536,-0.551725,0.016927,-0.226692,-6.684401,0.106970,-0.805189,0.524157,0.277363,1.262388,-0.494371,0.737941,6.105973,16.246267,23.718388,,,,,,
1467747077.98,-1.960469,-0.551924,0.014309,-0.190868,-5.293445,0.094024,-0.787682,0.524326,0.323479,1.163491,-0.477558,0.567726,6.105973,16.246267,23.718388,,,,,,
1467747077.99,-2.002799,-0.552017,0.012476,-0.123942,-3.749562,0.064184,-0.773243,0.524406,0.356502,1.145985,-0.491233,0.464711,9.717871,16.102966,22.584145,,,,,,
1467747078.01,-2.040793,-0.552061,0.010877,-0.019947,-0.681977,0.013115,-0.759123,0.524443,0.385606,1.089109,-0.497451,0.336730,9.717871,16.102966,22.584145,,,,,,
1467747078.00,-2.029776,-0.552040,0.011305,-0.076266,-2.261961,0.041064,-0.763335,0.524425,0.377224,1.080092,-0.482662,0.353321,9.717871,16.102966,22.584145,,,,,,
1467747078.02,-2.036121,-0.552088,0.011073,0.027764,0.831110,-0.011229,-0.760904,0.524466,0.382049,1.099633,-0.492255,0.286775,9.717871,16.102966,22.584145,,,,,,
1467747078.03,-2.016449,-0.552108,0.011986,0.082848,2.275184,-0.038326,-0.768262,0.524483,0.367002,1.124692,-0.495354,0.330111,12.712987,15.975832,21.140928,,,,,,
1467747078.04,-1.982315,-0.552118,0.013522,0.132561,3.688457,-0.060978,-0.780335,0.524491,0.340568,1.179871,-0.494371,0.389565,12.712987,15.975832,21.140928,,,,,,
1467747078.05,-1.934335,-0.552034,0.015699,0.178936,4.990236,-0.080805,-0.795812,0.524420,0.302765,1.247991,-0.489538,0.466461,12.201246,15.998981,21.423077,,,,,,
1467747078.06,-1.874225,-0.551815,0.018397,0.220882,6.157169,-0.099791,-0.812672,0.524234,0.254446,1.289327,-0.496997,0.609110,12.201246,15.998981,21.423077,,,,,,
1467747078.07,-1.802190,-0.551337,0.021590,0.257517,7.323061,-0.125162,-0.829122,0.523826,0.195353,1.373037,-0.489784,0.761526,12.201246,15.998981,21.423077,,,,,,
1467747078.08,-1.719204,-0.550560,0.025134,0.288648,8.364691,-0.138050,-0.842864,0.523165,0.126014,1.417510,-0.496691,0.940926,7.442948,16.200937,23.364893,,,,,,
1467747078.09,-1.626570,-0.549375,0.028997,0.324967,9.285294,-0.157626,-0.851525,0.522155,0.047542,1.479775,-0.484618,1.131703,7.442948,16.200937,23.364893,,,,,,
1467747078.10,-1.525691,-0.547735,0.033142,0.357885,10.055100,-0.167743,-0.852838,0.520755,-0.038494,1.503915,-0.498507,1.306606,7.442948,16.200937,23.364893,,,,,,
1467747078.11,-1.418235,-0.545596,0.037255,0.376753,10.655029,-0.178938,-0.844890,0.518928,-0.129907,1.549983,-0.489951,1.462228,3.302516,16.358704,24.192400,,,,,,
1467747078.12,-1.306924,-0.542950,0.041258,0.396360,10.995879,-0.188507,-0.826553,0.516664,-0.223312,1.557632,-0.492601,1.623260,3.302516,16.358704,24.192400,,,,,,
1467747078.13,-1.193787,-0.539935,0.044847,0.386965,11.148778,-0.187347,-0.797503,0.514080,-0.315770,1.535189,-0.479397,1.725240,3.302516,16.358704,24.192400,,,,,,
1467747078.14,-1.081111,-0.536601,0.048021,0.387931,11.070204,-0.186853,-0.758449,0.511218,-0.404241,1.482387,-0.483249,1.825399,-7.019959,16.705635,23.139317,,,,,,
1467747078.15,-0.971135,-0.533064,0.050638,0.368377,10.758047,-0.185979,-0.710988,0.508174,-0.486060,1.443929,-0.471050,1.838935,-7.019959,16.705635,23.139317,,,,,,
1467747078.16,-0.866858,-0.529462,0.052722,0.356974,10.170849,-0.172728,-0.657924,0.505069,-0.558606,1.297939,-0.478564,1.863630,-7.019959,16.705635,23.139317,,,,,,
1467747078.17,-0.769057,-0.525944,0.054212,0.328484,9.530590,-0.166612,-0.601467,0.502029,-0.621453,1.216717,-0.460510,1.849252,-7.019959,16.705635,23.139317,,,,,,
1467747078.18,-0.679449,-0.522590,0.055277,0.305038,8.684310,-0.148554,-0.544496,0.499127,-0.674090,1.084856,-0.472195,1.809191,-15.911425,16.926462,18.002989,,,,,,
1467747078.19,-0.600111,-0.519527,0.055856,0.265364,7.615090,-0.140824,-0.490220,0.496469,-0.716382,1.010773,-0.448298,1.709057,-15.911425,16.926462,18.002989,,,,,,
1467747078.20,-0.533169,-0.516935,0.056145,0.220105,6.367439,-0.112819,-0.441854,0.494218,-0.748675,0.857824,-0.471833,1.634188,-18.741125,16.972282,14.983255,,,,,,
1467747078.21,-0.478339,-0.514821,0.056221,0.181327,5.181389,-0.092646,-0.400641,0.492379,-0.772690,0.757040,-0.454003,1.581879,-18.741125,16.972282,14.983255,,,,,,
1467747078.22,-0.436080,-0.513175,0.056164,0.131776,3.897656,-0.070807,-0.367981,0.490945,-0.789660,0.643204,-0.458261,1.514727,-18.741125,16.972282,14.983255,,,,,,
1467747078.23,-0.406517,-0.512054,0.056063,0.090796,2.655329,-0.049218,-0.344697,0.489969,-0.800696,0.559113,-0.449716,1.469779,-20.452122,16.988073,12.526060,,,,,,
1467747078.24,-0.389205,-0.511375,0.055996,0.049822,1.420432,-0.026612,-0.330910,0.489377,-0.806851,0.517983,-0.450467,1.460721,-20.452122,16.988073,12.526060,,,,,,
1467747078.25,-0.384157,-0.511187,0.055943,0.004627,0.213146,-0.005248,-0.326868,0.489213,-0.808596,0.462106,-0.449006,1.429583,-20.452122,16.988073,12.526060,,,,,,
1467747078.26,-0.390410,-0.511434,0.055920,-0.032988,-0.897510,0.012325,-0.331872,0.489428,-0.806425,0.449075,-0.447314,1.465757,-21.567852,16.988361,10.488539,,,,,,
1467747078.27,-0.407425,-0.512072,0.055913,-0.069487,-1.965698,0.030697,-0.345420,0.489985,-0.800375,0.446723,-0.448786,1.464834,-21.567852,16.988361,10.488539,,,,,,
1467747078.28,-0.434846,-0.513134,0.055907,-0.106995,-2.992469,0.046679,-0.367016,0.490910,-0.790131,0.476559,-0.442296,1.501190,-21.567852,16.988361,10.488539,,,,,,
1467747078.29,-0.471896,-0.514583,0.055879,-0.140137,-3.928998,0.065293,-0.395708,0.492172,-0.775360,0.509431,-0.449753,1.533172,-21.312601,16.986277,11.001160,,,,,,
1467747078.30,-0.517578,-0.516387,0.055769,-0.172094,-4.776324,0.079091,-0.430262,0.493741,-0.755708,0.611140,-0.455396,1.577241,-21.312601,16.986277,11.001160,,,,,,
1467747078.31,-0.572795,-0.518523,0.055533,-0.199970,-5.757454,0.099054,-0.470741,0.495598,-0.729922,0.687507,-0.463372,1.583529,-21.312601,16.986277,11.001160,,,,,,
1467747078.32,-0.637339,-0.521025,0.055082,-0.237287,-6.632388,0.114084,-0.516100,0.497769,-0.697041,0.772158,-0.461576,1.628514,-19.158905,16.967348,14.451005,,,,,,
1467747078.33,-0.708895,-0.523748,0.054393,-0.253006,-7.268420,0.125508,-0.563730,0.500129,-0.657328,0.861078,-0.467948,1.690485,-19.158905,16.967348,14.451005,,,,,,
1467747078.34,-0.786459,-0.526614,0.053384,-0.276091,-7.838612,0.134384,-0.611952,0.502609,-0.610655,0.931074,-0.463791,1.712629,-19.158905,16.967348,14.451005,,,,,,
1467747078.35,-0.868126,-0.529565,0.052077,-0.283972,-8.169908,0.142840,-0.658593,0.505158,-0.557738,1.007836,-0.476502,1.733168,-16.985729,16.934280,16.985325,,,,,,
1467747078.36,-0.952351,-0.532459,0.050425,-0.293824,-8.386507,0.143124,-0.701984,0.507653,-0.499507,1.084354,-0.462289,1.733943,-16.985729,16.934280,16.985325,,,,,,
1467747078.37,-1.037443,-0.535265,0.048495,-0.290646,-8.399251,0.143207,-0.740667,0.510069,-0.437312,1.139608,-0.472655,1.696696,-16.985729,16.934280,16.985325,,,,,,
1467747078.38,-1.121958,-0.537877,0.046322,-0.289480,-8.321733,0.140594,-0.773736,0.512314,-0.372649,1.237481,-0.472840,1.642760,-10.537366,16.790287,21.698761,,,,,,
1467747078.39,-1.206109,-0.540349,0.043864,-0.290476,-8.260160,0.144464,-0.801134,0.514436,-0.305844,1.252443,-0.471528,1.543850,-10.537366,16.790287,21.698761,,,,,,
1467747078.40,-1.287311,-0.542555,0.041275,-0.277195,-7.865165,0.137742,-0.822210,0.516326,-0.239536,1.273657,-0.481444,1.492572,-6.744609,16.684483,23.236273,,,,,,
1467747078.41,-1.362812,-0.544438,0.038680,-0.254067,-7.264175,0.126545,-0.836984,0.517937,-0.176634,1.283318,-0.480156,1.417768,-6.744609,16.684483,23.236273,,,,,,
1467747078.42,-1.432412,-0.546003,0.036187,-0.233107,-6.697156,0.113430,-0.846437,0.519275,-0.117887,1.308458,-0.486194,1.291532,-6.744609,16.684483,23.236273,,,,,,
1467747078.43,-1.495700,-0.547294,0.033800,-0.207750,-6.016533,0.101735,-0.851529,0.520378,-0.064068,1.272656,-0.488808,1.194851,-6.744609,16.684483,23.236273,,,,,,
1467747078.44,-1.550524,-0.548329,0.031618,-0.185344,-5.139480,0.090935,-0.853222,0.521262,-0.017299,1.265743,-0.477240,1.091930,-6.744609,16.684483,23.236273,,,,,,
1467747078.45,-1.596409,-0.549124,0.029752,-0.152309,-4.279416,0.078123,-0.852702,0.521940,0.021844,1.245982,-0.477308,0.999213,0.149257,16.462406,24.346519,,,,,,
1467747078.46,-1.632939,-0.549764,0.028148,-0.124475,-3.318484,0.066802,-0.851002,0.522486,0.052952,1.213017,-0.458796,0.899548,0.149257,16.462406,24.346519,,,,,,
1467747078.47,-1.658783,-0.550272,0.026976,-0.090120,-2.250315,0.055879,-0.849085,0.522919,0.074902,1.198878,-0.466873,0.847904,2.576627,16.374866,24.269545,,,,,,
1467747078.48,-1.673877,-0.550642,0.026216,-0.050474,-1.216112,0.039852,-0.847665,0.523235,0.087689,1.213678,-0.474162,0.811634,2.576627,16.374866,24.269545,,,,,,
1467747078.49,-1.679016,-0.550871,0.025879,-0.018370,-0.258347,0.021104,-0.847084,0.523430,0.092031,1.224465,-0.492759,0.779200,4.071594,16.314993,24.104548,,,,,,
1467747078.50,-1.674439,-0.550948,0.025946,0.013731,0.695174,0.001318,-0.847456,0.523495,0.088149,1.238081,-0.499570,0.768434,4.071594,16.314993,24.104548,,,,,,
1467747078.51,-1.659944,-0.550856,0.026456,0.050106,1.662494,-0.017486,-0.848693,0.523417,0.075860,1.245681,-0.502100,0.805182,4.071594,16.314993,24.104548,,,,,,
1467747078.52,-1.636048,-0.550622,0.027347,0.082133,2.563975,-0.032687,-0.850386,0.523217,0.055568,1.252424,-0.488061,0.824788,4.071594,16.314993,24.104548,,,,,,
1467747078.53,-1.603172,-0.550263,0.028592,0.110926,3.441024,-0.043482,-0.851940,0.522911,0.027592,1.257397,-0.482933,0.871197,4.071594,16.314993,24.104548,,,,,,
1467747078.54,-1.561509,-0.549746,0.030157,0.139493,4.294990,-0.057259,-0.852621,0.522470,-0.007919,1.279394,-0.481470,0.940155,2.745154,16.348564,24.268801,,,,,,
1467747078.55,-1.511778,-0.549002,0.032022,0.171348,5.054198,-0.074762,-0.851561,0.521836,-0.050316,1.305372,-0.505326,1.045464,2.745154,16.348564,24.268801,,,,,,
1467747078.56,-1.455915,-0.548013,0.034081,0.185904,5.610600,-0.086752,-0.847935,0.520992,-0.097843,1.335438,-0.494518,1.099781,2.745154,16.348564,24.268801,,,,,,
1467747078.57,-1.394933,-0.546759,0.036305,0.213157,6.097986,-0.101491,-0.841039,0.519922,-0.149451,1.336736,-0.525750,1.228919,2.745154,16.348564,24.268801,,,,,,
1467747078.58,-1.329200,-0.545243,0.038554,0.223336,6.559888,-0.112893,-0.830170,0.518626,-0.204562,1.347092,-0.490229,1.290881,-2.271614,16.515339,24.204739,,,,,,
1467747078.59,-1.260827,-0.543496,0.040860,0.237429,6.758441,-0.115189,-0.815116,0.517131,-0.261076,1.342750,-0.518947,1.392119,-2.271614,16.515339,24.204739,,,,,,
1467747078.60,-1.191441,-0.541593,0.042996,0.239672,6.850814,-0.114701,-0.795967,0.515502,-0.317324,1.315956,-0.481231,1.400912,-2.271614,16.515339,24.204739,,,,,,
1467747078.61,-1.121285,-0.539503,0.045067,0.245086,6.917714,-0.118309,-0.772734,0.513710,-0.372807,1.290342,-0.497886,1.516850,-2.271614,16.515339,24.204739,,,,,,
1467747078.62,-1.051647,-0.537306,0.046953,0.246031,6.825331,-0.115600,-0.745898,0.511823,-0.426231,1.271045,-0.479734,1.551002,-8.680267,16.711050,22.565016,,,,,,
1467747078.63,-0.986077,-0.535133,0.048577,0.228363,6.326283,-0.109294,-0.717293,0.509955,-0.474801,1.258354,-0.486579,1.533410,-8.680267,16.711050,22.565016,,,,,,
1467747078.64,-0.926041,-0.533034,0.049931,0.214925,5.811295,-0.098627,-0.688367,0.508149,-0.517625,1.176312,-0.488999,1.544175,-8.680267,16.711050,22.565016,,,,,,
1467747078.65,-0.870285,-0.531015,0.051050,0.195284,5.428000,-0.098371,-0.659234,0.506409,-0.555842,1.099191,-0.463318,1.579813,-11.637894,16.792244,21.127378,,,,,,
1467747078.66,-0.819751,-0.529135,0.052002,0.182797,4.826997,-0.083970,-0.631011,0.504786,-0.589081,1.071181,-0.482753,1.556305,-11.637894,16.792244,21.127378,,,,,,
1467747078.67,-0.777428,-0.527570,0.052595,0.133842,4.006230,-0.072484,-0.606074,0.503436,-0.615814,0.999934,-0.440646,1.495056,-11.637894,16.792244,21.127378,,,,,,
1467747078.68,-0.742450,-0.526272,0.053080,0.118027,3.300106,-0.056363,-0.584610,0.502313,-0.637113,0.931534,-0.471399,1.505430,-15.772471,16.889904,18.158916,,,,,,
1467747078.69,-0.713904,-0.525216,0.053364,0.088498,2.684263,-0.048272,-0.566534,0.501400,-0.653940,0.879934,-0.447277,1.540338,-15.772471,16.889904,18.158916,,,,,,
1467747078.70,-0.692926,-0.524430,0.053613,0.066153,1.861351,-0.033553,-0.552944,0.500720,-0.665983,0.859584,-0.483645,1.486264,-15.772471,16.889904,18.158916,,,,,,
1467747078.71,-0.682063,-0.523997,0.053706,0.028607,0.808029,-0.015276,-0.545813,0.500345,-0.672118,0.893775,-0.467417,1.457701,-16.904352,16.910238,17.090137,,,,,,
1467747078.72,-0.682222,-0.523979,0.053707,-0.007919,-0.285636,0.001127,-0.545926,0.500329,-0.672038,0.874249,-0.482004,1.397258,-16.904352,16.910238,17.090137,,,,,,
1467747078.73,-0.691292,-0.524295,0.053633,-0.033418,-1.067151,0.020905,-0.551898,0.500603,-0.666938,0.801348,-0.463402,1.461585,-16.904352,16.910238,17.090137,,,,,,
1467747078.74,-0.706232,-0.524808,0.053490,-0.052232,-1.633089,0.026565,-0.561633,0.501047,-0.658423,0.789554,-0.467249,1.494620,-17.291090,16.917524,16.691364,,,,,,
1467747078.75,-0.727758,-0.525549,0.053281,-0.075459,-2.312651,0.038255,-0.575428,0.501688,-0.645904,0.800617,-0.468149,1.508071,-17.291090,16.917524,16.691364,,,,,,
1467747078.76,-0.755176,-0.526543,0.052961,-0.095303,-2.842502,0.049009,-0.592577,0.502548,-0.629523,0.792528,-0.464279,1.493704,-17.291090,16.917524,16.691364,,,,,,
1467747078.77,-0.786593,-0.527674,0.052525,-0.111737,-3.204580,0.055521,-0.611656,0.503525,-0.610196,0.818840,-0.444657,1.536237,-16.663853,16.907896,17.327007,,,,,,
1467747078.78,-0.822253,-0.528978,0.051962,-0.131481,-3.664334,0.059449,-0.632540,0.504652,-0.587554,0.869158,-0.458418,1.516616,-16.663853,16.907896,17.327007,,,,,,
1467747078.79,-0.862586,-0.530476,0.051263,-0.149077,-4.089084,0.075934,-0.655143,0.505944,-0.561078,0.891410,-0.458779,1.502240,-16.663853,16.907896,17.327007,,,,,,
1467747078.80,-0.906280,-0.532034,0.050367,-0.161159,-4.392739,0.072504,-0.678404,0.507287,-0.531439,0.958113,-0.461740,1.501364,-14.159254,16.856815,19.471760,,,,,,
1467747078.81,-0.951713,-0.533625,0.049417,-0.160256,-4.511679,0.079637,-0.701182,0.508658,-0.499610,0.960490,-0.481268,1.533561,-14.159254,16.856815,19.471760,,,,,,
1467747078.82,-0.997661,-0.535171,0.048356,-0.161367,-4.557321,0.074600,-0.722729,0.509988,-0.466449,1.018337,-0.477731,1.516330,-14.159254,16.856815,19.471760,,,,,,
1467747078.83,-1.045344,-0.536708,0.047239,-0.162709,-4.766517,0.083362,-0.743461,0.511309,-0.431077,1.081718,-0.493167,1.470048,-12.361606,16.812559,20.695765,,,,,,
1467747078.84,-1.094443,-0.538239,0.045990,-0.169206,-4.857820,0.080735,-0.763026,0.512624,-0.393709,1.119060,-0.491796,1.424944,-12.361606,16.812559,20.695765,,,,,,
1467747078.85,-1.143828,-0.539644,0.044717,-0.156435,-4.867373,0.077614,-0.780875,0.513831,-0.355264,1.173026,-0.504431,1.414697,-12.361606,16.812559,20.695765,,,,,,
1467747078.86,-1.191934,-0.540908,0.043465,-0.144502,-4.687941,0.078629,-0.796451,0.514915,-0.317062,1.165347,-0.507804,1.413528,-8.173456,16.703529,22.759016,,,,,,
1467747078.87,-1.236965,-0.542053,0.042186,-0.140888,-4.355595,0.075484,-0.809359,0.515896,-0.280695,1.168535,-0.450451,1.348123,-8.173456,16.703529,22.759016,,,,,,
1467747078.88,-1.278732,-0.543068,0.040987,-0.126617,-4.024299,0.065970,-0.819872,0.516765,-0.246504,1.181780,-0.486904,1.286436,-8.173456,16.703529,22.759016,,,,,,
1467747078.89,-1.316410,-0.543942,0.039813,-0.118633,-3.611244,0.057000,-0.828138,0.517513,-0.215332,1.212568,-0.483532,1.278046,-6.025831,16.646393,23.460030,,,,,,
1467747078.90,-1.350410,-0.544738,0.038717,-0.108594,-3.242812,0.057893,-0.834577,0.518194,-0.186966,1.197904,-0.458487,1.181778,-6.025831,16.646393,23.460030,,,,,,
1467747078.91,-1.379085,-0.545358,0.037775,-0.076967,-2.670472,0.038368,-0.839279,0.518724,-0.162900,1.188705,-0.485277,1.130643,-6.025831,16.646393,23.460030,,,,,,
1467747078.92,-1.402348,-0.545758,0.036957,-0.078425,-2.155462,0.022363,-0.842636,0.519066,-0.143299,1.256256,-0.492790,1.144977,-2.655272,16.548557,24.142927,,,,,,
1467747078.93,-1.419738,-0.545888,0.036640,-0.016933,-1.556566,-0.006878,-0.844934,0.519177,-0.128614,1.178964,-0.541623,1.090742,-2.655272,16.548557,24.142927,,,,,,
1467747078.94,-1.429669,-0.545749,0.036525,-0.002140,-0.807984,-0.017945,-0.846241,0.519058,-0.120227,1.226810,-0.562256,1.183444,-1.679867,16.524015,24.247084,,,,,,
1467747078.95,-1.434558,-0.545813,0.036508,-0.005941,-0.400323,0.006106,-0.846786,0.519113,-0.116084,1.151779,-0.429635,1.088359,-1.679867,16.524015,24.247084,,,,,,
1467747078.96,-1.434044,-0.545784,0.036579,0.018310,0.242085,-0.008543,-0.846741,0.519088,-0.116521,1.179718,-0.411804,0.952108,-1.679867,16.524015,24.247084,,,,,,
1467747078.97,-1.424663,-0.545498,0.037034,0.051400,1.130844,-0.031116,-0.845757,0.518844,-0.124481,1.204095,-0.485152,1.069885,-1.323514,16.521437,24.270901,,,,,,
1467747078.98,-1.408190,-0.544893,0.037937,0.091576,1.724422,-0.052894,-0.843902,0.518327,-0.138446,1.220092,-0.524995,1.145893,-1.323514,16.521437,24.270901,,,,,,
1467747078.99,-1.387605,-0.544182,0.038946,0.097376,2.099244,-0.058432,-0.841235,0.517719,-0.155854,1.225802,-0.530597,1.142213,-1.323514,16.521437,24.270901,,,,,,
1467747079.00,-1.362242,-0.543398,0.039975,0.105475,2.617394,-0.059545,-0.837409,0.517048,-0.177222,1.239188,-0.445744,1.067786,-2.450924,16.575142,24.146297,,,,,,
1467747079.01,-1.332935,-0.542607,0.041046,0.107982,2.928483,-0.055107,-0.832254,0.516370,-0.201781,1.269143,-0.426450,1.092696,-2.450924,16.575142,24.146297,,,,,,
1467747079.02,-1.301946,-0.541850,0.042134,0.106042,3.093040,-0.047625,-0.825979,0.515722,-0.227574,1.241110,-0.449651,1.194066,-2.450924,16.575142,24.146297,,,,,,
1467747079.03,-1.267934,-0.540957,0.043290,0.126713,3.426469,-0.061405,-0.818202,0.514957,-0.255668,1.229472,-0.501376,1.237021,-3.759070,16.621712,23.945232,,,,,,
1467747079.04,-1.231298,-0.539903,0.044500,0.132322,3.648391,-0.065984,-0.808799,0.514052,-0.285646,1.263145,-0.474410,1.248155,-3.759070,16.621712,23.945232,,,,,,
1467747079.05,-1.192828,-0.538763,0.045737,0.138934,3.820412,-0.071314,-0.797759,0.513074,-0.316757,1.209075,-0.490613,1.313675,-3.759070,16.621712,23.945232,,,,,,
1467747079.06,-1.153741,-0.537600,0.046938,0.143203,3.836322,-0.066087,-0.785316,0.512076,-0.347931,1.205193,-0.455161,1.325180,-7.045077,16.726374,23.116690,,,,,,
1467747079.07,-1.114941,-0.536448,0.047995,0.128292,3.834203,-0.065025,-0.771758,0.511086,-0.378391,1.165053,-0.467721,1.358433,-7.045077,16.726374,23.116690,,,,,,
1467747079.08,-1.076252,-0.535238,0.049095,0.138879,3.789596,-0.062605,-0.757089,0.510046,-0.408252,1.179544,-0.485388,1.420154,-8.816919,16.777615,22.462404,,,,,,
1467747079.09,-1.039986,-0.534066,0.050049,0.125708,3.475309,-0.060647,-0.742304,0.509038,-0.435736,1.195169,-0.492039,1.358878,-8.816919,16.777615,22.462404,,,,,,
1467747079.10,-1.008477,-0.532987,0.050852,0.111256,2.993249,-0.054445,-0.728672,0.508108,-0.459199,1.135547,-0.489096,1.374604,-8.816919,16.777615,22.462404,,,,,,
1467747079.11,-0.980476,-0.531987,0.051553,0.105560,2.701247,-0.049426,-0.715952,0.507247,-0.479701,1.120325,-0.473937,1.413341,-10.470963,16.824764,21.704201,,,,,,
1467747079.12,-0.955572,-0.531052,0.052161,0.091286,2.360410,-0.045174,-0.704171,0.506440,-0.497655,1.092080,-0.471940,1.391729,-10.470963,16.824764,21.704201,,,,,,
1467747079.13,-0.935555,-0.530273,0.052671,0.075715,1.840117,-0.035540,-0.694387,0.505768,-0.511884,1.042028,-0.475159,1.397885,-10.470963,16.824764,21.704201,,,,,,
1467747079.14,-0.920232,-0.529665,0.053056,0.060271,1.421756,-0.026545,-0.686707,0.505244,-0.522650,1.019440,-0.481242,1.435507,-10.470963,16.824764,21.704201,,,,,,
1467747079.15,-0.908282,-0.529142,0.053397,0.053463,1.090471,-0.022345,-0.680620,0.504793,-0.530980,1.012133,-0.477403,1.438482,-12.678056,16.886337,20.442715,,,,,,
1467747079.16,-0.900464,-0.528736,0.053683,0.039061,0.649818,-0.015338,-0.676609,0.504443,-0.536412,1.001240,-0.469607,1.414311,-12.678056,16.886337,20.442715,,,,,,
1467747079.17,-0.897402,-0.528503,0.053858,0.024623,0.182618,-0.007100,-0.675056,0.504241,-0.538555,0.992286,-0.469878,1.421840,-12.678056,16.886337,20.442715,,,,,,
1467747079.18,-0.898720,-0.528415,0.053900,0.003861,-0.239972,-0.003406,-0.675799,0.504165,-0.537692,0.919421,-0.458770,1.438404,-13.449205,16.914299,19.920124,,,,,,
1467747079.19,-0.902858,-0.528476,0.053907,-0.004930,-0.447037,0.004271,-0.677994,0.504218,-0.534872,0.897187,-0.446753,1.472479,-13.449205,16.914299,19.920124,,,,,,
1467747079.20,-0.908037,-0.528579,0.053872,-0.009315,-0.544727,0.007008,-0.680714,0.504307,-0.531321,0.906849,-0.448399,1.479671,-13.449205,16.914299,19.920124,,,,,,
1467747079.21,-0.915079,-0.528785,0.053776,-0.025556,-0.754964,0.011504,-0.684357,0.504484,-0.526452,0.901840,-0.435408,1.441750,-13.339752,16.915358,19.992693,,,,,,
1467747079.22,-0.924225,-0.529102,0.053573,-0.035383,-0.945031,0.015879,-0.689015,0.504758,-0.520074,0.915196,-0.447782,1.460336,-13.339752,16.915358,19.992693,,,,,,
1467747079.23,-0.934737,-0.529486,0.053315,-0.045125,-1.068201,0.018771,-0.694288,0.505090,-0.512688,0.925031,-0.447015,1.449898,-13.092781,16.912067,20.158054,,,,,,
1467747079.24,-0.946719,-0.529962,0.053006,-0.049588,-1.224295,0.024003,-0.700186,0.505500,-0.504192,0.938864,-0.459709,1.454616,-13.092781,16.912067,20.158054,,,,,,
1467747079.25,-0.960234,-0.530503,0.052638,-0.058290,-1.367640,0.027022,-0.706712,0.505967,-0.494526,0.972398,-0.467698,1.441853,-13.092781,16.912067,20.158054,,,,,,
1467747079.26,-0.975426,-0.531065,0.052271,-0.058528,-1.552403,0.031374,-0.713907,0.506452,-0.483573,1.006586,-0.478177,1.426246,-12.167177,16.885223,20.751751,,,,,,
1467747079.27,-0.992878,-0.531703,0.051804,-0.068400,-1.784930,0.031758,-0.721967,0.507002,-0.470864,1.026486,-0.489882,1.419290,-12.167177,16.885223,20.751751,,,,,,
1467747079.28,-1.012548,-0.532351,0.051332,-0.069722,-1.988798,0.034100,-0.730809,0.507561,-0.456399,1.032140,-0.489555,1.420740,-12.167177,16.885223,20.751751,,,,,,
1467747079.29,-1.033267,-0.533008,0.050863,-0.066618,-2.058882,0.035607,-0.739821,0.508127,-0.440989,1.046309,-0.484308,1.420100,-12.167177,16.885223,20.751751,,,,,,
1467747079.30,-1.054482,-0.533631,0.050424,-0.062438,-2.121530,0.036004,-0.748734,0.508663,-0.425040,1.091584,-0.493801,1.406272,-10.616866,16.843655,21.618498,,,,,,
1467747079.31,-1.077213,-0.534236,0.049946,-0.067966,-2.291404,0.032806,-0.757931,0.509184,-0.407766,1.118267,-0.487150,1.355291,-10.616866,16.843655,21.618498,,,,,,
1467747079.32,-1.101458,-0.534882,0.049417,-0.071333,-2.424137,0.036829,-0.767300,0.509739,-0.389123,1.116421,-0.478688,1.342187,-10.616866,16.843655,21.618498,,,,,,
1467747079.33,-1.125939,-0.535505,0.048842,-0.070234,-2.401830,0.033497,-0.776308,0.510276,-0.370088,1.111223,-0.474555,1.358109,-9.655260,16.822300,22.081039,,,,,,
1467747079.34,-1.149195,-0.536071,0.048316,-0.064731,-2.262731,0.030501,-0.784441,0.510762,-0.351817,1.112367,-0.464787,1.327693,-9.655260,16.822300,22.081039,,,,,,
1467747079.35,-1.170857,-0.536602,0.047793,-0.061322,-2.089662,0.030483,-0.791627,0.511219,-0.334638,1.099076,-0.469288,1.323026,-9.655260,16.822300,22.081039,,,,,,
1467747079.36,-1.190003,-0.537067,0.047341,-0.051395,-1.819960,0.025608,-0.797668,0.511618,-0.319332,1.124740,-0.460089,1.303188,-7.548882,16.773146,22.922958,,,,,,
1467747079.37,-1.206704,-0.537446,0.046947,-0.045789,-1.598040,0.022093,-0.802708,0.511944,-0.305898,1.139607,-0.456752,1.265050,-7.548882,16.773146,22.922958,,,,,,
1467747079.38,-1.221411,-0.537829,0.046526,-0.045541,-1.397365,0.022964,-0.806936,0.512273,-0.293993,1.133458,-0.462056,1.249727,-6.723669,16.753983,23.192293,,,,,,
1467747079.39,-1.233531,-0.538137,0.046200,-0.034540,-1.122352,0.016992,-0.810291,0.512537,-0.284139,1.157031,-0.469538,1.256154,-6.723669,16.753983,23.192293,,,,,,
1467747079.40,-1.242841,-0.538404,0.045898,-0.033134,-0.848411,0.016340,-0.812771,0.512766,-0.276539,1.145916,-0.473460,1.230244,-6.723669,16.753983,23.192293,,,,,,
1467747079.41,-1.249297,-0.538573,0.045704,-0.016781,-0.554282,0.008125,-0.814457,0.512912,-0.271259,1.144749,-0.473666,1.242694,-6.100708,16.737173,23.375937,,,,,,
1467747079.42,-1.251971,-0.538631,0.045656,-0.000326,-0.169914,0.004666,-0.815151,0.512962,-0.269070,1.138012,-0.484733,1.241284,-6.100708,16.737173,23.375937,,,,,,
1467747079.43,-1.251013,-0.538583,0.045722,0.007574,0.176247,-0.003884,-0.814917,0.512920,-0.269858,1.145529,-0.472209,1.235206,-6.100708,16.737173,23.375937,,,,,,
1467747079.44,-1.246757,-0.538455,0.045894,0.021820,0.496907,-0.006945,-0.813823,0.512810,-0.273345,1.142070,-0.470635,1.228317,-6.100708,16.737173,23.375937,,,,,,
1467747079.45,-1.239348,-0.538253,0.046125,0.025412,0.805905,-0.014202,-0.811873,0.512637,-0.279401,1.166243,-0.464755,1.239683,-5.691959,16.726419,23.486477,,,,,,
1467747079.46,-1.229330,-0.538013,0.046423,0.034214,1.034185,-0.014560,-0.809150,0.512431,-0.287562,1.179740,-0.473261,1.232295,-5.691959,16.726419,23.486477,,,,,,
1467747079.47,-1.217939,-0.537736,0.046724,0.032238,1.153114,-0.017437,-0.805955,0.512193,-0.296809,1.188142,-0.473695,1.232448,-5.691959,16.726419,23.486477,,,,,,
1467747079.48,-1.205329,-0.537431,0.047073,0.037722,1.280527,-0.018230,-0.802294,0.511931,-0.307004,1.173983,-0.475691,1.246319,-6.461884,16.748812,23.270311,,,,,,
1467747079.49,-1.191261,-0.537082,0.047441,0.047482,1.418563,-0.021215,-0.798062,0.511631,-0.318326,1.180798,-0.482486,1.266584,-6.461884,16.748812,23.270311,,,,,,
1467747079.50,-1.176246,-0.536661,0.047893,0.053965,1.487589,-0.025899,-0.793391,0.511270,-0.330355,1.171305,-0.488580,1.282595,-6.461884,16.748812,23.270311,,,,,,
1467747079.51,-1.160692,-0.536188,0.048362,0.058304,1.545994,-0.029455,-0.788379,0.510863,-0.342751,1.150332,-0.492934,1.306435,-7.078210,16.764912,23.078623,,,,,,
1467747079.52,-1.144088,-0.535661,0.048880,0.062721,1.670226,-0.031294,-0.782824,0.510410,-0.355905,1.137789,-0.481357,1.323572,-7.078210,16.764912,23.078623,,,,,,
1467747079.53,-1.126427,-0.535061,0.049463,0.072399,1.741371,-0.034924,-0.776693,0.509893,-0.369806,1.158178,-0.483572,1.329233,-7.777970,16.785709,22.837015,,,,,,
1467747079.54,-1.109366,-0.534450,0.050005,0.066961,1.650059,-0.034357,-0.770550,0.509368,-0.383142,1.144878,-0.482085,1.317575,-7.777970,16.785709,22.837015,,,,,,
1467747079.55,-1.093497,-0.533846,0.050561,0.067877,1.533257,-0.032559,-0.764646,0.508848,-0.395462,1.150877,-0.479963,1.330307,-7.777970,16.785709,22.837015,,,,,,
1467747079.56,-1.078891,-0.533299,0.051065,0.062188,1.393321,-0.026305,-0.759034,0.508377,-0.406719,1.162140,-0.476029,1.323727,-9.289211,16.835783,22.227303,,,,,,
1467747079.57,-1.066678,-0.532816,0.051487,0.052272,1.126814,-0.024643,-0.754225,0.507961,-0.416077,1.176619,-0.467937,1.299363,-9.289211,16.835783,22.227303,,,,,,
1467747079.58,-1.057740,-0.532445,0.051810,0.041192,0.792334,-0.016170,-0.750640,0.507641,-0.422895,1.166183,-0.479092,1.311704,-9.289211,16.835783,22.227303,,,,,,
1467747079.59,-1.051883,-0.532180,0.052004,0.023801,0.510962,-0.013358,-0.748267,0.507413,-0.427350,1.153678,-0.470105,1.303571,-9.289211,16.835783,22.227303,,,,,,
1467747079.60,-1.048521,-0.531964,0.052169,0.022426,0.264621,-0.010750,-0.746921,0.507227,-0.429918,1.152301,-0.467523,1.311159,-10.203882,16.868868,21.796976,,,,,,
1467747079.61,-1.047837,-0.531854,0.052257,0.008225,-0.013579,-0.003697,-0.746675,0.507132,-0.430457,1.139284,-0.465353,1.325873,-10.203882,16.868868,21.796976,,,,,,
1467747079.62,-1.050210,-0.531881,0.052210,-0.007042,-0.292840,0.003361,-0.747683,0.507155,-0.428677,1.100466,-0.467009,1.323238,-10.203882,16.868868,21.796976,,,,,,
1467747079.63,-1.054088,-0.531976,0.052120,-0.013581,-0.409641,0.006216,-0.749297,0.507237,-0.425751,1.109390,-0.458028,1.342133,-10.292145,16.874718,21.750904,,,,,,
1467747079.64,-1.059301,-0.532130,0.052003,-0.015906,-0.558304,0.011404,-0.751439,0.507370,-0.421800,1.112950,-0.468872,1.343126,-10.292145,16.874718,21.750904,,,,,,
1467747079.65,-1.066441,-0.532350,0.051826,-0.026796,-0.750488,0.013663,-0.754333,0.507560,-0.416370,1.111969,-0.463752,1.325397,-10.292145,16.874718,21.750904,,,,,,
1467747079.66,-1.075288,-0.532631,0.051591,-0.033385,-0.908696,0.015713,-0.757862,0.507802,-0.409613,1.121662,-0.462453,1.321615,-9.886219,16.864838,21.945976,,,,,,
1467747079.67,-1.085398,-0.532966,0.051316,-0.036730,-1.025499,0.018571,-0.761814,0.508091,-0.401851,1.121906,-0.467502,1.328029,-9.886219,16.864838,21.945976,,,,,,
1467747079.68,-1.096284,-0.533328,0.050997,-0.043188,-1.079650,0.019969,-0.765980,0.508402,-0.393450,1.110798,-0.475870,1.337709,-9.468440,16.853094,22.138382,,,,,,
1467747079.69,-1.107411,-0.533695,0.050643,-0.041077,-1.097696,0.017955,-0.770143,0.508718,-0.384819,1.102998,-0.471212,1.333000,-9.468440,16.853094,22.138382,,,,,,
1467747079.70,-1.118401,-0.534047,0.050340,-0.039986,-1.073281,0.019932,-0.774165,0.509021,-0.376254,1.100398,-0.470080,1.330233,-9.468440,16.853094,22.138382,,,,,,
1467747079.71,-1.128760,-0.534394,0.050026,-0.038826,-0.998952,0.018402,-0.777861,0.509320,-0.368139,1.106123,-0.468868,1.324270,-8.979858,16.837770,22.352575,,,,,,
1467747079.73,-1.146751,-0.535008,0.049433,-0.036467,-0.817382,0.016202,-0.784073,0.509848,-0.353957,1.107895,-0.464590,1.307829,-8.979858,16.837770,22.352575,,,,,,
1467747079.72,-1.138212,-0.534700,0.049729,-0.034451,-0.909757,0.015718,-0.781164,0.509583,-0.360704,1.109350,-0.469742,1.318758,-8.979858,16.837770,22.352575,,,,,,
1467747079.74,-1.154193,-0.535302,0.049143,-0.034181,-0.691032,0.016476,-0.786548,0.510101,-0.348051,1.098193,-0.463928,1.304426,-8.979858,16.837770,22.352575,,,,,,
1467747079.75,-1.159596,-0.535541,0.048895,-0.027508,-0.468051,0.012955,-0.788305,0.510307,-0.343748,1.093893,-0.458167,1.307844,-8.094865,16.810181,22.708525,,,,,,
1467747079.76,-1.162740,-0.535734,0.048713,-0.020850,-0.254629,0.010559,-0.789292,0.510472,-0.341229,1.093415,-0.450993,1.303936,-8.094865,16.810181,22.708525,,,,,,
1467747079.77,-1.164060,-0.535942,0.048515,-0.023831,-0.079438,0.012650,-0.789644,0.510651,-0.340144,1.090517,-0.446030,1.288707,-8.094865,16.810181,22.708525,,,,,,
1467747079.78,-1.163482,-0.536154,0.048302,-0.025710,0.122302,0.012448,-0.789347,0.510834,-0.340557,1.093455,-0.442993,1.283184,-7.702138,16.789371,22.860012,,,,,,
1467747079.79,-1.160734,-0.536361,0.048096,-0.025441,0.337845,0.012161,-0.788312,0.511012,-0.342683,1.096295,-0.439921,1.289049,-7.702138,16.789371,22.860012,,,,,,
1467747079.80,-1.156202,-0.536592,0.047859,-0.028435,0.501358,0.013261,-0.786642,0.511210,-0.346205,1.100714,-0.433985,1.284300,-7.702138,16.789371,22.860012,,,,,,
1467747079.81,-1.150353,-0.536868,0.047559,-0.035726,0.631961,0.013499,-0.784475,0.511447,-0.350743,1.107855,-0.432239,1.280720,-7.778980,16.779884,22.840952,,,,,,
1467747079.82,-1.143298,-0.537151,0.047240,-0.036652,0.744510,0.013857,-0.781850,0.511690,-0.356208,1.122883,-0.454180,1.297218,-7.778980,16.779884,22.840952,,,,,,
1467747079.83,-1.136027,-0.537426,0.046917,-0.037729,0.729654,0.010756,-0.779112,0.511926,-0.361824,1.139799,-0.479013,1.317406,-7.778980,16.779884,22.840952,,,,,,
1467747079.84,-1.129643,-0.537681,0.046604,-0.033594,0.628783,0.010328,-0.776668,0.512146,-0.366734,1.142970,-0.518463,1.327824,-8.345511,16.753399,22.659704,,,,,,
1467747079.85,-1.123791,-0.537869,0.046343,-0.026172,0.595878,0.005219,-0.774421,0.512307,-0.371232,1.144126,-0.520593,1.330125,-8.345511,16.753399,22.659704,,,,,,
1467747079.86,-1.117926,-0.537955,0.046218,-0.009139,0.588446,0.002090,-0.772191,0.512381,-0.375748,1.145207,-0.535758,1.351196,-8.345511,16.753399,22.659704,,,,,,
1467747079.87,-1.112392,-0.537955,0.046154,-0.000674,0.539611,-0.001853,-0.770100,0.512381,-0.380016,1.140919,-0.527029,1.345760,-8.625654,16.740660,22.564009,,,,,,
1467747079.88,-1.107590,-0.537867,0.046225,0.010941,0.456793,-0.004516,-0.768307,0.512305,-0.383729,1.137753,-0.536277,1.344957,-8.625654,16.740660,22.564009,,,,,,
1467747079.89,-1.103590,-0.537740,0.046328,0.016165,0.373975,-0.006120,-0.766823,0.512197,-0.386829,1.138268,-0.513478,1.329273,-8.625654,16.740660,22.564009,,,,,,
1467747079.90,-1.100562,-0.537587,0.046481,0.018163,0.265676,-0.007568,-0.765719,0.512065,-0.389185,1.134264,-0.504481,1.325906,-9.081863,16.740597,22.384331,,,,,,
1467747079.91,-1.098740,-0.537492,0.046571,0.009489,0.147809,-0.002579,-0.765051,0.511984,-0.390601,1.129828,-0.468130,1.297949,-9.081863,16.740597,22.384331,,,,,,
1467747079.92,-1.098024,-0.537477,0.046608,0.000832,0.043745,0.002322,-0.764779,0.511970,-0.391153,1.135353,-0.463554,1.310495,-9.189637,16.746120,22.336163,,,,,,
1467747079.93,-1.098435,-0.537535,0.046548,-0.006768,-0.068811,0.006214,-0.764913,0.512020,-0.390825,1.127233,-0.460537,1.292344,-9.189637,16.746120,22.336163,,,,,,
1467747079.94,-1.100183,-0.537642,0.046479,-0.013321,-0.199410,0.007027,-0.765546,0.512112,-0.389462,1.129834,-0.483517,1.303860,-9.189637,16.746120,22.336163,,,,,,
1467747079.95,-1.102590,-0.537738,0.046390,-0.009110,-0.242937,0.004110,-0.766437,0.512195,-0.387596,1.134906,-0.486881,1.334160,-9.189637,16.746120,22.336163,,,,,,
1467747079.96,-1.105440,-0.537809,0.046367,-0.005988,-0.299217,0.005531,-0.767506,0.512256,-0.385394,1.122487,-0.513125,1.332354,-9.103175,16.741882,22.374710,,,,,,
1467747079.97,-1.109005,-0.537896,0.046318,-0.006074,-0.366113,0.007015,-0.768835,0.512330,-0.382636,1.107153,-0.483125,1.289526,-9.103175,16.741882,22.374710,,,,,,
1467747079.98,-1.112609,-0.537940,0.046285,-0.010296,-0.344861,0.001555,-0.770189,0.512368,-0.379852,1.119005,-0.487237,1.337402,-8.958374,16.740089,22.434418,,,,,,
1467747079.99,-1.115669,-0.538028,0.046237,-0.006000,-0.298173,0.011911,-0.771307,0.512444,-0.377474,1.099951,-0.471214,1.319155,-8.958374,16.740089,22.434418,,,,,,
1467747080.00,-1.118980,-0.538159,0.046103,-0.020944,-0.330016,0.011031,-0.772493,0.512556,-0.374888,1.101289,-0.444563,1.296962,-8.958374,16.740089,22.434418,,,,,,
1467747080.01,-1.122059,-0.538323,0.045986,-0.013438,-0.286489,0.011830,-0.773568,0.512696,-0.372472,1.103844,-0.471833,1.320210,-8.808125,16.738159,22.495268,,,,,,
1467747080.02,-1.124192,-0.538427,0.045851,-0.014357,-0.180291,0.004777,-0.774312,0.512786,-0.370798,1.115224,-0.473189,1.333902,-8.808125,16.738159,22.495268,,,,,,
1467747080.03,-1.125765,-0.538505,0.045772,-0.011119,-0.150553,0.001400,-0.774859,0.512853,-0.369562,1.098619,-0.480703,1.314524,-8.808125,16.738159,22.495268,,,,,,
1467747080.04,-1.127091,-0.538558,0.045720,-0.007877,-0.117630,-0.001997,-0.775323,0.512898,-0.368523,1.113565,-0.498204,1.342003,-8.581631,16.727594,22.590471,,,,,,
1467747080.05,-1.127772,-0.538614,0.045691,-0.000347,-0.049690,0.001843,-0.775548,0.512947,-0.367982,1.095433,-0.489159,1.293962,-8.581631,16.727594,22.590471,,,,,,
1467747080.06,-1.127734,-0.538621,0.045657,-0.006633,0.026772,-0.001837,-0.775531,0.512953,-0.368010,1.113177,-0.477873,1.332198,-8.581631,16.727594,22.590471,,,,,,
1467747080.07,-1.127198,-0.538630,0.045653,0.000852,0.055431,0.000120,-0.775329,0.512961,-0.368424,1.097534,-0.478827,1.313736,-8.536041,16.725718,22.609125,,,,,,
1467747080.08,-1.126470,-0.538610,0.045660,0.000892,0.081985,-0.003240,-0.775070,0.512943,-0.368992,1.114731,-0.499088,1.337422,-8.536041,16.725718,22.609125,,,,,,
1467747080.09,-1.125359,-0.538593,0.045710,0.008382,0.114891,-0.001310,-0.774667,0.512929,-0.369857,1.098673,-0.493031,1.303817,-8.536041,16.725718,22.609125,,,,,,
1467747080.10,-1.123927,-0.538519,0.045764,0.007369,0.151001,-0.004731,-0.774171,0.512865,-0.370982,1.119905,-0.482363,1.322810,-8.536041,16.725718,22.609125,,,,,,
1467747080.11,-1.122263,-0.538440,0.045856,0.012698,0.160546,-0.001592,-0.773590,0.512797,-0.372288,1.111450,-0.481425,1.313755,-8.590567,16.726145,22.588144,,,,,,
1467747080.12,-1.120446,-0.538358,0.045865,-0.001101,0.189231,-0.004979,-0.772950,0.512727,-0.373711,1.128220,-0.456666,1.327416,-8.590567,16.726145,22.588144,,,,,,
1467747080.13,-1.118620,-0.538374,0.045880,0.002054,0.171155,0.003653,-0.772259,0.512740,-0.375118,1.106747,-0.467925,1.299053,-8.660158,16.729469,22.559092,,,,,,
1467747080.14,-1.189058,-0.581445,0.007607,-0.006603,0.144300,-0.001479,-0.775517,0.549232,-0.311316,1.128346,-0.506049,1.235510,-8.660158,16.729469,22.559092,,,,,,
1467747080.15,-1.262782,-0.616807,-0.034701,0.002852,0.123808,-0.003448,-0.777339,0.578433,-0.247302,1.123668,-0.572116,1.190021,-8.660158,16.729469,22.559092,,,,,,
1467747080.16,-1.337071,-0.649778,-0.079368,0.001671,0.111826,-0.005478,-0.774569,0.605010,-0.184407,1.135211,-0.587127,1.138996,-5.620166,14.901642,24.701031,,,,,,
1467747080.17,-1.413848,-0.677508,-0.126940,0.003587,0.023395,-0.003836,-0.769561,0.626853,-0.121783,1.106719,-0.618156,1.042223,-5.620166,14.901642,24.701031,,,,,,
1467747080.18,-1.491222,-0.702433,-0.176094,0.005557,-0.021496,-0.001402,-0.760857,0.646077,-0.060673,1.119134,-0.632420,1.000675,-5.620166,14.901642,24.701031,,,,,,
1467747080.19,-1.569427,-0.723345,-0.226951,0.002239,-0.046190,-0.002294,-0.749595,0.661896,-0.001026,1.097572,-0.641358,0.933918,-2.600616,12.888946,26.284937,,,,,,
1467747080.20,-1.647294,-0.740992,-0.278574,0.008501,-0.067705,0.001062,-0.735642,0.675020,0.056385,1.091797,-0.646303,0.888226,-2.600616,12.888946,26.284937,,,,,,
1467747080.21,-1.724998,-0.754042,-0.330664,0.003032,-0.115733,-0.000752,-0.720279,0.684590,0.111957,1.066806,-0.661183,0.821515,-2.600616,12.888946,26.284937,,,,,,
1467747080.22,-1.801384,-0.763689,-0.382353,0.007186,-0.125545,0.002526,-0.703172,0.691591,0.165079,1.052842,-0.663698,0.776709,3.036316,8.678885,27.914940,,,,,,
1467747080.23,-1.875727,-0.769980,-0.433099,0.001803,-0.113023,-0.001798,-0.684805,0.696121,0.215541,1.030890,-0.662216,0.728872,3.036316,8.678885,27.914940,,,,,,
1467747080.24,-1.947464,-0.772561,-0.482360,0.005992,-0.100514,0.001338,-0.665922,0.697972,0.263408,1.006422,-0.668126,0.683095,3.036316,8.678885,27.914940,,,,,,
1467747080.25,-2.016343,-0.773377,-0.529756,0.002721,-0.099665,0.001347,-0.645700,0.698555,0.308370,0.985559,-0.654885,0.630824,3.036316,8.678885,27.914940,,,,,,
1467747080.26,-2.081943,-0.770560,-0.574893,0.004804,-0.079690,0.000174,-0.625810,0.696537,0.350995,0.961732,-0.669194,0.589358,7.738759,4.655482,27.968269,,,,,,
1467747080.27,-2.143809,-0.766208,-0.617576,0.004809,-0.025720,-0.004407,-0.605453,0.693408,0.390655,0.944961,-0.660571,0.550141,7.738759,4.655482,27.968269,,,,,,
1467747080.28,-2.201740,-0.758645,-0.657435,0.006882,-0.016347,-0.004450,-0.586037,0.687939,0.428136,0.919137,-0.671642,0.529154,9.674029,2.813885,27.609444,,,,,,
1467747080.29,-2.256595,-0.751119,-0.694895,0.003626,-0.011216,-0.003407,-0.565673,0.682457,0.462889,0.900756,-0.649163,0.477571,9.674029,2.813885,27.609444,,,,,,
1467747080.30,-2.307913,-0.742057,-0.729729,0.007859,0.014106,-0.006742,-0.545741,0.675806,0.495432,0.879069,-0.648676,0.446248,9.674029,2.813885,27.609444,,,,,,
1467747080.31,-2.355775,-0.732156,-0.762115,0.009969,0.051101,-0.004829,-0.526120,0.668475,0.525679,0.867765,-0.642977,0.431871,11.344888,1.110379,27.089603,,,,,,
1467747080.33,-2.443183,-0.711738,-0.820424,0.009842,0.047604,-0.002652,-0.486898,0.653151,0.579935,0.828573,-0.619734,0.360831,11.344888,1.110379,27.089603,,,,,,
1467747080.32,-2.400749,-0.722189,-0.792296,0.009903,0.049877,-0.002680,-0.506426,0.661029,0.553691,0.840273,-0.625445,0.378789,11.344888,1.110379,27.089603,,,,,,
1467747080.34,-2.482740,-0.700257,-0.846346,0.012997,0.057023,-0.004825,-0.468143,0.644414,0.604626,0.810260,-0.621037,0.348606,14.045517,-1.859740,25.749775,,,,,,
1467747080.35,-2.519863,-0.688610,-0.870417,0.018277,0.066439,-0.004866,-0.449721,0.635464,0.627643,0.798796,-0.615017,0.329083,14.045517,-1.859740,25.749775,,,,,,
1467747080.36,-2.554954,-0.676925,-0.892746,0.017132,0.040831,-0.006823,-0.431505,0.626399,0.649175,0.776415,-0.602885,0.298305,14.045517,-1.859740,25.749775,,,,,,
1467747080.37,-2.588346,-0.665355,-0.913565,0.018118,0.022647,-0.004567,-0.413372,0.617338,0.669341,0.758938,-0.591642,0.270448,15.133649,-3.152284,24.996437,,,,,,
1467747080.38,-2.620059,-0.654126,-0.933015,0.017000,0.018280,-0.005593,-0.395370,0.608466,0.688078,0.741653,-0.575156,0.246950,15.133649,-3.152284,24.996437,,,,,,
1467747080.39,-2.650080,-0.642853,-0.951111,0.013740,0.004359,-0.005497,-0.377751,0.599481,0.705639,0.725484,-0.565897,0.233158,15.133649,-3.152284,24.996437,,,,,,
1467747080.40,-2.678755,-0.631544,-0.967987,0.014724,-0.022300,-0.005317,-0.360369,0.590392,0.722199,0.711291,-0.559615,0.217788,16.951859,-5.382782,23.397570,,,,,,
1467747080.42,-2.731794,-0.608683,-0.998122,0.014598,-0.055421,-0.008280,-0.326868,0.571787,0.752474,0.673380,-0.542704,0.189665,16.951859,-5.382782,23.397570,,,,,,
1467747080.41,-2.705971,-0.620060,-0.983626,0.014657,-0.040457,-0.006256,-0.343421,0.581084,0.737837,0.693320,-0.555159,0.203432,16.951859,-5.382782,23.397570,,,,,,
1467747080.43,-2.756509,-0.597482,-1.011642,0.015586,-0.076767,-0.004941,-0.310559,0.562562,0.766209,0.656186,-0.532991,0.172771,17.717417,-6.351636,22.572903,,,,,,
1467747080.44,-2.780037,-0.586438,-1.024210,0.015536,-0.083235,-0.004889,-0.294628,0.553398,0.779067,0.641918,-0.522331,0.167955,17.717417,-6.351636,22.572903,,,,,,
1467747080.45,-2.802271,-0.575567,-1.035907,0.019768,-0.071650,-0.004947,-0.279221,0.544310,0.791051,0.624359,-0.512831,0.152552,17.717417,-6.351636,22.572903,,,,,,
1467747080.46,-2.823085,-0.564653,-1.046708,0.019754,-0.053682,-0.007178,-0.264541,0.535123,0.802285,0.609039,-0.507962,0.149756,19.005329,-8.030200,20.930824,,,,,,
1467747080.47,-2.842710,-0.553856,-1.056722,0.021845,-0.052706,-0.007172,-0.250433,0.525971,0.812797,0.588125,-0.499192,0.134316,19.005329,-8.030200,20.930824,,,,,,
1467747080.48,-2.861451,-0.543451,-1.066162,0.020767,-0.035794,-0.009397,-0.236658,0.517093,0.822562,0.575937,-0.487201,0.118661,19.005329,-8.030200,20.930824,,,,,,
1467747080.49,-2.879134,-0.533401,-1.074992,0.025011,-0.017825,-0.009496,-0.223413,0.508465,0.831595,0.559076,-0.474300,0.104852,19.524137,-8.757446,20.146990,,,,,,
1467747080.50,-2.896011,-0.523995,-1.083362,0.019675,0.001211,-0.009611,-0.210500,0.500343,0.839849,0.546773,-0.453606,0.091395,19.524137,-8.757446,20.146990,,,,,,
1467747080.51,-2.911877,-0.514193,-1.091097,0.023894,-0.002051,-0.009576,-0.198257,0.491833,0.847818,0.539611,-0.461666,0.108039,19.524137,-8.757446,20.146990,,,,,,
1467747080.53,-2.941408,-0.495017,-1.105139,0.032371,0.019045,-0.011809,-0.174981,0.475047,0.862388,0.518242,-0.456675,0.095742,20.356544,-10.014417,18.684452,,,,,,
1467747080.52,-2.927120,-0.504656,-1.098391,0.028128,0.006369,-0.009615,-0.186301,0.483507,0.855286,0.534705,-0.455598,0.105988,20.356544,-10.014417,18.684452,,,,,,
1467747080.54,-2.968512,-0.476739,-1.117763,0.036585,0.036959,-0.011899,-0.153015,0.458884,0.875221,0.492889,-0.430594,0.061043,20.356544,-10.014417,18.684452,,,,,,
1467747080.55,-2.981029,-0.468104,-1.123453,0.039746,0.034773,-0.012937,-0.142676,0.451195,0.880946,0.486655,-0.429864,0.062062,20.692160,-10.568724,17.997854,,,,,,
1467747080.56,-2.993125,-0.459550,-1.128791,0.042924,0.029034,-0.016066,-0.132576,0.443545,0.886393,0.479988,-0.428179,0.063955,20.692160,-10.568724,17.997854,,,,,,
1467747080.57,-3.004745,-0.451149,-1.133800,0.049281,0.024733,-0.018153,-0.122771,0.436000,0.891533,0.473708,-0.424373,0.069191,21.115545,-11.316360,17.025269,,,,,,
1467747080.58,-3.016131,-0.443326,-1.138526,0.049228,0.002386,-0.020133,-0.113036,0.428947,0.896230,0.458510,-0.403922,0.056407,21.115545,-11.316360,17.025269,,,,,,
1467747080.59,-3.027935,-0.436363,-1.143146,0.049120,-0.060319,-0.018668,-0.102786,0.422646,0.900447,0.444827,-0.376366,0.025227,21.115545,-11.316360,17.025269,,,,,,
1467747080.60,-3.039850,-0.430106,-1.147646,0.038412,-0.080558,-0.013222,-0.092316,0.416967,0.904221,0.431885,-0.348318,0.012084,21.115545,-11.316360,17.025269,,,,,,
1467747080.61,-3.051296,-0.424610,-1.152009,0.029900,-0.051948,-0.010209,-0.082166,0.411965,0.907487,0.414075,-0.319741,-0.010255,21.589350,-12.154607,15.809858,,,,,,
1467747080.62,-3.051544,-0.424823,-1.151915,0.020346,-0.022224,-0.006147,-0.081934,0.412159,0.907420,0.420816,-0.337544,0.005437,21.589350,-12.154607,15.809858,,,,,,
1467747080.63,-3.051578,-0.425000,-1.151846,0.018241,-0.000990,-0.005218,-0.081896,0.412321,0.907350,0.428896,-0.365553,0.034895,21.589350,-12.154607,15.809858,,,,,,
1467747080.64,-3.051386,-0.425160,-1.151754,0.016142,0.021312,-0.006425,-0.082065,0.412466,0.907269,0.426791,-0.367743,0.018879,21.817209,-12.488151,15.226341,,,,,,
1467747080.65,-3.051063,-0.425347,-1.151670,0.020410,0.028742,-0.006467,-0.082350,0.412637,0.907165,0.432326,-0.379693,0.038147,21.817209,-12.488151,15.226341,,,,,,
1467747080.66,-3.050755,-0.425558,-1.151543,0.021477,0.025565,-0.009639,-0.082622,0.412829,0.907053,0.431331,-0.386004,0.033697,21.817209,-12.488151,15.226341,,,,,,
1467747080.67,-3.050535,-0.425783,-1.151397,0.023594,0.013887,-0.010628,-0.082813,0.413034,0.906943,0.429234,-0.370904,0.025644,21.812078,-12.479858,15.240486,,,,,,
1467747080.68,-3.050430,-0.425981,-1.151260,0.020385,0.002209,-0.010558,-0.082901,0.413215,0.906852,0.430618,-0.371558,0.029335,21.812078,-12.479858,15.240486,,,,,,
1467747080.69,-3.050492,-0.426166,-1.151156,0.021419,-0.019033,-0.008295,-0.082838,0.413383,0.906781,0.432295,-0.380882,0.036395,21.812078,-12.479858,15.240486,,,,,,
1467747080.70,-3.050830,-0.426382,-1.151038,0.021386,-0.045578,-0.008129,-0.082523,0.413580,0.906720,0.426563,-0.374792,0.034198,21.811495,-12.458213,15.259022,,,,,,
1467747080.71,-3.051559,-0.426598,-1.150929,0.024529,-0.090170,-0.009975,-0.081854,0.413776,0.906691,0.433813,-0.408833,0.063829,21.811495,-12.458213,15.259022,,,,,,
1467747080.72,-3.052603,-0.426912,-1.150772,0.034091,-0.113522,-0.014077,-0.080895,0.414062,0.906647,0.431314,-0.399627,0.062912,21.811495,-12.458213,15.259022,,,,,,
1467747080.73,-3.053469,-0.427245,-1.150594,0.037316,-0.086982,-0.013175,-0.080099,0.414365,0.906579,0.422353,-0.392530,0.043967,21.831276,-12.447738,15.239268,,,,,,
1467747080.74,-3.054065,-0.427678,-1.150383,0.044807,-0.061493,-0.016521,-0.079542,0.414759,0.906448,0.425429,-0.386958,0.050980,21.831276,-12.447738,15.239268,,,,,,
1467747080.75,-3.054359,-0.428158,-1.150147,0.052297,-0.033887,-0.017751,-0.079258,0.415195,0.906273,0.417912,-0.392231,0.047432,21.831276,-12.447738,15.239268,,,,,,
1467747080.76,-3.054546,-0.428673,-1.149895,0.052308,-0.027514,-0.018856,-0.079071,0.415665,0.906074,0.422470,-0.377960,0.040566,21.885908,-12.410666,15.191067,,,,,,
1467747080.77,-3.054469,-0.429243,-1.149637,0.059802,0.008578,-0.016946,-0.079119,0.416182,0.905832,0.422503,-0.383925,0.052450,21.885908,-12.410666,15.191067,,,,,,
1467747080.78,-3.053883,-0.429798,-1.149329,0.057733,0.053181,-0.019356,-0.079630,0.416687,0.905556,0.417932,-0.375290,0.047081,21.885908,-12.410666,15.191067,,,,,,
1467747080.79,-3.053258,-0.430342,-1.149027,0.056663,0.045755,-0.021440,-0.080177,0.417182,0.905279,0.423560,-0.369590,0.039377,21.895363,-12.385577,15.197917,,,,,,
1467747080.80,-3.052793,-0.430864,-1.148769,0.051322,0.034074,-0.020307,-0.080578,0.417656,0.905025,0.424846,-0.361229,0.027241,21.895363,-12.385577,15.197917,,,,,,
1467747080.81,-3.065031,-0.422482,-1.153787,0.050196,0.025500,-0.013855,-0.069762,0.410025,0.909402,0.414840,-0.358970,0.026328,21.895363,-12.385577,15.197917,,,,,,
1467747080.82,-3.076724,-0.414410,-1.158517,0.047015,0.055189,-0.020419,-0.059336,0.402650,0.913429,0.419932,-0.350938,0.047203,21.988472,-12.562211,14.915899,,,,,,
1467747080.83,-3.087560,-0.406263,-1.162961,0.057667,0.084861,-0.022710,-0.049610,0.395180,0.917263,0.413746,-0.358772,0.040409,21.988472,-12.562211,14.915899,,,,,,
1467747080.84,-3.097447,-0.397893,-1.166948,0.060835,0.090119,-0.024857,-0.040684,0.387477,0.920981,0.398762,-0.366770,0.042886,22.170033,-12.968204,14.286406,,,,,,
1467747080.85,-3.107681,-0.390067,-1.170870,0.063906,0.030583,-0.018081,-0.031358,0.380251,0.924352,0.395769,-0.355394,0.029445,22.170033,-12.968204,14.286406,,,,,,
1467747080.86,-3.117341,-0.382459,-1.174454,0.069247,0.063459,-0.023593,-0.022498,0.373203,0.927477,0.396643,-0.349368,0.059843,22.170033,-12.968204,14.286406,,,,,,
1467747080.87,-3.126296,-0.375669,-1.177932,0.072466,0.114362,-0.020704,-0.014230,0.366895,0.930153,0.381509,-0.326566,0.021842,22.170033,-12.968204,14.286406,,,,,,
1467747080.88,-3.123720,-0.376407,-1.177619,0.077003,0.322496,-0.030521,-0.016621,0.367581,0.929843,0.468678,-0.312146,0.143705,22.452723,-13.679148,13.135536,,,,,,
1467747080.89,-3.116545,-0.377312,-1.177176,0.096824,0.833234,-0.041155,-0.023283,0.368423,0.929367,0.480040,-0.307556,0.168869,22.452723,-13.679148,13.135536,,,,,,
1467747080.90,-3.105598,-0.378322,-1.176643,0.102514,1.119927,-0.046141,-0.033442,0.369362,0.928684,0.460398,-0.303566,0.070965,22.452723,-13.679148,13.135536,,,,,,
1467747080.92,-3.086385,-0.380145,-1.175605,0.083940,0.747235,-0.040629,-0.051241,0.371055,0.927196,0.405611,-0.313590,-0.073314,22.336334,-13.642183,13.370308,,,,,,
1467747080.91,-3.094780,-0.379289,-1.176101,0.097064,1.019059,-0.045514,-0.043469,0.370261,0.927910,0.431561,-0.311179,-0.026986,22.336334,-13.642183,13.370308,,,,,,
1467747080.93,-3.081428,-0.380864,-1.175191,0.069630,0.384088,-0.031979,-0.055820,0.371723,0.926664,0.394366,-0.309574,-0.091734,22.336334,-13.642183,13.370308,,,,,,
1467747080.94,-3.080423,-0.381363,-1.174851,0.044641,-0.010896,-0.027398,-0.056740,0.372186,0.926422,0.386147,-0.298867,-0.096451,21.885654,-13.554830,14.179947,,,,,,
1467747080.95,-3.083788,-0.381683,-1.174654,0.029142,-0.465372,-0.012854,-0.053615,0.372483,0.926489,0.332057,-0.315247,-0.123862,21.885654,-13.554830,14.179947,,,,,,
1467747080.96,-3.092859,-0.381765,-1.174621,0.001747,-1.067430,0.001539,-0.045207,0.372559,0.926907,0.262050,-0.305542,-0.183300,21.885654,-13.554830,14.179947,,,,,,
1467747080.97,-3.108081,-0.381619,-1.174989,-0.022422,-1.612208,0.035801,-0.031095,0.372424,0.927542,0.289716,-0.290301,-0.122869,21.927986,-13.532993,14.135334,,,,,,
1467747080.98,-3.121400,-0.381411,-1.175012,-0.015393,-1.157663,-0.002170,-0.018741,0.372230,0.927951,0.403277,-0.284019,0.180661,21.927986,-13.532993,14.135334,,,,,,
1467747080.99,-3.130311,-0.381379,-1.175206,-0.003382,-0.875306,0.023747,-0.010471,0.372201,0.928093,0.252689,-0.276239,-0.070320,21.927986,-13.532993,14.135334,,,,,,
1467747081.00,-3.140116,-0.381185,-1.175275,-0.024766,-0.982476,0.002044,-0.001371,0.372021,0.928223,0.333127,-0.281262,0.035034,22.552061,-13.548517,13.100700,,,,,,
1467747081.01,3.134585,-0.380917,-1.175476,-0.026688,-0.786094,0.019971,0.006505,0.371772,0.928301,0.234080,-0.263069,-0.046923,22.552061,-13.548517,13.100700,,,,,,
1467747081.02,3.128258,-0.380646,-1.175574,-0.028535,-0.581130,0.005910,0.012380,0.371521,0.928342,0.294063,-0.266510,0.033618,22.552061,-13.548517,13.100700,,,,,,
1467747081.03,3.123062,-0.380289,-1.175787,-0.035922,-0.501538,0.022435,0.017206,0.371189,0.928398,0.247854,-0.266926,-0.043709,22.783163,-13.560131,12.682129,,,,,,
1467747081.04,3.118828,-0.379858,-1.175968,-0.045330,-0.367737,0.018393,0.021140,0.370789,0.928477,0.291345,-0.261856,-0.022867,22.783163,-13.560131,12.682129,,,,,,
1467747081.05,3.117350,-0.379365,-1.176178,-0.050291,-0.059844,0.028166,0.022517,0.370331,0.928627,0.295187,-0.236557,-0.012260,22.783163,-13.560131,12.682129,,,,,,
1467747081.06,3.119949,-0.378847,-1.176349,-0.051832,0.395694,0.016792,0.020107,0.369849,0.928874,0.371311,-0.240699,0.080449,22.985785,-13.594843,12.272736,,,,,,
1467747081.07,3.128942,-0.378321,-1.176531,-0.053082,1.098605,0.013447,0.011756,0.369361,0.929212,0.406763,-0.198844,0.095370,22.985785,-13.594843,12.272736,,,,,,
1467747081.08,-3.137253,-0.377845,-1.176627,-0.046764,1.889648,0.007427,-0.004034,0.368918,0.929453,0.425588,-0.194526,0.138265,22.985785,-13.594843,12.272736,,,,,,
1467747081.09,-3.114510,-0.377192,-1.176720,-0.070652,2.375954,0.008611,-0.025175,0.368311,0.929362,0.406401,-0.170908,0.009512,22.835697,-13.615672,12.527187,,,,,,
1467747081.11,-3.058554,-0.375201,-1.176865,-0.115528,3.082105,-0.006507,-0.077173,0.366460,0.927228,0.510553,-0.182469,0.041339,22.835697,-13.615672,12.527187,,,,,,
1467747081.10,-3.088380,-0.376320,-1.176812,-0.096855,2.699829,0.002296,-0.049466,0.367501,0.928707,0.469785,-0.165444,-0.000148,22.835697,-13.615672,12.527187,,,,,,
1467747081.12,-3.024740,-0.373902,-1.176885,-0.134201,3.474982,-0.008989,-0.108532,0.365250,0.924561,0.571697,-0.209672,0.080246,21.531860,-13.662629,14.611560,,,,,,
1467747081.13,-2.987613,-0.372809,-1.176866,-0.083715,3.794617,-0.032232,-0.142837,0.364233,0.920289,0.850112,-0.390662,0.622665,21.531860,-13.662629,14.611560,,,,,,
1467747081.14,-2.948599,-0.372054,-1.176306,-0.092094,3.864771,-0.058228,-0.178675,0.363530,0.914287,0.680659,-0.573735,0.127949,21.531860,-13.662629,14.611560,,,,,,
1467747081.15,-2.913316,-0.371428,-1.175779,-0.007584,3.332762,-0.053742,-0.210868,0.362946,0.907637,0.592933,-0.383774,-0.117995,20.447001,-13.693171,16.068707,,,,,,
1467747081.16,-2.886781,-0.371218,-1.175244,-0.038559,2.397344,-0.053229,-0.234895,0.362750,0.901796,0.640473,-0.597217,0.209761,20.447001,-13.693171,16.068707,,,,,,
1467747081.17,-2.867779,-0.370900,-1.174720,0.018130,1.742204,-0.056515,-0.252018,0.362454,0.897281,0.556324,-0.458768,-0.053379,20.447001,-13.693171,16.068707,,,,,,
1467747081.18,-2.855248,-0.371517,-1.174071,0.068345,1.041371,-0.045683,-0.263178,0.363029,0.893838,0.608668,-0.712013,0.377066,18.427137,-13.672097,18.365742,,,,,,
1467747081.19,-2.848645,-0.371887,-1.173255,0.074121,0.524320,-0.060530,-0.269035,0.363374,0.891952,0.503456,-0.390352,-0.118408,18.427137,-13.672097,18.365742,,,,,,
1467747081.20,-2.848231,-0.372813,-1.172473,0.095520,-0.223232,-0.044111,-0.269308,0.364236,0.891519,0.463262,-0.484033,-0.038445,18.427137,-13.672097,18.365742,,,,,,
1467747081.21,-2.862053,-0.373348,-1.172129,0.062543,-1.849980,-0.004137,-0.256906,0.364735,0.894968,0.335611,-0.475636,-0.333933,18.096285,-13.628544,18.723604,,,,,,
1467747081.22,-2.895181,-0.373640,-1.172305,0.003643,-3.781434,0.031336,-0.227096,0.365007,0.902883,0.295898,-0.395448,-0.389989,18.096285,-13.628544,18.723604,,,,,,
1467747081.23,-2.945324,-0.373479,-1.172977,-0.031385,-5.352956,0.066703,-0.181568,0.364857,0.913188,0.248661,-0.384099,-0.274730,18.096285,-13.628544,18.723604,,,,,,
1467747081.24,-3.007759,-0.372946,-1.174143,-0.087116,-6.426525,0.114894,-0.124262,0.364360,0.922930,0.226618,-0.286891,-0.216128,19.820066,-13.602416,16.909325,,,,,,
1467747081.25,-3.072312,-0.372153,-1.175090,-0.085757,-6.276665,0.060733,-0.064486,0.363622,0.929312,0.520373,-0.278615,0.284876,19.820066,-13.602416,16.909325,,,,,,
1467747081.26,-3.129161,-0.371263,-1.175752,-0.088008,-5.516427,0.061285,-0.011584,0.362792,0.931798,0.371371,-0.210906,0.196040,19.820066,-13.602416,16.909325,,,,,,
1467747081.27,3.098466,-0.370208,-1.176442,-0.122162,-5.576941,0.064824,0.040193,0.361809,0.931385,0.312621,-0.173729,0.046077,21.765497,-13.664011,14.259874,,,,,,
1467747081.28,3.042528,-0.368518,-1.177156,-0.171092,-5.506894,0.084561,0.092262,0.360233,0.928289,0.207680,-0.130939,-0.027516,21.765497,-13.664011,14.259874,,,,,,
1467747081.29,2.991012,-0.366590,-1.177921,-0.185388,-4.993021,0.098355,0.140044,0.358434,0.922991,0.181199,-0.133626,0.030180,21.765497,-13.664011,14.259874,,,,,,
1467747081.30,2.944225,-0.364381,-1.178711,-0.212540,-4.542850,0.112536,0.183215,0.356371,0.916205,0.149381,-0.143984,0.005654,24.294912,-13.794476,9.124465,,,,,,
1467747081.31,2.902296,-0.362014,-1.179432,-0.216165,-4.018350,0.120951,0.221657,0.354159,0.908537,0.111671,-0.171145,0.019075,24.294912,-13.794476,9.124465,,,,,,
1467747081.32,2.867350,-0.359766,-1.180140,-0.192888,-3.280420,0.120604,0.253480,0.352055,0.901002,0.093901,-0.251744,0.134596,24.294912,-13.794476,9.124465,,,,,,
1467747081.33,2.839942,-0.357792,-1.180708,-0.166384,-2.539265,0.105338,0.278282,0.350207,0.894379,0.069923,-0.317370,0.128646,24.970078,-13.884274,6.892622,,,,,,
1467747081.34,2.819400,-0.356335,-1.181174,-0.114397,-1.873479,0.078861,0.296756,0.348842,0.888957,0.077222,-0.396083,0.171940,24.970078,-13.884274,6.892622,,,,,,
1467747081.35,2.806652,-0.355487,-1.181340,-0.061099,-1.043059,0.031128,0.308161,0.348047,0.885381,0.124807,-0.456171,0.176478,24.970078,-13.884274,6.892622,,,,,,
1467747081.36,2.804465,-0.355244,-1.181345,-0.009597,0.081432,-0.000355,0.310125,0.347819,0.884785,0.104701,-0.388759,0.124096,25.457750,-14.006769,4.415829,,,,,,
1467747081.37,2.815527,-0.355866,-1.181120,0.072067,1.451243,-0.054636,0.300249,0.348402,0.887956,0.165190,-0.463835,0.195753,25.457750,-14.006769,4.415829,,,,,,
1467747081.38,2.840401,-0.357112,-1.180699,0.121716,2.797649,-0.086449,0.277943,0.349570,0.894734,0.189495,-0.357932,0.090938,25.457750,-14.006769,4.415829,,,,,,
1467747081.39,2.876650,-0.359153,-1.180021,0.185909,3.842519,-0.124871,0.245146,0.351481,0.903529,0.274568,-0.409693,0.194524,25.422358,-13.997344,4.643733,,,,,,
1467747081.40,2.922306,-0.361448,-1.179128,0.214750,4.755673,-0.136956,0.203478,0.353629,0.912986,0.253813,-0.321082,0.099908,25.422358,-13.997344,4.643733,,,,,,
1467747081.41,2.974902,-0.364101,-1.178077,0.245299,5.329055,-0.149037,0.155043,0.356109,0.921492,0.289614,-0.309784,0.121690,25.422358,-13.997344,4.643733,,,,,,
1467747081.42,3.028855,-0.366692,-1.176923,0.238883,5.317361,-0.142584,0.105020,0.358529,0.927592,0.308752,-0.300134,0.103917,24.430567,-13.829264,8.699709,,,,,,
1467747081.43,3.079774,-0.368960,-1.175792,0.206431,4.946746,-0.117938,0.057621,0.360646,0.930921,0.341228,-0.251515,-0.016340,24.430567,-13.829264,8.699709,,,,,,
1467747081.44,3.127528,-0.370912,-1.174728,0.192245,4.688705,-0.105690,0.013108,0.362466,0.931905,0.331085,-0.252862,-0.042852,24.430567,-13.829264,8.699709,,,,,,
1467747081.45,-3.110333,-0.372638,-1.173677,0.160999,4.414741,-0.091229,-0.029109,0.364073,0.930915,0.382366,-0.265731,0.027566,23.428316,-13.719406,11.255129,,,,,,
1467747081.46,-3.068229,-0.374031,-1.172737,0.142481,4.100424,-0.077567,-0.068230,0.365370,0.928358,0.399087,-0.240370,-0.040510,23.428316,-13.719406,11.255129,,,,,,
1467747081.47,-3.029910,-0.375287,-1.171812,0.127023,3.667205,-0.070608,-0.103694,0.366540,0.924606,0.488337,-0.316705,-0.010742,23.428316,-13.719406,11.255129,,,,,,
1467747081.48,-2.998052,-0.376212,-1.171086,0.091003,2.987625,-0.050415,-0.133044,0.367400,0.920498,0.418216,-0.282256,-0.076824,21.196161,-13.554750,15.191368,,,,,,
1467747081.49,-2.973606,-0.376865,-1.170593,0.066585,2.217792,-0.031774,-0.155464,0.368008,0.916734,0.416633,-0.298580,-0.108049,21.196161,-13.554750,15.191368,,,,,,
1467747081.50,-2.958666,-0.377261,-1.170389,0.031238,1.240881,-0.000135,-0.169115,0.368375,0.914166,0.449603,-0.337675,-0.133008,21.196161,-13.554750,15.191368,,,,,,
1467747081.51,-2.950054,-0.377389,-1.170294,0.013678,0.807700,-0.007016,-0.176973,0.368495,0.912629,0.510943,-0.325602,-0.040727,20.326580,-13.508826,16.374609,,,,,,
1467747081.52,-2.940871,-0.377567,-1.170079,0.024501,0.940432,-0.012095,-0.185334,0.368660,0.910901,0.521485,-0.328086,0.088168,20.326580,-13.508826,16.374609,,,,,,
1467747081.53,-2.933149,-0.377855,-1.169893,0.028428,0.670741,-0.013594,-0.192340,0.368928,0.909339,0.500201,-0.358811,0.054467,20.326580,-13.508826,16.374609,,,,,,
1467747081.54,-2.929485,-0.377916,-1.169827,0.002366,0.275746,-0.004756,-0.195666,0.368984,0.908606,0.505709,-0.310818,0.003946,19.657896,-13.481399,17.193171,,,,,,
1467747081.55,-2.929064,-0.377995,-1.169814,0.009410,-0.043872,0.001514,-0.196042,0.369057,0.908496,0.495633,-0.341439,0.020978,19.657896,-13.481399,17.193171,,,,,,
1467747081.56,-2.932733,-0.377948,-1.169851,-0.013449,-0.477464,0.005282,-0.192711,0.369014,0.909226,0.480721,-0.340266,0.010086,19.657896,-13.481399,17.193171,,,,,,
1467747081.57,-2.940713,-0.377566,-1.170132,-0.061908,-0.884160,0.025880,-0.185477,0.368659,0.910872,0.431311,-0.266136,-0.059417,19.588587,-13.477928,17.274803,,,,,,
1467747081.58,-2.952285,-0.376872,-1.170634,-0.065517,-1.214379,0.027947,-0.174973,0.368014,0.913209,0.395142,-0.171496,-0.082017,19.588587,-13.477928,17.274803,,,,,,
1467747081.59,-2.965145,-0.376510,-1.170928,-0.052800,-1.273826,0.020881,-0.163238,0.367678,0.915514,0.509948,-0.512468,0.221098,19.588587,-13.477928,17.274803,,,,,,
1467747081.60,-2.977659,-0.376011,-1.171224,-0.032531,-1.245164,0.019657,-0.151798,0.367213,0.917666,0.456883,-0.256892,-0.050235,20.181940,-13.520461,16.543049,,,,,,
1467747081.61,-2.991393,-0.375488,-1.171528,-0.078511,-1.403347,0.019539,-0.139210,0.366727,0.919854,0.504032,-0.326886,0.104422,20.181940,-13.520461,16.543049,,,,,,
1467747081.62,-3.006483,-0.374809,-1.171910,-0.060577,-1.525481,0.026710,-0.125348,0.366095,0.922097,0.406293,-0.257132,-0.064309,20.600258,-13.546181,15.997393,,,,,,
1467747081.63,-3.023357,-0.373984,-1.172379,-0.100247,-1.734654,0.034369,-0.109807,0.365327,0.924380,0.361394,-0.278031,0.011640,20.600258,-13.546181,15.997393,,,,,,
1467747081.64,-3.044090,-0.373083,-1.172963,-0.092314,-2.182770,0.048896,-0.090651,0.364488,0.926785,0.330489,-0.335405,-0.008435,20.600258,-13.546181,15.997393,,,,,,
1467747081.65,-3.070293,-0.371894,-1.173694,-0.130260,-2.711553,0.060690,-0.066369,0.363380,0.929274,0.350595,-0.313164,-0.073713,20.600258,-13.546181,15.997393,,,,,,
1467747081.66,-3.097603,-0.370411,-1.174465,-0.161052,-2.635102,0.065502,-0.040993,0.361999,0.931277,0.363975,-0.237426,-0.028918,21.761877,-13.637764,14.290493,,,,,,
1467747081.67,-3.121934,-0.369202,-1.175133,-0.104207,-2.338829,0.042412,-0.018333,0.360871,0.932436,0.303230,-0.286027,0.105284,21.761877,-13.637764,14.290493,,,,,,
1467747081.68,3.139704,-0.367895,-1.175699,-0.148604,-2.058532,0.055512,0.001762,0.359652,0.933085,0.331139,-0.350710,0.096090,21.761877,-13.637764,14.290493,,,,,,
1467747081.69,3.121273,-0.366655,-1.176269,-0.112016,-1.746386,0.055720,0.018968,0.358495,0.933339,0.310042,-0.215764,-0.023305,22.446058,-13.702390,13.122692,,,,,,
1467747081.70,3.106905,-0.365189,-1.176823,-0.151890,-1.278114,0.053807,0.032394,0.357126,0.933495,0.300370,-0.235177,0.058357,22.446058,-13.702390,13.122692,,,,,,
1467747081.71,3.099626,-0.363995,-1.177261,-0.111522,-0.510436,0.043711,0.039206,0.356011,0.933659,0.303583,-0.268990,0.034450,22.446058,-13.702390,13.122692,,,,,,
1467747081.72,3.099730,-0.362744,-1.177619,-0.123430,0.178686,0.037248,0.039127,0.354841,0.934108,0.330929,-0.211225,0.026845,23.172409,-13.813316,11.662670,,,,,,
1467747081.73,3.103489,-0.361854,-1.177852,-0.082669,0.400615,0.024188,0.035627,0.354009,0.934563,0.359621,-0.355611,0.152931,23.172409,-13.813316,11.662670,,,,,,
1467747081.74,3.106248,-0.361171,-1.177945,-0.054097,0.227582,0.005077,0.033057,0.353370,0.934899,0.314492,-0.432975,0.062552,23.172409,-13.813316,11.662670,,,,,,
1467747081.75,3.106686,-0.360982,-1.177874,-0.012879,-0.038913,-0.007048,0.032651,0.353193,0.934981,0.308704,-0.520917,0.106020,23.115936,-13.852856,11.727657,,,,,,
1467747081.77,3.088774,-0.360999,-1.177896,0.003412,-1.464952,0.012556,0.049391,0.353209,0.934240,0.194093,-0.441496,0.011164,23.115936,-13.852856,11.727657,,,,,,
1467747081.76,3.101648,-0.360960,-1.177835,0.000139,-0.694055,-0.001862,0.037361,0.353173,0.934812,0.239510,-0.474495,0.059024,23.115936,-13.852856,11.727657,,,,,,
1467747081.78,3.073220,-0.361044,-1.177982,0.005579,-1.463841,-0.005544,0.063914,0.353251,0.933343,0.195165,-0.393626,0.014823,23.284636,-13.864550,11.374802,,,,,,
1467747081.79,3.065659,-0.361460,-1.177692,0.055777,-0.528353,-0.034779,0.070958,0.353640,0.932686,0.302562,-0.352755,0.139854,23.284636,-13.864550,11.374802,,,,,,
1467747081.80,3.062610,-0.362125,-1.177451,0.060250,-0.337266,-0.023200,0.073783,0.354262,0.932231,0.236489,-0.313002,0.151219,23.545216,-13.854429,10.838068,,,,,,
1467747081.81,3.057782,-0.362504,-1.177228,0.030237,-0.501822,-0.025391,0.078272,0.354617,0.931730,0.207006,-0.260852,-0.025114,23.545216,-13.854429,10.838068,,,,,,
1467747081.82,3.055709,-0.362813,-1.177005,0.028624,-0.083482,-0.023759,0.080194,0.354906,0.931456,0.230368,-0.244569,0.012529,23.545216,-13.854429,10.838068,,,,,,
1467747081.83,3.058250,-0.363127,-1.176859,0.032309,0.326340,-0.014616,0.077818,0.355199,0.931546,0.222872,-0.209889,0.010013,23.638811,-13.831439,10.662270,,,,,,
1467747081.84,3.063063,-0.363510,-1.176742,0.035753,0.532316,-0.011647,0.073322,0.355557,0.931774,0.241512,-0.303250,0.012974,23.638811,-13.831439,10.662270,,,,,,
1467747081.85,3.072737,-0.363933,-1.176502,0.049326,1.145008,-0.029314,0.064295,0.355953,0.932290,0.283331,-0.284328,-0.023263,23.638811,-13.831439,10.662270,,,,,,
1467747081.86,3.090666,-0.364802,-1.176047,0.095131,1.977497,-0.055778,0.047555,0.356765,0.932983,0.363059,-0.344756,0.105362,23.490276,-13.798023,11.027584,,,,,,
1467747081.87,3.114201,-0.365833,-1.175491,0.105257,2.410708,-0.058485,0.025576,0.357727,0.933476,0.388517,-0.327927,0.098323,23.490276,-13.798023,11.027584,,,,,,
1467747081.88,3.138770,-0.366975,-1.174836,0.109512,2.404341,-0.060570,0.002634,0.358794,0.933413,0.413122,-0.346739,0.057340,23.490276,-13.798023,11.027584,,,,,,
1467747081.89,-3.122948,-0.368152,-1.174144,0.122847,1.995548,-0.061186,-0.017394,0.359892,0.932832,0.395095,-0.379317,0.044600,23.031015,-13.752626,12.009314,,,,,,
1467747081.90,-3.106989,-0.369307,-1.173500,0.115723,1.418975,-0.051190,-0.032264,0.360969,0.932019,0.341865,-0.390998,0.017031,23.031015,-13.752626,12.009314,,,,,,
1467747081.91,-3.097954,-0.370283,-1.173065,0.091367,0.706465,-0.027586,-0.040668,0.361879,0.931338,0.279422,-0.349687,-0.030566,23.031015,-13.752626,12.009314,,,,,,
1467747081.92,-3.094070,-0.371043,-1.172805,0.071744,0.339094,-0.026366,-0.044272,0.362588,0.930897,0.297217,-0.329827,-0.054219,22.160864,-13.644882,13.656477,,,,,,
1467747081.93,-3.088194,-0.371633,-1.172485,0.064698,0.669309,-0.025251,-0.049729,0.363137,0.930408,0.404878,-0.250817,-0.017932,22.160864,-13.644882,13.656477,,,,,,
1467747081.94,-3.080814,-0.372340,-1.172189,0.071116,0.699025,-0.021173,-0.056579,0.363796,0.929758,0.396515,-0.263378,0.001592,22.160864,-13.644882,13.656477,,,,,,
1467747081.95,-3.075679,-0.372825,-1.171981,0.047351,0.435695,-0.014223,-0.061341,0.364248,0.929280,0.391724,-0.301778,-0.033558,22.035818,-13.615467,13.886248,,,,,,
1467747081.96,-3.071787,-0.373248,-1.171772,0.041988,0.396426,-0.019304,-0.064947,0.364642,0.928880,0.396185,-0.302508,-0.016481,22.035818,-13.615467,13.886248,,,,,,
1467747081.97,-3.066302,-0.373717,-1.171507,0.043332,0.608803,-0.027021,-0.070028,0.365079,0.928339,0.424932,-0.325162,0.077642,22.035818,-13.615467,13.886248,,,,,,
1467747081.98,-3.057069,-0.374137,-1.171187,0.049168,1.015474,-0.030630,-0.078583,0.365470,0.927500,0.443832,-0.252250,-0.002268,21.741894,-13.568257,14.386747,,,,,,
1467747081.99,-3.045205,-0.374449,-1.170902,0.027015,1.194903,-0.022198,-0.089570,0.365759,0.926389,0.435716,-0.228537,0.014254,21.741894,-13.568257,14.386747,,,,,,
1467747082.00,-3.034996,-0.374534,-1.170717,0.004289,0.916699,-0.011960,-0.099019,0.365839,0.925395,0.398290,-0.218760,-0.035121,21.741894,-13.568257,14.386747,,,,,,
1467747082.01,-3.030355,-0.374338,-1.170739,-0.030589,0.293403,0.004688,-0.103321,0.365657,0.924997,0.307927,-0.300960,-0.113306,21.443481,-13.546144,14.848070,,,,,,
1467747082.02,-3.033412,-0.373973,-1.171091,-0.044395,-0.479665,0.039327,-0.100508,0.365317,0.925441,0.357725,-0.330847,-0.054241,21.443481,-13.546144,14.848070,,,,,,
1467747082.03,-3.039940,-0.373448,-1.171397,-0.056211,-0.604878,0.013489,-0.094484,0.364828,0.926269,0.435228,-0.327200,0.113450,21.443481,-13.546144,14.848070,,,,,,
1467747082.04,-3.043149,-0.373081,-1.171528,-0.030205,-0.245999,0.010200,-0.091524,0.364486,0.926700,0.367204,-0.336318,0.084790,21.357473,-13.569347,14.950495,,,,,,
1467747082.05,-3.047192,-0.372719,-1.171732,-0.049685,-0.487036,0.018079,-0.087789,0.364149,0.927194,0.348852,-0.294126,-0.046090,21.357473,-13.569347,14.950495,,,,,,
1467747082.06,-3.054400,-0.372159,-1.172054,-0.055350,-0.752496,0.023996,-0.081121,0.363627,0.928006,0.368612,-0.330729,0.030002,21.357473,-13.569347,14.950495,,,,,,
1467747082.07,-3.061702,-0.371664,-1.172343,-0.049958,-0.698346,0.023661,-0.074357,0.363166,0.928753,0.362671,-0.337195,0.050389,21.460241,-13.585711,14.787580,,,,,,
1467747082.08,-3.068473,-0.371275,-1.172559,-0.037118,-0.664346,0.012817,-0.068077,0.362803,0.929376,0.389747,-0.373576,0.083793,21.460241,-13.585711,14.787580,,,,,,
1467747082.09,-3.075430,-0.370990,-1.172686,-0.027581,-0.707873,0.008841,-0.061617,0.362539,0.929930,0.367479,-0.371038,0.054537,21.460241,-13.585711,14.787580,,,,,,
1467747082.10,-3.083597,-0.370789,-1.172813,-0.020307,-0.849099,0.010799,-0.054024,0.362351,0.930475,0.366906,-0.351701,0.035697,21.853773,-13.627872,14.159088,,,,,,
1467747082.11,-3.092768,-0.370596,-1.172927,-0.019326,-0.919173,0.009110,-0.045492,0.362171,0.931001,0.348104,-0.325047,0.029601,21.853773,-13.627872,14.159088,,,,,,
1467747082.12,-3.101695,-0.370403,-1.173055,-0.020342,-0.873526,0.013081,-0.037182,0.361991,0.931440,0.310544,-0.276557,0.011813,21.853773,-13.627872,14.159088,,,,,,
1467747082.13,-3.110119,-0.370141,-1.173203,-0.029867,-0.827864,0.012785,-0.029338,0.361747,0.931815,0.300364,-0.257468,0.006204,22.091963,-13.637986,13.774487,,,,,,
1467747082.14,-3.118552,-0.369736,-1.173449,-0.045869,-0.835318,0.023460,-0.021482,0.361369,0.932175,0.301328,-0.236431,-0.020371,22.091963,-13.637986,13.774487,,,,,,
1467747082.15,-3.126554,-0.369156,-1.173766,-0.064956,-0.761003,0.030426,-0.014025,0.360828,0.932527,0.304186,-0.244678,-0.035554,22.091963,-13.637986,13.774487,,,,,,
1467747082.16,-3.133210,-0.368511,-1.174105,-0.063715,-0.618725,0.030599,-0.007820,0.360227,0.932832,0.325310,-0.277890,-0.010988,22.530319,-13.674031,13.007370,,,,,,
1467747082.17,-3.138755,-0.367823,-1.174426,-0.068917,-0.524219,0.028937,-0.002648,0.359585,0.933109,0.335046,-0.304318,0.011487,22.530319,-13.674031,13.007370,,,,,,
1467747082.18,3.139108,-0.367198,-1.174736,-0.060411,-0.531658,0.030057,0.002319,0.359001,0.933334,0.324784,-0.342919,0.025208,22.530319,-13.674031,13.007370,,,,,,
1467747082.19,3.133253,-0.366581,-1.175035,-0.060462,-0.579428,0.026098,0.007785,0.358425,0.933526,0.334210,-0.347027,0.024436,22.675938,-13.704885,12.718653,,,,,,
1467747082.20,3.128082,-0.366081,-1.175264,-0.045414,-0.476423,0.019081,0.012615,0.357959,0.933652,0.327519,-0.358707,0.061663,22.675938,-13.704885,12.718653,,,,,,
1467747082.21,3.123875,-0.365694,-1.175441,-0.037865,-0.403156,0.016500,0.016545,0.357598,0.933729,0.309901,-0.333764,0.036669,22.675938,-13.704885,12.718653,,,,,,
1467747082.22,3.119722,-0.365371,-1.175600,-0.030419,-0.412710,0.014438,0.020426,0.357296,0.933768,0.302939,-0.334881,0.040033,22.914598,-13.753302,12.229223,,,,,,
1467747082.23,3.115933,-0.365053,-1.175749,-0.031404,-0.349002,0.014038,0.023966,0.356999,0.933797,0.295813,-0.312108,0.028697,22.914598,-13.753302,12.229223,,,,,,
1467747082.24,3.113591,-0.364802,-1.175851,-0.021617,-0.190789,0.009862,0.026156,0.356764,0.933828,0.291380,-0.318999,0.038920,22.914598,-13.753302,12.229223,,,,,,
1467747082.25,3.112399,-0.364616,-1.175957,-0.018309,-0.098417,0.010350,0.027271,0.356590,0.933863,0.288678,-0.326744,0.028524,22.914598,-13.753302,12.229223,,,,,,
1467747082.26,3.112030,-0.364490,-1.176031,-0.008603,-0.007095,0.005529,0.027616,0.356473,0.933897,0.301730,-0.342328,0.046403,23.044163,-13.777859,11.955052,,,,,,
1467747082.27,3.112802,-0.364516,-1.176051,0.004318,0.101214,0.000605,0.026895,0.356497,0.933909,0.304464,-0.350241,0.049489,23.044163,-13.777859,11.955052,,,,,,
1467747082.28,3.114257,-0.364646,-1.176030,0.016112,0.159619,-0.004007,0.025535,0.356618,0.933901,0.309167,-0.339956,0.029005,23.044163,-13.777859,11.955052,,,,,,
1467747082.29,3.116547,-0.364831,-1.175948,0.020493,0.249882,-0.008827,0.023395,0.356792,0.933891,0.314984,-0.325450,0.023522,23.037683,-13.781115,11.963784,,,,,,
1467747082.30,3.119549,-0.365076,-1.175862,0.023759,0.309339,-0.008132,0.020589,0.357020,0.933870,0.321925,-0.307902,-0.001039,23.037683,-13.781115,11.963784,,,,,,
1467747082.31,3.122875,-0.365284,-1.175778,0.018469,0.335886,-0.008304,0.017482,0.357214,0.933859,0.336202,-0.296210,-0.012274,23.037683,-13.781115,11.963784,,,,,,
1467747082.32,3.126496,-0.365449,-1.175685,0.017440,0.362435,-0.009536,0.014099,0.357369,0.933857,0.342606,-0.301628,0.000240,22.920897,-13.765644,12.203508,,,,,,
1467747082.33,3.129801,-0.365613,-1.175616,0.015241,0.312522,-0.006031,0.011012,0.357522,0.933840,0.348927,-0.310174,-0.007998,22.920897,-13.765644,12.203508,,,,,,
1467747082.34,3.132539,-0.365718,-1.175573,0.008786,0.262615,-0.003596,0.008455,0.357619,0.933829,0.358824,-0.314681,-0.013999,22.920897,-13.765644,12.203508,,,,,,
1467747082.35,3.135399,-0.365838,-1.175528,0.014146,0.293402,-0.002719,0.005784,0.357732,0.933806,0.366287,-0.329885,0.013093,22.838686,-13.758046,12.365141,,,,,,
1467747082.36,3.139166,-0.366034,-1.175415,0.020705,0.410229,-0.015154,0.002266,0.357915,0.933751,0.392417,-0.333379,0.035151,22.838686,-13.758046,12.365141,,,,,,
1467747082.37,-3.138992,-0.366248,-1.175264,0.020823,0.511089,-0.011529,-0.002428,0.358115,0.933675,0.365755,-0.289862,0.012798,22.770653,-13.753332,12.495171,,,,,,
1467747082.38,-3.133798,-0.366344,-1.175094,0.002722,0.514277,-0.009438,-0.007278,0.358204,0.933615,0.346664,-0.273594,-0.053030,22.770653,-13.753332,12.495171,,,,,,
1467747082.39,-3.128646,-0.366359,-1.174998,0.001637,0.504710,-0.005121,-0.012087,0.358219,0.933559,0.347338,-0.283100,0.008472,22.770653,-13.753332,12.495171,,,,,,
1467747082.40,-3.123870,-0.366279,-1.174986,-0.001606,0.470725,-0.001718,-0.016546,0.358144,0.933520,0.353826,-0.339131,0.037931,22.536493,-13.735524,12.931666,,,,,,
1467747082.41,-3.118844,-0.366379,-1.174884,0.005924,0.521705,-0.008417,-0.021237,0.358237,0.933389,0.353375,-0.342948,-0.010324,22.536493,-13.735524,12.931666,,,,,,
1467747082.42,-3.112076,-0.366679,-1.174650,0.046674,0.724539,-0.027744,-0.027551,0.358518,0.933116,0.407281,-0.405118,0.144566,22.536493,-13.735524,12.931666,,,,,,
1467747082.43,-3.102842,-0.367091,-1.174337,0.034219,0.982561,-0.028310,-0.036160,0.358902,0.932675,0.390087,-0.286957,0.019214,22.410643,-13.732858,13.151344,,,,,,
1467747082.44,-3.090080,-0.367623,-1.173943,0.061335,1.369061,-0.037094,-0.048049,0.359398,0.931946,0.448135,-0.314400,0.074310,22.410643,-13.732858,13.151344,,,,,,
1467747082.45,-3.072886,-0.368099,-1.173480,0.048044,1.803354,-0.043024,-0.064054,0.359842,0.930812,0.470518,-0.257639,0.025166,22.410643,-13.732858,13.151344,,,,,,
1467747082.46,-3.052964,-0.368681,-1.172923,0.064273,2.001915,-0.048511,-0.082565,0.360385,0.929142,0.477172,-0.312839,0.074642,21.806225,-13.681347,14.180811,,,,,,
1467747082.47,-3.032578,-0.369145,-1.172344,0.048326,2.017856,-0.050756,-0.101469,0.360818,0.927100,0.455687,-0.310006,0.017816,21.806225,-13.681347,14.180811,,,,,,
1467747082.48,-3.012143,-0.369666,-1.171689,0.060037,2.011488,-0.053898,-0.120368,0.361304,0.924646,0.453635,-0.330710,0.057363,21.806225,-13.681347,14.180811,,,,,,
1467747082.49,-2.993795,-0.370063,-1.171093,0.043677,1.709929,-0.046701,-0.137291,0.361674,0.922140,0.412407,-0.309855,-0.028052,21.236084,-13.644009,15.055097,,,,,,
1467747082.50,-2.981824,-0.370321,-1.170689,0.021440,0.980444,-0.028310,-0.148305,0.361915,0.920339,0.379689,-0.315208,-0.086629,21.236084,-13.644009,15.055097,,,,,,
1467747082.51,-2.978239,-0.370267,-1.170520,-0.006246,0.145851,-0.012459,-0.151607,0.361865,0.919820,0.357326,-0.333086,-0.100469,21.236084,-13.644009,15.055097,,,,,,
1467747082.52,-2.983553,-0.370056,-1.170600,-0.029775,-0.763082,0.008121,-0.146729,0.361668,0.920688,0.340470,-0.341190,-0.092853,20.418089,-13.591089,16.191666,,,,,,
1467747082.53,-2.998119,-0.369615,-1.170933,-0.053285,-1.655028,0.029658,-0.133326,0.361257,0.922886,0.320460,-0.336904,-0.074512,20.418089,-13.591089,16.191666,,,,,,
1467747082.54,-3.018816,-0.368993,-1.171451,-0.071980,-2.127524,0.033667,-0.114226,0.360676,0.925670,0.362013,-0.314716,-0.001674,20.418089,-13.591089,16.191666,,,,,,
1467747082.55,-3.039968,-0.368295,-1.171954,-0.074022,-2.056385,0.034283,-0.094647,0.360025,0.928129,0.398159,-0.290201,0.043581,20.729649,-13.608114,15.776155,,,,,,
1467747082.56,-3.059558,-0.367597,-1.172344,-0.072748,-1.928357,0.031360,-0.076468,0.359374,0.930055,0.371054,-0.301879,0.059981,20.729649,-13.608114,15.776155,,,,,,
1467747082.57,-3.079465,-0.366864,-1.172781,-0.077093,-1.989951,0.035999,-0.057956,0.358690,0.931656,0.331699,-0.312120,0.031357,20.729649,-13.608114,15.776155,,,,,,
1467747082.58,-3.099236,-0.366135,-1.173212,-0.074911,-1.946421,0.036793,-0.039537,0.358009,0.932881,0.355684,-0.317207,0.042156,21.912539,-13.682109,14.015230,,,,,,
1467747082.59,-3.118542,-0.365424,-1.173606,-0.071666,-1.911374,0.033383,-0.021526,0.357346,0.933724,0.351467,-0.317581,0.039253,21.912539,-13.682109,14.015230,,,,,,
1467747082.60,-3.137506,-0.364696,-1.173978,-0.072676,-1.865719,0.034160,-0.003818,0.356666,0.934224,0.299625,-0.307242,0.032863,21.912539,-13.682109,14.015230,,,,,,
1467747082.61,3.128124,-0.363996,-1.174332,-0.068203,-1.693712,0.034150,0.012586,0.356011,0.934397,0.275012,-0.302880,0.051031,22.429373,-13.717798,13.135122,,,,,,
1467747082.62,3.112595,-0.363346,-1.174678,-0.063684,-1.486663,0.032856,0.027100,0.355404,0.934320,0.254470,-0.297497,0.034659,22.429373,-13.717798,13.135122,,,,,,
1467747082.63,3.099202,-0.362780,-1.174992,-0.053833,-1.272184,0.031521,0.039620,0.354875,0.934074,0.265495,-0.318177,0.060906,22.429373,-13.717798,13.135122,,,,,,
1467747082.64,3.088922,-0.362250,-1.175211,-0.048054,-0.919650,0.022929,0.049230,0.354380,0.933805,0.267955,-0.306650,0.042651,23.215260,-13.780533,11.616146,,,,,,
1467747082.65,3.082678,-0.361925,-1.175355,-0.027321,-0.528900,0.014112,0.055066,0.354076,0.933594,0.266361,-0.322643,0.067169,23.215260,-13.780533,11.616146,,,,,,
1467747082.66,3.079744,-0.361709,-1.175436,-0.018388,-0.206101,0.006775,0.057810,0.353873,0.933505,0.267431,-0.312522,0.033124,23.215260,-13.780533,11.616146,,,,,,
1467747082.67,3.081216,-0.361586,-1.175460,-0.009252,0.280212,-0.000524,0.056438,0.353758,0.933632,0.274464,-0.284651,0.023887,23.397207,-13.798992,11.222506,,,,,,
1467747082.68,3.087799,-0.361634,-1.175415,0.006276,0.770766,-0.006779,0.050290,0.353803,0.933967,0.285785,-0.288999,0.044030,23.397207,-13.798992,11.222506,,,,,,
1467747082.69,3.098339,-0.361823,-1.175294,0.021669,1.143477,-0.018681,0.040440,0.353980,0.934378,0.310298,-0.323005,0.034921,23.397207,-13.798992,11.222506,,,,,,
1467747082.70,3.113201,-0.362122,-1.175054,0.033956,1.591569,-0.027865,0.026547,0.354259,0.934770,0.335499,-0.313503,0.036436,23.219572,-13.798979,11.585588,,,,,,
1467747082.71,3.131972,-0.362593,-1.174725,0.050378,1.939853,-0.037485,0.008995,0.354700,0.934937,0.361702,-0.316660,0.061386,23.219572,-13.798979,11.585588,,,,,,
1467747082.72,-3.130046,-0.363114,-1.174329,0.053847,2.155403,-0.040962,-0.010793,0.355187,0.934733,0.379522,-0.317773,0.031011,23.219572,-13.798979,11.585588,,,,,,
1467747082.73,-3.106437,-0.363746,-1.173834,0.068018,2.411303,-0.046810,-0.032848,0.355777,0.933993,0.403378,-0.326160,0.051282,22.826794,-13.777215,12.365755,,,,,,
1467747082.74,-3.080280,-0.364445,-1.173238,0.074716,2.648099,-0.054676,-0.057249,0.356431,0.932566,0.430647,-0.313141,0.053731,22.826794,-13.777215,12.365755,,,,,,
1467747082.75,-3.052766,-0.365200,-1.172545,0.082285,2.733051,-0.059459,-0.082859,0.357136,0.930370,0.459889,-0.331440,0.055760,22.826794,-13.777215,12.365755,,,,,,
1467747082.76,-3.026347,-0.365943,-1.171797,0.080996,2.549368,-0.061501,-0.107377,0.357830,0.927592,0.483689,-0.337307,0.024724,21.536842,-13.698096,14.570955,,,,,,
1467747082.77,-3.003783,-0.366558,-1.171082,0.066598,2.108721,-0.056623,-0.128247,0.358405,0.924716,0.468396,-0.335516,-0.016146,21.536842,-13.698096,14.570955,,,,,,
1467747082.78,-2.986708,-0.367041,-1.170479,0.053086,1.534273,-0.045583,-0.143991,0.358855,0.922220,0.430200,-0.336608,-0.026285,21.536842,-13.698096,14.570955,,,,,,
1467747082.79,-2.976511,-0.367339,-1.170043,0.030870,0.813296,-0.032568,-0.153370,0.359133,0.920598,0.384464,-0.333514,-0.061940,20.821695,-13.649878,15.618065,,,,,,
1467747082.81,-2.982257,-0.367210,-1.169924,-0.032100,-0.961022,0.006173,-0.148085,0.359013,0.921510,0.346006,-0.309422,-0.091157,20.821695,-13.649878,15.618065,,,,,,
1467747082.80,-2.974838,-0.367403,-1.169850,-0.000063,-0.059526,-0.014351,-0.154906,0.359192,0.920318,0.358977,-0.320603,-0.102065,20.821695,-13.649878,15.618065,,,,,,
1467747082.82,-2.998276,-0.366758,-1.170257,-0.058721,-1.790314,0.025185,-0.133328,0.358591,0.923925,0.337902,-0.312906,-0.042531,20.500517,-13.617037,16.065220,,,,,,
1467747082.83,-3.021153,-0.366124,-1.170847,-0.071261,-2.406230,0.056711,-0.112186,0.357999,0.926958,0.346149,-0.327466,0.021040,20.500517,-13.617037,16.065220,,,,,,
1467747082.84,-3.045948,-0.365344,-1.171340,-0.077658,-2.431678,0.045156,-0.089196,0.357270,0.929732,0.385674,-0.319245,0.063584,20.500517,-13.617037,16.065220,,,,,,
1467747082.85,-3.068236,-0.364675,-1.171683,-0.063418,-2.144945,0.024211,-0.068472,0.356645,0.931727,0.367346,-0.332384,0.081365,21.094782,-13.650362,15.246765,,,,,,
1467747082.86,-3.089186,-0.364092,-1.172030,-0.060138,-2.072750,0.025891,-0.048949,0.356101,0.933164,0.325835,-0.321159,0.041231,21.094782,-13.650362,15.246765,,,,,,
1467747082.87,-3.109146,-0.363540,-1.172309,-0.058887,-1.932578,0.019691,-0.030320,0.355585,0.934152,0.326463,-0.314127,0.031378,21.094782,-13.650362,15.246765,,,,,,
1467747082.88,-3.126210,-0.363102,-1.172521,-0.039308,-1.607668,0.014479,-0.014379,0.355176,0.934689,0.313162,-0.324765,0.082554,22.328585,-13.713976,13.309671,,,,,,
1467747082.89,-3.138774,-0.362853,-1.172609,-0.018459,-1.124540,0.005083,-0.002635,0.354943,0.934884,0.319942,-0.321770,0.076804,22.328585,-13.713976,13.309671,,,,,,
1467747082.90,3.137516,-0.362839,-1.172510,0.005712,-0.551140,-0.012327,0.003811,0.354930,0.934885,0.356129,-0.344417,0.067251,22.328585,-13.713976,13.309671,,,,,,
1467747082.91,3.135757,-0.363025,-1.172303,0.023371,-0.068005,-0.023855,0.005455,0.355103,0.934811,0.357216,-0.323701,0.026584,22.707884,-13.729000,12.635376,,,,,,
1467747082.92,3.138346,-0.363360,-1.171966,0.033487,0.349293,-0.031784,0.003035,0.355417,0.934703,0.363176,-0.327783,0.031972,22.707884,-13.729000,12.635376,,,,,,
1467747082.93,-3.137964,-0.363795,-1.171536,0.050023,0.782529,-0.045129,-0.003391,0.355823,0.934547,0.355243,-0.300663,-0.001487,22.707884,-13.729000,12.635376,,,,,,
1467747082.94,-3.126303,-0.364117,-1.171412,0.020718,1.263409,-0.000274,-0.014287,0.356125,0.934329,0.503102,-0.276428,-0.015613,22.716185,-13.694332,12.658056,,,,,,
1467747082.95,-3.134584,-0.364098,-1.171566,-0.016641,-2.223504,0.010913,-0.006549,0.356107,0.934422,2.018268,-0.329343,-0.571767,22.716185,-13.694332,12.658056,,,,,,
1467747082.96,3.054967,-0.361306,-1.172718,-0.399111,-11.586570,0.170376,0.080931,0.353496,0.931929,2.225847,-0.433116,-1.455625,22.716185,-13.694332,12.658056,,,,,,
1467747082.97,2.916042,-0.355525,-1.174173,-0.539401,-13.858881,0.229194,0.209658,0.348083,0.913719,0.934660,-0.340194,-0.178261,22.672722,-13.691148,12.739160,,,,,,
1467747082.98,2.793516,-0.350936,-1.175059,-0.390767,-11.662071,0.210242,0.320302,0.343777,0.882737,0.506801,-0.255505,1.067657,22.672722,-13.691148,12.739160,,,,,,
1467747082.99,2.684735,-0.346021,-1.175217,-0.483338,-10.744661,0.217170,0.414984,0.339158,0.844251,0.223779,-0.261353,0.727663,22.672722,-13.691148,12.739160,,,,,,
1467747083.00,2.582657,-0.340374,-1.174569,-0.522746,-9.866598,0.236106,0.499862,0.333840,0.799180,-0.715728,-0.171380,0.270232,25.822098,-13.994381,1.078238,,,,,,
1467747083.01,2.541814,-0.336335,-1.174995,-0.192322,-1.015705,0.228826,0.532833,0.330030,0.779210,-3.462933,-0.071149,1.576594,25.822098,-13.994381,1.078238,,,,,,
1467747083.02,2.631842,-0.339306,-1.176539,0.484129,11.556462,-0.125040,0.460139,0.332833,0.823100,-1.278056,-0.242089,2.834798,25.822098,-13.994381,1.078238,,,,,,
1467747083.03,2.732070,-0.344040,-1.176776,0.348929,8.055974,-0.178797,0.374838,0.337293,0.863556,1.783548,-0.438428,-0.110306,25.637806,-14.108665,-2.726656,,,,,,
1467747083.04,2.729968,-0.344144,-1.176570,-0.105299,-2.446447,0.015416,0.376639,0.337391,0.862734,1.543847,-0.438007,-2.287951,25.637806,-14.108665,-2.726656,,,,,,
1467747083.05,2.691336,-0.342321,-1.176065,-0.168689,-3.732291,0.035126,0.409945,0.335675,0.848096,1.335569,-0.369519,-1.043882,25.637806,-14.108665,-2.726656,,,,,,
1467747083.06,2.669606,-0.341380,-1.176191,-0.059642,-1.623701,0.057137,0.428420,0.334787,0.839270,0.423753,-0.257929,-0.099096,25.781397,-14.058140,1.214204,,,,,,
1467747083.07,2.662704,-0.340759,-1.176546,-0.033801,-0.530083,0.059884,0.434298,0.334202,0.836477,0.097837,-0.279103,0.155985,25.781397,-14.058140,1.214204,,,,,,
1467747083.08,2.652376,-0.339928,-1.176857,-0.075221,-1.289263,0.068862,0.443044,0.333419,0.832192,0.191782,-0.323470,0.004966,25.781397,-14.058140,1.214204,,,,,,
1467747083.09,2.634223,-0.338745,-1.177019,-0.100399,-1.845624,0.068069,0.458268,0.332303,0.824357,-0.022676,-0.333173,0.141677,25.789722,-14.087648,0.463207,,,,,,
1467747083.10,2.624117,-0.338071,-1.177336,-0.015724,-0.566164,0.049484,0.466687,0.331668,0.819878,-0.269086,-0.310153,0.485832,25.789722,-14.087648,0.463207,,,,,,
1467747083.11,2.634004,-0.338625,-1.177620,0.081669,1.438632,-0.021537,0.458468,0.332190,0.824291,-0.030002,-0.321463,0.211643,25.789722,-14.087648,0.463207,,,,,,
1467747083.12,2.646580,-0.339506,-1.177582,0.059803,0.937551,-0.047156,0.447927,0.333022,0.829734,0.510340,-0.359099,-0.225089,25.765377,-14.136793,-0.287203,,,,,,
1467747083.13,2.642665,-0.339528,-1.177363,-0.026482,-0.756046,-0.013203,0.451169,0.333042,0.827967,0.456699,-0.336048,-0.450236,25.765377,-14.136793,-0.287203,,,,,,
1467747083.14,2.635649,-0.339376,-1.177157,-0.015565,-0.530967,-0.008217,0.456991,0.332899,0.824826,0.241236,-0.320707,-0.164166,25.765377,-14.136793,-0.287203,,,,,,
1467747083.15,2.639102,-0.339734,-1.177040,0.035963,0.632779,-0.028237,0.454083,0.333236,0.826294,0.081013,-0.327179,0.054504,25.775993,-14.120239,-0.056686,,,,,,
1467747083.16,2.652112,-0.340473,-1.177099,0.072176,1.491759,-0.033588,0.443178,0.333933,0.831914,-0.018145,-0.304774,0.084895,25.775993,-14.120239,-0.056686,,,,,,
1467747083.17,2.671641,-0.341189,-1.177166,0.066523,2.100137,-0.023572,0.426740,0.334608,0.840197,-0.002836,-0.293272,0.031584,25.775993,-14.120239,-0.056686,,,,,,
1467747083.18,2.698374,-0.342186,-1.177157,0.097367,2.890159,-0.048720,0.403986,0.335547,0.851001,0.002004,-0.306555,-0.000400,25.779812,-14.095600,0.708132,,,,,,
1467747083.19,2.733644,-0.343539,-1.177169,0.131442,3.730049,-0.061405,0.373546,0.336821,0.864300,0.036992,-0.291976,0.136097,25.779812,-14.095600,0.708132,,,,,,
1467747083.20,2.775942,-0.345208,-1.177048,0.154610,4.362892,-0.072802,0.336463,0.338392,0.878797,0.130487,-0.316023,0.057178,25.779812,-14.095600,0.708132,,,,,,
1467747083.21,2.822575,-0.347046,-1.176843,0.164707,4.761084,-0.082740,0.294935,0.340122,0.892934,0.174883,-0.306018,0.084270,25.699484,-14.066708,2.334600,,,,,,
1467747083.22,2.874514,-0.348687,-1.176634,0.150441,5.308917,-0.062772,0.248033,0.341664,0.906502,0.295363,-0.306005,0.069588,25.699484,-14.066708,2.334600,,,,,,
1467747083.23,2.920431,-0.350146,-1.176398,0.128598,4.023084,-0.054730,0.206053,0.343035,0.916444,1.085802,-0.327913,-0.194566,25.410635,-14.016386,4.650453,,,,,,
1467747083.24,2.921074,-0.350658,-1.176302,-0.005068,-1.491918,0.003143,0.205425,0.343515,0.916405,1.968815,-0.435587,-0.917946,25.410635,-14.016386,4.650453,,,,,,
1467747083.25,2.873037,-0.348740,-1.176536,-0.211420,-5.491767,0.079116,0.249367,0.341714,0.906117,1.500252,-0.387963,-1.131108,25.410635,-14.016386,4.650453,,,,,,
1467747083.26,2.815548,-0.346699,-1.176817,-0.177554,-5.641521,0.088605,0.301240,0.339795,0.890951,0.904830,-0.344892,-0.292333,25.154520,-13.988863,5.945415,,,,,,
1467747083.27,2.763974,-0.344742,-1.176979,-0.179938,-5.004424,0.079284,0.347014,0.337954,0.874853,0.435334,-0.300753,0.092981,25.154520,-13.988863,5.945415,,,,,,
1467747083.28,2.717337,-0.342807,-1.176955,-0.178297,-4.549964,0.073242,0.387691,0.336132,0.858319,0.218632,-0.307095,0.044819,25.154520,-13.988863,5.945415,,,,,,
1467747083.29,2.676592,-0.340904,-1.176730,-0.182777,-3.890559,0.060587,0.422618,0.334339,0.842385,0.129079,-0.298649,0.002174,25.625643,-14.047796,3.126006,,,,,,
1467747083.30,2.645146,-0.339156,-1.176661,-0.145333,-2.863876,0.076539,0.449172,0.332691,0.829193,-0.023192,-0.284244,-0.001099,25.625643,-14.047796,3.126006,,,,,,
1467747083.31,2.629108,-0.337579,-1.176929,-0.113392,-1.114132,0.098595,0.462669,0.331203,0.822339,-0.276069,-0.262035,0.056979,25.625643,-14.047796,3.126006,,,,,,
1467747083.32,2.629984,-0.336725,-1.177339,-0.043286,0.413832,0.065664,0.462087,0.330398,0.822990,-0.167790,-0.267486,0.173561,25.764343,-14.134855,-0.436656,,,,,,
1467747083.33,2.636382,-0.336185,-1.177592,-0.035515,0.628380,0.039844,0.456898,0.329888,0.826086,0.096370,-0.308327,0.022379,25.764343,-14.134855,-0.436656,,,,,,
1467747083.34,2.639036,-0.335753,-1.177541,-0.041407,0.120935,0.008958,0.454772,0.329480,0.827421,0.333054,-0.343854,-0.189466,25.764343,-14.134855,-0.436656,,,,,,
1467747083.35,2.637846,-0.335541,-1.177268,-0.024662,-0.158245,-0.019079,0.455791,0.329280,0.826940,0.389012,-0.356303,-0.232625,25.749592,-14.166115,-0.256575,,,,,,
1467747083.36,2.637158,-0.335680,-1.176906,0.002123,-0.059453,-0.040961,0.456337,0.329411,0.826586,0.392646,-0.348835,-0.184313,25.749592,-14.166115,-0.256575,,,,,,
1467747083.37,2.634920,-0.335862,-1.176576,-0.002497,-0.335539,-0.031783,0.458157,0.329583,0.825510,0.434909,-0.324395,-0.213328,25.749592,-14.166115,-0.256575,,,,,,
1467747083.38,2.626749,-0.335762,-1.176361,-0.022550,-1.013013,-0.008394,0.464903,0.329489,0.821768,0.476381,-0.316214,-0.294638,25.758749,-14.148312,-0.313442,,,,,,
1467747083.39,2.611233,-0.335690,-1.176373,-0.002118,-1.675632,0.011749,0.477609,0.329420,0.814476,0.411078,-0.319884,-0.242821,25.758749,-14.148312,-0.313442,,,,,,
1467747083.40,2.596867,-0.335529,-1.176490,-0.003745,-1.264731,0.015557,0.489288,0.329268,0.807577,0.029664,-0.291182,0.120539,25.758749,-14.148312,-0.313442,,,,,,
1467747083.41,2.591533,-0.335854,-1.176863,0.060349,-0.248617,0.009248,0.493532,0.329576,0.804864,-0.147936,-0.288835,0.411124,25.745138,-14.146084,-0.928619,,,,,,
1467747083.42,2.597056,-0.336635,-1.177373,0.095789,0.822759,-0.010209,0.488946,0.330313,0.807357,-0.089410,-0.284323,0.239076,25.745138,-14.146084,-0.928619,,,,,,
1467747083.43,2.605839,-0.337492,-1.177484,0.070201,0.747466,-0.039567,0.481692,0.331122,0.811376,0.337430,-0.327154,-0.265569,25.745138,-14.146084,-0.928619,,,,,,
1467747083.44,2.604161,-0.337781,-1.177241,-0.012265,-0.490546,-0.035078,0.483003,0.331394,0.810485,0.492903,-0.342502,-0.371093,25.740404,-14.147780,-1.028552,,,,,,
1467747083.45,2.599470,-0.337636,-1.176926,-0.013092,-0.268684,-0.016246,0.486824,0.331258,0.808251,0.169090,-0.315556,-0.322625,25.740404,-14.147780,-1.028552,,,,,,
1467747083.46,2.609515,-0.338138,-1.176865,0.050829,1.447178,-0.034395,0.478597,0.331731,0.812957,-0.068761,-0.284505,0.154618,25.740404,-14.147780,-1.028552,,,,,,
1467747083.48,2.661746,-0.340177,-1.177176,0.100521,2.885861,-0.030595,0.435189,0.333654,0.836233,0.359519,-0.313635,-0.119238,25.740540,-14.134083,-1.199303,,,,,,
1467747083.47,2.633239,-0.339093,-1.176980,0.103372,2.597075,-0.038361,0.459023,0.332631,0.823805,0.040244,-0.311452,0.084643,25.740540,-14.134083,-1.199303,,,,,,
1467747083.49,2.687714,-0.341138,-1.177391,0.089297,2.434586,-0.022453,0.413189,0.334559,0.846962,0.772678,-0.350108,-0.350563,25.740540,-14.134083,-1.199303,,,,,,
1467747083.51,2.690523,-0.341055,-1.177321,-0.097990,-1.712747,0.011886,0.410820,0.334481,0.848145,0.782585,-0.348779,-0.700912,25.762014,-14.101033,1.124975,,,,,,
1467747083.50,2.700986,-0.341620,-1.177553,0.034063,0.856748,-0.003033,0.401843,0.335014,0.852225,1.108564,-0.368431,-0.624122,25.762014,-14.101033,1.124975,,,,,,
1467747083.52,2.662933,-0.339307,-1.176900,-0.184707,-2.883969,0.054272,0.434330,0.332834,0.837006,-0.065143,-0.288598,-0.072205,25.762014,-14.101033,1.124975,,,,,,
1467747083.53,2.647253,-0.337693,-1.176814,-0.122636,-0.887889,0.070555,0.447655,0.331311,0.830565,-0.291603,-0.239941,0.457673,25.759113,-14.100552,1.195281,,,,,,
1467747083.54,2.659417,-0.337343,-1.177132,0.012753,1.755997,0.030691,0.437572,0.330981,0.836051,0.382328,-0.308444,0.068123,25.759113,-14.100552,1.195281,,,,,,
1467747083.55,2.672611,-0.337155,-1.177371,-0.024567,0.867281,0.038356,0.426532,0.330804,0.841807,0.657895,-0.342675,-0.630152,25.759113,-14.100552,1.195281,,,,,,
1467747083.57,2.648402,-0.335162,-1.177354,-0.086175,-1.627332,0.035851,0.447095,0.328922,0.831815,0.356875,-0.341969,-0.121610,25.750883,-14.149507,0.685317,,,,,,
1467747083.56,2.664617,-0.336184,-1.177476,-0.097449,-1.244074,0.054726,0.433395,0.329887,0.838656,0.671418,-0.356926,-0.567858,25.750883,-14.149507,0.685317,,,,,,
1467747083.58,2.636823,-0.334889,-1.177312,-0.007553,-0.958356,0.002994,0.456740,0.328664,0.826661,0.187989,-0.318929,0.077850,25.750883,-14.149507,0.685317,,,,,,
1467747083.59,2.631196,-0.335227,-1.177305,0.036731,-0.490065,-0.021188,0.461330,0.328983,0.823981,0.148533,-0.322117,0.080804,25.746761,-14.173532,0.036661,,,,,,
1467747083.60,2.626192,-0.335661,-1.177372,0.037770,-0.507060,-0.018951,0.465377,0.329394,0.821538,0.223832,-0.306032,-0.055974,25.746761,-14.173532,0.036661,,,,,,
1467747083.61,2.619544,-0.335913,-1.177435,0.022556,-0.733248,-0.005839,0.470787,0.329631,0.818354,0.198876,-0.301204,-0.050913,25.746761,-14.173532,0.036661,,,,,,
1467747083.62,2.611413,-0.336025,-1.177725,0.024580,-0.770495,0.024201,0.477407,0.329737,0.814467,0.228221,-0.290324,-0.109084,25.741491,-14.166073,-0.695802,,,,,,
1467747083.63,2.606172,-0.336116,-1.178026,0.020711,-0.464685,0.019086,0.481653,0.329823,0.811928,0.440344,-0.316670,-0.285576,25.741491,-14.166073,-0.695802,,,,,,
1467747083.64,2.597748,-0.335995,-1.178207,-0.012999,-1.022120,0.024678,0.488497,0.329709,0.807876,0.311354,-0.321881,-0.270431,25.741491,-14.166073,-0.695802,,,,,,
1467747083.66,2.577054,-0.335336,-1.178425,-0.007112,-0.578281,0.018706,0.505225,0.329086,0.797778,0.162759,-0.312714,-0.046863,25.724745,-14.176241,-1.028422,,,,,,
1467747083.65,2.584887,-0.335573,-1.178299,-0.032484,-1.271643,0.029416,0.498920,0.329310,0.801645,0.166150,-0.311686,-0.088571,25.724745,-14.176241,-1.028422,,,,,,
1467747083.67,2.575292,-0.335295,-1.178500,0.000960,-0.099385,0.006131,0.506637,0.329048,0.796898,0.211441,-0.319114,-0.127556,25.724745,-14.176241,-1.028422,,,,,,
1467747083.68,2.573786,-0.335194,-1.178506,-0.010859,-0.185385,0.006659,0.507854,0.328953,0.796162,0.198963,-0.314869,-0.160832,25.669416,-14.196411,-1.824602,,,,,,
1467747083.69,2.572240,-0.335046,-1.178507,-0.011827,-0.107873,0.006171,0.509111,0.328813,0.795417,0.188688,-0.326112,-0.112769,25.669416,-14.196411,-1.824602,,,,,,
1467747083.70,2.573762,-0.334976,-1.178523,-0.002868,0.240400,0.001867,0.507912,0.328746,0.796211,0.225273,-0.321529,-0.113609,25.669416,-14.196411,-1.824602,,,,,,
1467747083.71,2.577253,-0.334984,-1.178530,0.002606,0.357201,-0.000989,0.505128,0.328754,0.797977,0.239714,-0.322330,-0.145007,25.661741,-14.199613,-1.905804,,,,,,
1467747083.72,2.580412,-0.334976,-1.178562,-0.000653,0.311534,0.003552,0.502607,0.328746,0.799570,0.235217,-0.306133,-0.141001,25.661741,-14.199613,-1.905804,,,,,,
1467747083.73,2.584294,-0.334982,-1.178605,0.003742,0.418776,0.001820,0.499497,0.328752,0.801514,0.305114,-0.310533,-0.177979,25.661741,-14.199613,-1.905804,,,,,,
1467747083.74,2.587892,-0.335016,-1.178641,0.003613,0.315782,0.002465,0.496604,0.328784,0.803296,0.283852,-0.305942,-0.174207,25.681309,-14.202484,-1.595588,,,,,,
