timestamp,attitude_roll,attitude_pitch,attitude_yaw,rotation_rate_x,rotation_rate_y,rotation_rate_z,gravity_x,gravity_y,gravity_z,user_acc_x,user_acc_y,user_acc_z,magnetic_field_x,magnetic_field_y,magnetic_field_z,latitude(degree),longitude(degree),altitude(meter),speed(m/s),course(degree),timestamp
1466441707.14,-0.651602,0.003665,-1.689772,0.019410,-0.747853,0.013383,-0.606457,-0.003665,-0.795108,-0.006138,0.002917,0.021411,29.684872,133.909546,-22.509073,,,,,,
1466441707.15,-0.658854,0.003699,-1.689585,0.014121,-0.722364,0.012153,-0.612207,-0.003699,-0.790689,0.003351,-0.000619,0.010003,29.333220,133.892181,-23.066452,,,,,,
1466441707.16,-0.666176,0.003760,-1.689382,0.017299,-0.732986,0.013288,-0.617979,-0.003760,-0.786185,0.005324,-0.001061,0.004889,29.333220,133.892181,-23.066452,,,,,,
1466441707.17,-0.673598,0.003806,-1.689169,0.017279,-0.747854,0.014445,-0.623798,-0.003806,-0.781577,0.017215,-0.001169,-0.002222,29.333220,133.892181,-23.066452,,,,,,
1466441707.18,-0.681319,0.003859,-1.688934,0.019346,-0.795639,0.015812,-0.629814,-0.003859,-0.776737,0.022041,0.000701,-0.006833,28.705814,133.861053,-24.016768,,,,,,
1466441707.19,-0.689560,0.003895,-1.688698,0.018237,-0.830678,0.016030,-0.636193,-0.003895,-0.771520,0.016304,0.000813,-0.003809,28.705814,133.861053,-24.016768,,,,,,
1466441707.20,-0.697805,0.003960,-1.688457,0.020386,-0.816873,0.014881,-0.642533,-0.003960,-0.766248,-0.001999,0.000405,0.010007,28.705814,133.861053,-24.016768,,,,,,
,,,,,,,,,,,,,,,,29.719954,-95.399113,9.564250,-1.000000,-1.000000,1466441742.08
,,,,,,,,,,,,,,,,29.719954,-95.399113,9.564250,-1.000000,-1.000000,1466441742.08
1466441707.21,-0.705456,0.003997,-1.688249,0.015157,-0.743603,0.013352,-0.648376,-0.003997,-0.761310,-0.014786,-0.001603,0.023563,28.359894,133.843338,-24.521215,,,,,,
,,,,,,,,,,,,,,,,29.719954,-95.399113,9.564250,-1.000000,-1.000000,1466441742.09
1466441707.22,-0.712770,0.004053,-1.688050,0.015300,-0.631053,0.011582,-0.653927,-0.004053,-0.756547,-0.032932,-0.001211,0.034166,28.359894,133.843338,-24.521215,,,,,,
1466441707.23,-0.718318,0.004088,-1.687880,0.012233,-0.530180,0.010946,-0.658114,-0.004088,-0.752908,-0.026747,-0.001497,0.033730,28.359894,133.843338,-24.521215,,,,,,
,,,,,,,,,,,,,,,,29.719953,-95.399121,9.525102,-1.000000,-1.000000,1466441742.11
1466441707.24,-0.723037,0.004098,-1.687737,0.011266,-0.453727,0.009401,-0.661659,-0.004098,-0.749793,-0.022499,0.001657,0.029548,27.708624,133.812469,-25.417900,,,,,,
,,,,,,,,,,,,,,,,29.719953,-95.399125,9.502120,-1.000000,-1.000000,1466441742.11
1466441707.25,-0.727125,0.004130,-1.687594,0.011339,-0.397448,0.007984,-0.664719,-0.004130,-0.747082,-0.012924,0.004374,0.022671,27.708624,133.812469,-25.417900,,,,,,
1466441707.26,-0.731304,0.004093,-1.687481,0.010313,-0.369837,0.005681,-0.667835,-0.004093,-0.744298,-0.005001,0.002888,0.014989,27.708624,133.812469,-25.417900,,,,,,
1466441707.27,-0.734881,0.004129,-1.687366,0.009265,-0.354975,0.006651,-0.670493,-0.004129,-0.741904,-0.001839,-0.000342,0.009604,27.508553,133.801682,-25.690498,,,,,,
1466441707.28,-0.738336,0.004152,-1.687270,0.008222,-0.341165,0.004435,-0.673053,-0.004152,-0.739583,-0.000562,-0.000944,0.006337,27.508553,133.801682,-25.690498,,,,,,
1466441707.29,-0.741771,0.004172,-1.687170,0.007146,-0.346479,0.006596,-0.675588,-0.004172,-0.737267,0.006658,-0.004205,0.001290,27.508553,133.801682,-25.690498,,,,,,
1466441707.30,-0.745285,0.004156,-1.687059,0.011369,-0.375149,0.006780,-0.678175,-0.004156,-0.734889,0.014586,0.001943,0.001078,27.167421,133.785660,-26.133123,,,,,,
1466441707.31,-0.749361,0.004180,-1.686942,0.008116,-0.421867,0.007070,-0.681165,-0.004180,-0.732118,0.026472,0.001052,-0.010955,27.167421,133.785660,-26.133123,,,,,,
1466441707.32,-0.754155,0.004193,-1.686784,0.013336,-0.499390,0.010754,-0.684667,-0.004193,-0.728844,0.032628,0.002667,-0.015129,27.167421,133.785660,-26.133123,,,,,,
1466441707.33,-0.759788,0.004232,-1.686608,0.014298,-0.583270,0.010217,-0.688761,-0.004232,-0.724976,0.031153,-0.002879,-0.019516,26.990019,133.777054,-26.360104,,,,,,
1466441707.34,-0.765624,0.004239,-1.686413,0.017441,-0.622559,0.011531,-0.692981,-0.004239,-0.720944,0.021045,0.001539,-0.008243,26.990019,133.777054,-26.360104,,,,,,
1466441707.35,-0.771883,0.004269,-1.686231,0.015306,-0.626805,0.011555,-0.697480,-0.004269,-0.716592,0.015458,0.000760,0.000710,26.990019,133.777054,-26.360104,,,,,,
1466441707.36,-0.778154,0.004301,-1.686038,0.015307,-0.625743,0.011549,-0.701959,-0.004301,-0.712204,0.007654,0.004072,0.007767,26.449352,133.750153,-27.035999,,,,,,
1466441707.37,-0.784259,0.004326,-1.685852,0.015333,-0.605569,0.011422,-0.706294,-0.004326,-0.707905,0.006206,-0.000633,0.006474,26.449352,133.750153,-27.035999,,,,,,
1466441707.38,-0.790273,0.004360,-1.685663,0.015325,-0.611939,0.011462,-0.710539,-0.004360,-0.703645,0.017286,0.000148,0.003922,26.449352,133.750153,-27.035999,,,,,,
1466441707.39,-0.796438,0.004460,-1.685470,0.015245,-0.675645,0.011861,-0.714863,-0.004460,-0.699251,0.028950,-0.004863,-0.012694,26.143314,133.735733,-27.402370,,,,,,
1466441707.40,-0.803443,0.004514,-1.685236,0.019375,-0.773339,0.015672,-0.719743,-0.004514,-0.694226,0.040544,-0.001910,-0.021808,26.143314,133.735733,-27.402370,,,,,,
1466441707.41,-0.811756,0.004533,-1.684990,0.020301,-0.883766,0.016365,-0.725489,-0.004533,-0.688219,0.047801,0.000215,-0.025084,26.143314,133.735733,-27.402370,,,,,,
1466441707.42,-0.821287,0.004560,-1.684693,0.024428,-0.987827,0.018086,-0.732016,-0.004560,-0.681272,0.053290,0.003629,-0.024355,25.439409,133.702850,-28.213465,,,,,,
1466441707.43,-0.831931,0.004593,-1.684380,0.026421,-1.095073,0.019825,-0.739225,-0.004593,-0.673442,0.053831,0.002014,-0.024815,25.439409,133.702850,-28.213465,,,,,,
1466441707.44,-0.843652,0.004617,-1.684034,0.027349,-1.200197,0.022614,-0.747068,-0.004617,-0.664732,0.052442,0.000772,-0.025362,25.439409,133.702850,-28.213465,,,,,,
1466441707.45,-0.856380,0.004636,-1.683638,0.032541,-1.302139,0.025388,-0.755468,-0.004636,-0.655169,0.058080,-0.000491,-0.024198,24.914082,133.679611,-28.786478,,,,,,
1466441707.46,-0.870357,0.004640,-1.683201,0.034495,-1.436997,0.029429,-0.764551,-0.004640,-0.644547,0.078699,-0.003416,-0.038589,24.914082,133.679611,-28.786478,,,,,,
1466441707.47,-0.886771,0.004659,-1.682689,0.042649,-1.725815,0.032313,-0.775027,-0.004659,-0.631911,0.142962,0.001622,-0.072923,24.914082,133.679611,-28.786478,,,,,,
1466441707.48,-0.907541,0.004665,-1.682085,0.052686,-2.205766,0.039591,-0.787983,-0.004665,-0.615679,0.182316,0.002468,-0.119429,23.435053,133.614990,-30.289417,,,,,,
1466441707.49,-0.932611,0.004662,-1.681313,0.060709,-2.590161,0.048396,-0.803169,-0.004662,-0.595733,0.143349,0.004387,-0.102006,23.435053,133.614990,-30.289417,,,,,,
1466441707.50,-0.959705,0.004627,-1.680522,0.064777,-2.742000,0.049352,-0.819014,-0.004627,-0.573755,0.133513,0.001468,-0.052466,23.435053,133.614990,-30.289417,,,,,,
1466441707.51,-0.988447,0.004615,-1.679655,0.069884,-2.912956,0.051494,-0.835164,-0.004615,-0.549982,0.107304,0.004692,-0.033239,22.131775,133.562210,-31.479122,,,,,,
1466441707.52,-1.018091,0.004533,-1.678750,0.075129,-2.971367,0.055059,-0.851098,-0.004533,-0.524987,0.071863,0.002794,-0.003959,22.131775,133.562210,-31.479122,,,,,,
1466441707.53,-1.047705,0.004419,-1.677857,0.069831,-2.949069,0.055978,-0.866270,-0.004419,-0.499556,0.062056,0.001444,0.011030,22.131775,133.562210,-31.479122,,,,,,
1466441707.54,-1.077678,0.004300,-1.676936,0.077179,-3.032955,0.056512,-0.880853,-0.004300,-0.473371,0.099618,0.008862,0.003522,18.629416,133.428665,-34.195763,,,,,,
1466441707.55,-1.109834,0.004115,-1.675992,0.076860,-3.280367,0.062321,-0.895617,-0.004115,-0.444807,0.121981,-0.001852,-0.047854,18.629416,133.428665,-34.195763,,,,,,
1466441707.56,-1.144533,0.003902,-1.674944,0.086142,-3.518218,0.064886,-0.910510,-0.003902,-0.413468,0.118014,0.007183,-0.039870,18.629416,133.428665,-34.195763,,,,,,
1466441707.57,-1.180211,0.003627,-1.673915,0.084997,-3.580867,0.066343,-0.924680,-0.003627,-0.380727,0.102445,-0.005849,-0.009105,16.617613,133.356140,-35.490955,,,,,,
1466441707.58,-1.216463,0.003324,-1.672856,0.084926,-3.636084,0.067753,-0.937873,-0.003324,-0.346963,0.089606,0.005979,0.009911,16.617613,133.356140,-35.490955,,,,,,
1466441707.59,-1.252645,0.002975,-1.671818,0.089243,-3.592546,0.065356,-0.949811,-0.002975,-0.312810,0.040845,0.001404,0.024190,16.617613,133.356140,-35.490955,,,,,,
1466441707.60,-1.288055,0.002611,-1.670792,0.082926,-3.537326,0.063939,-0.960291,-0.002611,-0.278989,0.078516,0.006685,0.039044,11.715963,133.192368,-37.975590,,,,,,
1466441707.61,-1.324479,0.002184,-1.669791,0.090193,-3.680682,0.068038,-0.969815,-0.002184,-0.243834,0.093136,0.002764,-0.007494,11.715963,133.192368,-37.975590,,,,,,
1466441707.62,-1.362830,0.001718,-1.668700,0.095252,-3.886683,0.072529,-0.978451,-0.001718,-0.206470,0.123227,0.007455,-0.020947,11.715963,133.192368,-37.975590,,,,,,
1466441707.63,-1.403198,0.001130,-1.667626,0.098172,-4.095877,0.080230,-0.985988,-0.001130,-0.166814,0.151256,-0.004653,-0.041911,9.128291,133.112122,-38.954453,,,,,,
1466441707.64,-1.446880,0.000467,-1.666432,0.108335,-4.478137,0.084767,-0.992332,-0.000467,-0.123600,0.220573,0.011468,-0.058697,9.128291,133.112122,-38.954453,,,,,,
1466441707.65,-1.496152,-0.000372,-1.665201,0.121393,-5.087645,0.098182,-0.997215,0.000372,-0.074575,0.281883,-0.001852,-0.123957,9.128291,133.112122,-38.954453,,,,,,
1466441707.66,-1.552135,-0.001367,-1.663759,0.141809,-5.779965,0.107867,-0.999825,0.001367,-0.018660,0.347802,0.014288,-0.126650,2.724226,132.928314,-40.524757,,,,,,
1466441707.67,-1.615424,-0.002600,-1.662294,0.151508,-6.517956,0.124214,-0.999001,0.002600,0.044613,0.394448,0.002023,-0.144909,2.724226,132.928314,-40.524757,,,,,,
1466441707.68,-1.687185,-0.004073,-1.660667,0.180216,-7.383366,0.139250,-0.993226,0.004073,0.116125,0.434373,0.023561,-0.128577,2.724226,132.928314,-40.524757,,,,,,
1466441707.69,-1.765651,-0.005787,-1.659086,0.186941,-7.953575,0.149220,-0.981059,0.005787,0.193621,0.353816,0.008526,-0.066057,-1.838718,132.810043,-40.960026,,,,,,
1466441707.70,-1.845368,-0.007676,-1.657562,0.191232,-7.924914,0.151173,-0.962513,0.007676,0.271127,0.228062,0.016387,0.089561,-1.838718,132.810043,-40.960026,,,,,,
1466441707.71,-1.922715,-0.009574,-1.656276,0.180919,-7.672176,0.141062,-0.938670,0.009574,0.344684,0.173716,0.012033,0.196667,-1.838718,132.810043,-40.960026,,,,,,
1466441707.72,-1.997922,-0.011578,-1.655192,0.170512,-7.476805,0.141955,-0.910099,0.011578,0.414229,0.105961,-0.010937,0.184267,-13.550193,132.557724,-39.553200,,,,,,
1466441707.73,-2.072177,-0.013587,-1.654166,0.179124,-7.409902,0.136222,-0.876839,0.013586,0.480593,0.117272,0.037683,0.265593,-13.550193,132.557724,-39.553200,,,,,,
1466441707.74,-2.142911,-0.015580,-1.653595,0.151000,-6.916143,0.130968,-0.840656,0.015579,0.541345,-0.067700,-0.044739,0.115225,-13.550193,132.557724,-39.553200,,,,,,
1466441707.75,-2.209851,-0.017602,-1.652691,0.192853,-6.664499,0.123045,-0.802535,0.017601,0.596345,0.120452,0.075477,0.407531,-18.957865,132.464493,-37.594795,,,,,,
1466441707.76,-2.274617,-0.019379,-1.652580,0.104833,-6.379898,0.123301,-0.762232,0.019378,0.647014,-0.118048,-0.068557,-0.008617,-18.957865,132.464493,-37.594795,,,,,,
1466441707.77,-2.334332,-0.021333,-1.651920,0.198167,-5.843693,0.105129,-0.722231,0.021331,0.691323,-0.013227,0.080232,0.432991,-18.957865,132.464493,-37.594795,,,,,,
1466441707.78,-2.387669,-0.022785,-1.652013,0.060647,-5.133272,0.098408,-0.684327,0.022784,0.728819,-0.235000,-0.054323,0.152391,-27.519188,132.354538,-32.320042,,,,,,
1466441707.79,-2.432336,-0.024172,-1.651776,0.150175,-4.247712,0.070590,-0.651079,0.024170,0.758625,-0.207319,0.049499,0.344372,-27.519188,132.354538,-32.320042,,,,,,
1466441707.80,-2.468556,-0.025341,-1.651774,0.053260,-3.404615,0.073721,-0.623163,0.025339,0.781681,-0.274908,-0.015466,0.336101,-27.519188,132.354538,-32.320042,,,,,,
1466441707.81,-2.496296,-0.026117,-1.651822,0.078823,-2.585914,0.045194,-0.601230,0.026114,0.798649,-0.261151,0.005380,0.212093,-30.319359,132.340881,-29.769777,,,,,,
1466441707.82,-2.518813,-0.026967,-1.651757,0.052713,-2.169691,0.048944,-0.583083,0.026964,0.811965,-0.153672,0.016142,0.257783,-30.319359,132.340881,-29.769777,,,,,,
1466441707.83,-2.538728,-0.027440,-1.651879,0.041317,-1.940314,0.032595,-0.566791,0.027437,0.823405,-0.130154,-0.017107,0.050344,-30.319359,132.340881,-29.769777,,,,,,
1466441707.84,-2.558044,-0.028172,-1.651836,0.057265,-1.946713,0.040102,-0.550770,0.028169,0.834181,-0.007076,0.020141,0.091142,-33.052711,132.335236,-26.730381,,,,,,
1466441707.85,-2.577731,-0.028690,-1.651974,0.038084,-1.962625,0.038054,-0.534234,0.028686,0.844850,-0.024299,-0.012130,-0.015840,-33.052711,132.335236,-26.730381,,,,,,
1466441707.86,-2.597585,-0.029374,-1.651982,0.058264,-2.004042,0.037269,-0.517346,0.029370,0.855272,0.045911,0.012775,0.027632,-33.052711,132.335236,-26.730381,,,,,,
1466441707.87,-2.618775,-0.029939,-1.652120,0.039968,-2.153759,0.042448,-0.499100,0.029934,0.866027,0.041214,-0.000988,-0.039779,-33.970818,132.335052,-25.554390,,,,,,
1466441707.88,-2.640696,-0.030640,-1.652204,0.060154,-2.191988,0.040579,-0.479987,0.030635,0.876741,0.030600,0.001790,-0.002519,-33.970818,132.335052,-25.554390,,,,,,
1466441707.89,-2.662562,-0.031268,-1.652353,0.045250,-2.188798,0.041608,-0.460694,0.031263,0.887008,0.052049,0.003649,0.007691,-33.970818,132.335052,-25.554390,,,,,,
1466441707.90,-2.684877,-0.031934,-1.652480,0.059021,-2.242960,0.043026,-0.440778,0.031928,0.897048,0.020871,-0.005805,0.035218,-35.811932,132.341766,-22.864288,,,,,,
1466441707.91,-2.706829,-0.032608,-1.652655,0.048470,-2.166505,0.042536,-0.420972,0.032602,0.906487,0.085844,0.008216,0.007209,-35.811932,132.341766,-22.864288,,,,,,
1466441707.92,-2.728817,-0.033271,-1.652819,0.059028,-2.237651,0.042993,-0.400932,0.033265,0.915504,0.146613,-0.002320,-0.039665,-35.811932,132.341766,-22.864288,,,,,,
1466441707.93,-2.754024,-0.034047,-1.653023,0.063850,-2.629473,0.050777,-0.377719,0.034040,0.925294,0.188876,0.007433,-0.101350,-36.677509,132.349350,-21.401449,,,,,,
1466441707.94,-2.783850,-0.034914,-1.653310,0.073888,-3.105184,0.060157,-0.349948,0.034907,0.936119,0.249743,0.009694,-0.113029,-36.677509,132.349350,-21.401449,,,,,,
1466441707.95,-2.819286,-0.035945,-1.653675,0.089116,-3.683897,0.072318,-0.316551,0.035938,0.947895,0.237053,0.004971,-0.098651,-36.677509,132.349350,-21.401449,,,,,,
1466441707.96,-2.859786,-0.037078,-1.654132,0.094900,-4.162779,0.077456,-0.277900,0.037069,0.959894,0.253608,0.012918,-0.077692,-38.578899,132.378448,-17.527954,,,,,,
1466441707.97,-2.904743,-0.038322,-1.654724,0.109238,-4.593916,0.094012,-0.234469,0.038313,0.971368,0.310412,-0.001219,-0.076059,-38.578899,132.378448,-17.527954,,,,,,
1466441707.98,-2.954897,-0.039652,-1.655406,0.118078,-5.190645,0.094570,-0.185468,0.039642,0.981850,0.366742,0.020295,-0.083520,-38.578899,132.378448,-17.527954,,,,,,
1466441707.99,-3.012914,-0.041202,-1.656302,0.146860,-5.978576,0.120829,-0.128215,0.041191,0.990891,0.323649,-0.012230,-0.074204,-39.724850,132.411713,-14.446049,,,,,,
1466441708.00,-3.077048,-0.042767,-1.657386,0.142957,-6.547695,0.122265,-0.064441,0.042754,0.997005,0.347308,0.033448,0.013310,-39.724850,132.411713,-14.446049,,,,,,
1466441708.01,3.136929,-0.044453,-1.658617,0.174292,-7.021292,0.131654,0.004659,0.044438,0.999001,0.265880,-0.000814,0.070640,-39.724850,132.411713,-14.446049,,,,,,
1466441708.02,3.064550,-0.046115,-1.660053,0.167574,-7.279315,0.136459,0.076884,0.046099,0.995974,0.256581,0.021208,0.141905,-41.514847,132.542603,-5.347027,,,,,,
1466441708.03,2.990819,-0.047672,-1.661639,0.178084,-7.380207,0.142424,0.150033,0.047654,0.987532,0.242362,-0.000978,0.170442,-41.514847,132.542603,-5.347027,,,,,,
1466441708.04,2.915733,-0.049120,-1.663379,0.171477,-7.556459,0.142458,0.223674,0.049101,0.973427,0.260991,0.019381,0.168740,-41.514847,132.542603,-5.347027,,,,,,
1466441708.05,2.838128,-0.050447,-1.665253,0.182861,-7.809189,0.149377,0.298449,0.050426,0.953093,0.212187,0.007267,0.187883,-41.519314,132.648743,0.266199,,,,,,
1466441708.06,2.759123,-0.051698,-1.667316,0.185943,-7.897323,0.150997,0.372714,0.051675,0.926506,0.186506,0.016685,0.247734,-41.519314,132.648743,0.266199,,,,,,
1466441708.07,2.680815,-0.052780,-1.669437,0.188207,-7.790082,0.150327,0.444026,0.052756,0.894460,0.156179,0.001794,0.260219,-41.519314,132.648743,0.266199,,,,,,
1466441708.08,2.603342,-0.053625,-1.671590,0.173417,-7.704057,0.145515,0.511898,0.053599,0.857372,0.098331,0.004934,0.304386,-38.839172,132.932388,11.836798,,,,,,
1466441708.09,2.528097,-0.054395,-1.673751,0.183364,-7.420549,0.139489,0.574878,0.054368,0.816431,-0.014682,0.005187,0.337546,-38.839172,132.932388,11.836798,,,,,,
1466441708.10,2.457944,-0.054888,-1.675797,0.152153,-6.849263,0.128424,0.630675,0.054860,0.774106,-0.072066,0.005931,0.368076,-38.839172,132.932388,11.836798,,,,,,
1466441708.11,2.394449,-0.055258,-1.677654,0.151979,-6.157997,0.112379,0.678509,0.055230,0.732513,-0.155544,0.005012,0.372223,-36.245567,133.092789,17.093464,,,,,,
1466441708.12,2.338552,-0.055463,-1.679326,0.119964,-5.375417,0.102117,0.718365,0.055434,0.693455,-0.192074,0.005692,0.345455,-36.245567,133.092789,17.093464,,,,,,
1466441708.13,2.290614,-0.055554,-1.680740,0.111378,-4.596024,0.087640,0.750766,0.055525,0.658231,-0.241733,0.000948,0.322482,-36.245567,133.092789,17.093464,,,,,,
1466441708.14,2.250428,-0.055573,-1.681969,0.084705,-3.806002,0.073079,0.776603,0.055545,0.627537,-0.301567,-0.005191,0.316479,-30.719570,133.356918,24.328011,,,,,,
1466441708.15,2.219576,-0.055511,-1.682856,0.062539,-2.821668,0.055174,0.795594,0.055483,0.603284,-0.343949,0.001127,0.328418,-30.719570,133.356918,24.328011,,,,,,
1466441708.16,2.199316,-0.055507,-1.683487,0.043679,-1.756623,0.031445,0.807653,0.055478,0.587043,-0.357931,-0.002377,0.312982,-30.719570,133.356918,24.328011,,,,,,
1466441708.17,2.189344,-0.055483,-1.683792,0.017274,-0.752118,0.015539,0.813468,0.055454,0.578961,-0.347647,-0.002720,0.269779,-28.743622,133.438354,26.222538,,,,,,
1466441708.18,2.188452,-0.055482,-1.683832,-0.002894,0.127097,-0.001705,0.813984,0.055454,0.578234,-0.331486,-0.001133,0.240369,-28.743622,133.438354,26.222538,,,,,,
1466441708.19,2.196018,-0.055491,-1.683610,-0.023122,0.960652,-0.017597,0.809585,0.055463,0.584376,-0.308029,-0.001935,0.227422,-28.743622,133.438354,26.222538,,,,,,
1466441708.20,2.211739,-0.055518,-1.683121,-0.042306,1.774038,-0.035491,0.800297,0.055489,0.597030,-0.311253,-0.002419,0.232453,-28.058159,133.467239,26.811346,,,,,,
1466441708.21,2.236071,-0.055544,-1.682396,-0.059286,2.654305,-0.049544,0.785534,0.055515,0.616323,-0.277218,0.001339,0.251688,-28.058159,133.467239,26.811346,,,,,,
1466441708.22,2.268966,-0.055545,-1.681421,-0.081657,3.477242,-0.065372,0.764839,0.055517,0.641825,-0.205299,0.000391,0.221166,-28.058159,133.467239,26.811346,,,,,,
1466441708.23,2.308250,-0.055476,-1.680247,-0.095841,4.044267,-0.074265,0.739044,0.055448,0.671371,-0.136734,0.001467,0.175812,-29.212805,133.420547,25.791140,,,,,,
1466441708.24,2.351799,-0.055333,-1.678948,-0.105976,4.447766,-0.079999,0.709121,0.055304,0.702915,-0.105666,0.000848,0.169842,-29.212805,133.420547,25.791140,,,,,,
1466441708.25,2.399560,-0.055154,-1.677555,-0.110749,4.871454,-0.092241,0.674760,0.055126,0.735975,-0.050645,0.006459,0.174333,-29.212805,133.420547,25.791140,,,,,,
1466441708.26,2.451405,-0.054873,-1.676032,-0.125138,5.277082,-0.099057,0.635723,0.054845,0.769966,-0.023434,-0.004552,0.191338,-33.455414,133.236465,21.175314,,,,,,
1466441708.27,2.506856,-0.054506,-1.674418,-0.127900,5.613689,-0.106493,0.592085,0.054479,0.804032,0.029863,0.011607,0.172119,-33.455414,133.236465,21.175314,,,,,,
1466441708.28,2.564799,-0.054063,-1.672756,-0.135085,5.823936,-0.109947,0.544543,0.054037,0.836991,0.077055,-0.002584,0.144775,-33.455414,133.236465,21.175314,,,,,,
1466441708.29,2.623681,-0.053415,-1.671079,-0.141401,5.883397,-0.109262,0.494360,0.053390,0.867616,0.136224,0.012421,0.115996,-35.812305,133.118271,17.793734,,,,,,
1466441708.30,2.682304,-0.052756,-1.669474,-0.132961,5.817567,-0.110970,0.442694,0.052732,0.895121,0.199061,0.012255,0.073156,-35.812305,133.118271,17.793734,,,,,,
1466441708.31,2.739054,-0.051984,-1.667924,-0.135354,5.609452,-0.108603,0.391226,0.051961,0.918827,0.244104,0.006526,0.039578,-35.812305,133.118271,17.793734,,,,,,
1466441708.32,2.792907,-0.051192,-1.666509,-0.121924,5.287707,-0.102314,0.341215,0.051169,0.938591,0.268526,0.007287,-0.005944,-39.604866,132.876999,9.735163,,,,,,
1466441708.33,2.842874,-0.050400,-1.665238,-0.113918,4.886330,-0.095530,0.293922,0.050379,0.954501,0.297158,0.005011,-0.045062,-39.604866,132.876999,9.735163,,,,,,
1466441708.34,2.888187,-0.049602,-1.664130,-0.102836,4.402110,-0.080774,0.250394,0.049582,0.966873,0.305682,0.004465,-0.076355,-39.604866,132.876999,9.735163,,,,,,
1466441708.35,2.927474,-0.048919,-1.663208,-0.088629,3.849952,-0.074103,0.212232,0.048899,0.975995,0.308306,0.007741,-0.108609,-40.678242,132.778778,5.889876,,,,,,
1466441708.36,2.961793,-0.048268,-1.662403,-0.076574,3.289288,-0.060995,0.178624,0.048249,0.982734,0.300212,0.002364,-0.126288,-40.678242,132.778778,5.889876,,,,,,
1466441708.37,2.990501,-0.047705,-1.661770,-0.062401,2.718008,-0.048882,0.150346,0.047687,0.987483,0.329528,0.003628,-0.149241,-40.678242,132.778778,5.889876,,,,,,
1466441708.38,3.012421,-0.047261,-1.661279,-0.047343,1.999145,-0.039037,0.128669,0.047243,0.990562,0.324990,0.008314,-0.200675,-41.502724,132.653915,0.272220,,,,,,
1466441708.39,3.026861,-0.046980,-1.660972,-0.026988,1.266461,-0.023777,0.114354,0.046963,0.992329,0.307033,0.003483,-0.200246,-41.502724,132.653915,0.272220,,,,,,
1466441708.40,3.034693,-0.046796,-1.660802,-0.016105,0.620853,-0.010137,0.106580,0.046779,0.993203,0.312122,0.004811,-0.200631,-41.502724,132.653915,0.272220,,,,,,
1466441708.41,3.035624,-0.046729,-1.660801,-0.003167,-0.088458,0.001776,0.105655,0.046712,0.993305,0.305310,0.009242,-0.210560,-41.579258,132.625427,-1.127479,,,,,,
1466441708.42,3.029544,-0.046927,-1.660949,0.026827,-0.775489,0.016759,0.111691,0.046909,0.992635,0.285312,-0.002293,-0.200368,-41.579258,132.625427,-1.127479,,,,,,
1466441708.43,3.016938,-0.047170,-1.661210,0.028147,-1.415766,0.023969,0.124194,0.047153,0.991137,0.263532,0.006863,-0.185107,-41.579258,132.625427,-1.127479,,,,,,
1466441708.44,2.998769,-0.047650,-1.661634,0.066879,-1.927603,0.037863,0.142177,0.047632,0.988695,0.226720,-0.002008,-0.137071,-41.560352,132.634064,-0.744236,,,,,,
1466441708.45,2.976472,-0.048133,-1.662094,0.031217,-2.350177,0.038348,0.164181,0.048115,0.985256,0.223286,0.009365,-0.123867,-41.560352,132.634064,-0.744236,,,,,,
1466441708.46,2.948390,-0.048539,-1.662708,0.089018,-2.932115,0.056958,0.191776,0.048520,0.980239,0.201137,-0.001935,-0.130034,-41.461910,132.664597,0.790654,,,,,,
1466441708.47,2.916874,-0.049357,-1.663491,0.044970,-3.246387,0.058885,0.222560,0.049337,0.973670,0.168110,0.012186,-0.059821,-41.461910,132.664597,0.790654,,,,,,
1466441708.48,2.881675,-0.049565,-1.664243,0.081789,-3.590450,0.068531,0.256686,0.049545,0.965224,0.167325,-0.003204,-0.057814,-41.461910,132.664597,0.790654,,,,,,
1466441708.49,2.843811,-0.050537,-1.665245,0.096376,-3.845290,0.070143,0.293025,0.050516,0.954769,0.173589,0.010504,-0.015850,-41.461910,132.664597,0.790654,,,,,,
1466441708.50,2.803310,-0.050955,-1.666216,0.086456,-4.101203,0.080254,0.331437,0.050933,0.942102,0.121597,-0.002777,-0.012491,-40.688194,132.778198,5.834080,,,,,,
1466441708.51,2.761026,-0.051774,-1.667363,0.110761,-4.250924,0.079088,0.370949,0.051751,0.927210,0.110664,0.008811,0.036871,-40.688194,132.778198,5.834080,,,,,,
1466441708.52,2.718000,-0.052266,-1.668465,0.091520,-4.306137,0.082609,0.410477,0.052243,0.910373,0.079162,0.001438,0.047513,-40.688194,132.778198,5.834080,,,,,,
1466441708.53,2.674717,-0.052909,-1.669690,0.106413,-4.316762,0.082690,0.449469,0.052884,0.891729,0.049173,0.006533,0.082911,-39.867657,132.855804,8.917397,,,,,,
1466441708.54,2.632050,-0.053334,-1.670855,0.090557,-4.223319,0.083153,0.487085,0.053309,0.871726,0.003821,0.004110,0.098504,-39.867657,132.855804,8.917397,,,,,,
1466441708.55,2.591036,-0.053834,-1.672030,0.102487,-4.065089,0.072592,0.522404,0.053808,0.850999,0.013683,0.011225,0.118316,-38.744141,132.941650,12.042500,,,,,,
1466441708.56,2.551638,-0.054204,-1.673159,0.089949,-3.869720,0.074548,0.555507,0.054177,0.829745,-0.060099,-0.007058,0.131970,-38.744141,132.941650,12.042500,,,,,,
1466441708.57,2.515377,-0.054525,-1.674215,0.084010,-3.521428,0.065971,0.585212,0.054498,0.809047,-0.091422,0.007850,0.149464,-38.744141,132.941650,12.042500,,,,,,
1466441708.58,2.483770,-0.054698,-1.675124,0.063303,-3.051041,0.064065,0.610481,0.054671,0.790142,-0.123130,0.016633,0.151752,-38.744141,132.941650,12.042500,,,,,,
1466441708.59,2.457378,-0.054588,-1.675753,0.008720,-2.469073,0.033749,0.631123,0.054561,0.773761,-0.148839,0.129307,0.049298,-35.985790,133.110153,17.502127,,,,,,
1466441708.60,2.434499,-0.054485,-1.676683,0.062220,-2.230244,0.050400,0.648663,0.054458,0.759125,-0.206524,-0.130157,0.183197,-35.985790,133.110153,17.502127,,,,,,
1466441708.61,2.415973,-0.054865,-1.677179,0.061883,-1.696078,0.018310,0.662600,0.054837,0.746963,-0.106723,-0.103192,0.241578,-34.759350,133.170059,19.419975,,,,,,
1466441708.62,2.404563,-0.055034,-1.677394,0.034034,-0.982526,0.011678,0.671074,0.055006,0.739347,-0.158226,0.000612,0.238238,-34.759350,133.170059,19.419975,,,,,,
1466441708.63,2.398628,-0.055287,-1.677568,0.001658,-0.491936,0.001118,0.675441,0.055259,0.735341,-0.208186,0.106866,0.064052,-34.759350,133.170059,19.419975,,,,,,
1466441708.64,2.396654,-0.055201,-1.677667,0.018131,-0.100124,-0.006645,0.676894,0.055173,0.734010,-0.181594,-0.020612,0.189742,-34.759350,133.170059,19.419975,,,,,,
1466441708.65,2.400263,-0.055392,-1.677547,-0.010801,0.552984,-0.041639,0.674233,0.055364,0.736440,-0.142282,-0.041845,0.125910,-33.446388,133.236038,21.192223,,,,,,
1466441708.66,2.410830,-0.055591,-1.677215,-0.009973,1.206005,-0.049992,0.666406,0.055562,0.743515,-0.194605,-0.012090,0.128112,-33.446388,133.236038,21.192223,,,,,,
1466441708.67,2.426497,-0.055870,-1.676746,-0.012597,1.650920,-0.059171,0.654667,0.055841,0.753852,-0.111271,0.014975,0.178567,-33.446388,133.236038,21.192223,,,,,,
1466441708.68,2.445300,-0.055675,-1.676126,-0.058054,1.945003,-0.039772,0.640384,0.055646,0.766036,-0.160739,0.078082,0.010956,-34.156403,133.199936,20.266573,,,,,,
1466441708.69,2.467143,-0.055476,-1.675547,-0.062958,2.279474,-0.041875,0.623507,0.055448,0.779849,-0.111452,0.061694,0.030545,-34.156403,133.199936,20.266573,,,,,,
1466441708.70,2.492691,-0.055113,-1.674811,-0.066781,2.628806,-0.043005,0.603394,0.055085,0.795539,-0.075409,-0.039017,0.151269,-34.156403,133.199936,20.266573,,,,,,
1466441708.71,2.521301,-0.054963,-1.673979,-0.063167,2.928294,-0.067233,0.580394,0.054936,0.812480,-0.021404,-0.052662,0.115498,-35.042328,133.155823,19.004709,,,,,,
1466441708.72,2.552349,-0.054799,-1.673079,-0.067152,3.153387,-0.064391,0.554898,0.054772,0.830113,-0.021374,-0.018593,0.093730,-35.042328,133.155823,19.004709,,,,,,
1466441708.73,2.585663,-0.054390,-1.672104,-0.090322,3.371041,-0.056199,0.526953,0.054363,0.848154,-0.009359,0.062977,0.008505,-36.148129,133.097809,17.259802,,,,,,
1466441708.74,2.619772,-0.053907,-1.671151,-0.092401,3.409270,-0.057505,0.497735,0.053881,0.865654,0.037329,0.032270,0.035866,-36.148129,133.097809,17.259802,,,,,,
1466441708.75,2.654047,-0.053433,-1.670240,-0.079612,3.412461,-0.061771,0.467790,0.053407,0.882225,0.118056,-0.044847,0.049508,-36.148129,133.097809,17.259802,,,,,,
1466441708.76,2.687076,-0.052954,-1.669304,-0.085118,3.263817,-0.062973,0.438413,0.052929,0.897214,0.102908,0.026554,-0.025296,-36.148129,133.097809,17.259802,,,,,,
1466441708.77,2.719128,-0.052454,-1.668460,-0.085231,3.178864,-0.059247,0.409446,0.052430,0.910827,0.125619,-0.006715,-0.009841,-38.455357,132.960129,12.743837,,,,,,
1466441708.78,2.749825,-0.051821,-1.667624,-0.089723,3.013190,-0.045439,0.381310,0.051798,0.922995,0.145225,0.021963,-0.058813,-38.455357,132.960129,12.743837,,,,,,
1466441708.79,2.775847,-0.051497,-1.667012,-0.080503,2.720122,-0.045720,0.357172,0.051474,0.932619,0.171194,0.021661,-0.083742,-39.363972,132.895447,10.435138,,,,,,
1466441708.80,2.800759,-0.050945,-1.666403,-0.068139,2.411096,-0.030996,0.333840,0.050923,0.941253,0.173332,-0.016346,-0.058990,-39.363972,132.895447,10.435138,,,,,,
1466441708.81,2.822652,-0.050524,-1.665833,-0.055724,2.104261,-0.040768,0.313161,0.050502,0.948356,0.203166,-0.006862,-0.066246,-39.363972,132.895447,10.435138,,,,,,
1466441708.82,2.840754,-0.050227,-1.665374,-0.034954,1.697560,-0.030746,0.295948,0.050206,0.953884,0.209332,-0.038075,-0.064937,-39.363972,132.895447,10.435138,,,,,,
1466441708.83,2.854560,-0.049987,-1.665015,-0.035462,1.301470,-0.022937,0.282753,0.049966,0.957890,0.185981,0.012000,-0.129048,-40.481236,132.802109,6.669686,,,,,,
1466441708.84,2.864824,-0.049775,-1.664766,-0.025289,0.931943,-0.015287,0.272911,0.049754,0.960752,0.187950,0.024159,-0.126188,-40.481236,132.802109,6.669686,,,,,,
1466441708.85,2.871094,-0.049655,-1.664615,-0.007716,0.516761,-0.009473,0.266883,0.049635,0.962450,0.207238,-0.013273,-0.121309,-40.481236,132.802109,6.669686,,,,,,
1466441708.86,2.872766,-0.049731,-1.664555,0.006602,0.047437,-0.006515,0.265272,0.049710,0.962891,0.223207,-0.006345,-0.111787,-40.881260,132.758163,4.858418,,,,,,
1466441708.87,2.854832,-0.050529,-1.665384,0.007072,-0.413492,0.005958,0.282485,0.050507,0.957941,0.168153,0.005203,-0.164469,-40.881260,132.758163,4.858418,,,,,,
1466441708.88,2.847614,-0.050633,-1.665547,0.015071,-0.820179,0.012774,0.289391,0.050611,0.955872,0.171760,0.022585,-0.123185,-40.881260,132.758163,4.858418,,,,,,
1466441708.89,2.836571,-0.050734,-1.665826,0.017790,-1.187584,0.022533,0.299927,0.050712,0.952613,0.126647,-0.002159,-0.125831,-40.732124,132.783859,5.380922,,,,,,
1466441708.90,2.822715,-0.050932,-1.666185,0.032369,-1.440315,0.029454,0.313095,0.050910,0.948357,0.119004,0.001413,-0.067772,-40.732124,132.783859,5.380922,,,,,,
1466441708.91,2.806281,-0.051104,-1.666632,0.035291,-1.653747,0.032925,0.328634,0.051081,0.943075,0.096476,-0.020289,-0.051779,-40.579449,132.800476,6.079234,,,,,,
1466441708.92,2.788240,-0.051414,-1.667092,0.047818,-1.851251,0.035240,0.345588,0.051391,0.936978,0.100106,-0.005767,-0.024808,-40.579449,132.800476,6.079234,,,,,,
1466441708.93,2.768163,-0.051683,-1.667605,0.042230,-2.057247,0.039720,0.364324,0.051660,0.929838,0.074870,0.013373,-0.057173,-40.579449,132.800476,6.079234,,,,,,
1466441708.94,2.746543,-0.051979,-1.668167,0.052716,-2.183610,0.041587,0.384334,0.051955,0.921731,0.060429,-0.002822,-0.017007,-39.896008,132.866165,8.631771,,,,,,
1466441708.95,2.723942,-0.052326,-1.668773,0.054745,-2.265368,0.041038,0.405059,0.052302,0.912793,0.057328,-0.005289,-0.000653,-39.896008,132.866165,8.631771,,,,,,
1466441708.96,2.700294,-0.052707,-1.669418,0.064165,-2.390674,0.045026,0.426521,0.052683,0.902942,0.050316,-0.001261,0.008862,-39.896008,132.866165,8.631771,,,,,,
1466441708.97,2.675869,-0.053032,-1.670082,0.056633,-2.448016,0.048572,0.448438,0.053007,0.892241,0.018435,0.010439,0.000627,-39.896008,132.866165,8.631771,,,,,,
1466441708.98,2.651588,-0.053337,-1.670738,0.056682,-2.414030,0.045165,0.469961,0.053312,0.881076,0.009791,0.009188,0.033978,-38.719101,132.956482,11.959030,,,,,,
1466441708.99,2.627994,-0.053609,-1.671401,0.057854,-2.330145,0.043576,0.490609,0.053584,0.869731,-0.030251,-0.002848,0.049947,-38.719101,132.956482,11.959030,,,,,,
1466441709.00,2.605827,-0.053894,-1.672037,0.053798,-2.177228,0.037291,0.509758,0.053868,0.858630,-0.017830,-0.005833,0.062437,-38.719101,132.956482,11.959030,,,,,,
1466441709.01,2.584040,-0.054152,-1.672618,0.054865,-2.180406,0.034118,0.528335,0.054125,0.847309,-0.011322,-0.009417,0.050488,-37.988522,133.005112,13.642752,,,,,,
1466441709.02,2.563277,-0.054457,-1.673223,0.056153,-2.006265,0.030899,0.545804,0.054430,0.836143,-0.088940,-0.011492,0.072472,-37.988522,133.005112,13.642752,,,,,,
1466441709.03,2.545950,-0.054669,-1.673695,0.040636,-1.650541,0.024394,0.560203,0.054641,0.826551,-0.081184,-0.002975,0.113512,-37.254284,133.049713,15.149508,,,,,,
1466441709.04,2.531181,-0.054856,-1.674107,0.037722,-1.428620,0.021935,0.572342,0.054828,0.818180,-0.088150,-0.002445,0.094982,-37.254284,133.049713,15.149508,,,,,,
1466441709.05,2.518615,-0.055074,-1.674466,0.039108,-1.183326,0.014011,0.582572,0.055046,0.810913,-0.111426,-0.007560,0.085358,-37.254284,133.049713,15.149508,,,,,,
1466441709.06,2.509567,-0.055263,-1.674741,0.027879,-0.801066,0.009474,0.589878,0.055235,0.805601,-0.129047,-0.003050,0.109652,-37.254284,133.049713,15.149508,,,,,,
1466441709.07,2.505509,-0.055453,-1.674835,0.013490,-0.392254,0.004767,0.593136,0.055425,0.803192,-0.139233,0.016978,0.100403,-36.058113,133.116180,17.306246,,,,,,
1466441709.08,2.504186,-0.055534,-1.674868,0.005417,-0.049267,-0.004844,0.594196,0.055506,0.802403,-0.124881,0.004690,0.105892,-36.058113,133.116180,17.306246,,,,,,
1466441709.09,2.515319,-0.054206,-1.674279,0.007955,0.265099,-0.015330,0.585269,0.054180,0.809027,-0.100756,-0.021816,0.095605,-36.058113,133.116180,17.306246,,,,,,
1466441709.10,2.520375,-0.054450,-1.674109,0.007317,0.586857,-0.029057,0.581163,0.054423,0.811965,-0.089769,-0.023844,0.107026,-35.953091,133.114868,17.533398,,,,,,
1466441709.11,2.528992,-0.054863,-1.673789,0.021666,0.954299,-0.054765,0.574132,0.054835,0.816925,-0.081807,-0.051631,0.108170,-35.953091,133.114868,17.533398,,,,,,
1466441709.12,2.540768,-0.055423,-1.673404,0.014571,1.232506,-0.060775,0.564455,0.055395,0.823603,-0.023226,-0.108373,0.189550,-35.953091,133.114868,17.533398,,,,,,
1466441709.13,2.554265,-0.055736,-1.672898,0.005163,1.376907,-0.058497,0.553278,0.055708,0.831132,-0.088587,0.047427,-0.016328,-36.292522,133.091034,17.007132,,,,,,
1466441709.14,2.568898,-0.056314,-1.672485,0.025551,1.484172,-0.070858,0.541040,0.056284,0.839111,0.013113,-0.062479,0.098740,-36.292522,133.091034,17.007132,,,,,,
1466441709.15,2.584238,-0.056694,-1.671984,0.008570,1.541494,-0.062719,0.528094,0.056664,0.847294,-0.019091,0.007270,0.022076,-36.872959,133.049728,16.055235,,,,,,
1466441709.16,2.600275,-0.057166,-1.671551,0.010813,1.633867,-0.062232,0.514424,0.057135,0.855630,-0.020512,0.024270,0.004569,-36.872959,133.049728,16.055235,,,,,,
1466441709.17,2.618058,-0.057323,-1.671040,-0.016649,1.827100,-0.052826,0.499123,0.057291,0.864635,-0.021248,0.043737,-0.006664,-36.872959,133.049728,16.055235,,,,,,
1466441709.18,2.635899,-0.059403,-1.670573,-0.030447,1.872735,-0.044610,0.483560,0.059368,0.873295,0.047247,0.085606,-0.039525,-36.872959,133.049728,16.055235,,,,,,
1466441709.19,2.653284,-0.059065,-1.670072,-0.058402,1.687940,-0.023254,0.468315,0.059031,0.881587,0.021980,0.111700,-0.147029,-36.953217,132.842163,12.156793,,,,,,
1466441709.20,2.670075,-0.058634,-1.669634,-0.060526,1.698547,-0.019065,0.453458,0.058600,0.889349,0.031466,0.067895,-0.072058,-36.953217,132.842163,12.156793,,,,,,
1466441709.21,2.687898,-0.057928,-1.669169,-0.089182,1.790906,-0.007964,0.437554,0.057896,0.897326,0.031272,0.074032,-0.064029,-36.953217,132.842163,12.156793,,,,,,
1466441709.22,2.704853,-0.057292,-1.668737,-0.070190,1.642262,-0.013400,0.422293,0.057261,0.904649,0.097925,0.015051,-0.035081,-37.968544,132.765976,9.588965,,,,,,
1466441709.23,2.719252,-0.056649,-1.668386,-0.072606,1.425632,-0.004592,0.409239,0.056618,0.910669,0.097551,-0.001519,-0.040902,-37.968544,132.765976,9.588965,,,,,,
1466441709.24,2.731937,-0.056195,-1.668047,-0.047300,1.211165,-0.013866,0.397665,0.056165,0.915810,0.125559,-0.045713,-0.021279,-37.968544,132.765976,9.588965,,,,,,
1466441709.25,2.742143,-0.055908,-1.667792,-0.033792,0.948887,-0.010079,0.388304,0.055879,0.919836,0.128313,-0.047120,-0.018743,-38.275200,132.746124,8.593180,,,,,,
1466441709.26,2.749612,-0.055809,-1.667574,-0.009625,0.680259,-0.015821,0.381424,0.055780,0.922716,0.136703,-0.053522,-0.039430,-38.275200,132.746124,8.593180,,,,,,
1466441709.27,2.752919,-0.055305,-1.667526,0.002817,0.415853,-0.013086,0.378382,0.055277,0.923997,0.134969,-0.050607,-0.038972,-38.495934,132.729080,7.837337,,,,,,
1466441709.28,2.755379,-0.055482,-1.667428,0.018510,0.188628,-0.014839,0.376104,0.055454,0.924917,0.123728,-0.029590,-0.059499,-38.495934,132.729080,7.837337,,,,,,
1466441709.29,2.747750,-0.053709,-1.667839,0.032037,-0.057761,-0.012216,0.383187,0.053684,0.922110,0.113960,-0.032962,-0.034796,-38.495934,132.729080,7.837337,,,,,,
1466441709.30,2.745295,-0.054061,-1.667878,0.035991,-0.300916,-0.010687,0.385441,0.054035,0.921149,0.084728,-0.011966,-0.068152,-38.495934,132.729080,7.837337,,,,,,
1466441709.31,2.734321,-0.055205,-1.668337,0.038946,-0.483601,-0.003151,0.395502,0.055176,0.916806,0.085150,0.010818,-0.053159,-38.421497,132.747604,7.888375,,,,,,
1466441709.32,2.728122,-0.055477,-1.668483,0.030192,-0.663056,0.003288,0.401172,0.055448,0.914323,0.057095,0.030962,-0.076066,-38.421497,132.747604,7.888375,,,,,,
1466441709.33,2.720627,-0.055645,-1.668897,0.034236,-0.754510,0.053895,0.408009,0.055616,0.911282,0.054836,0.043169,-0.070264,-38.330341,132.755447,8.194156,,,,,,
1466441709.34,2.712420,-0.056085,-1.669243,0.053077,-0.951062,0.094531,0.415464,0.056056,0.907881,0.222582,-0.064768,0.166216,-38.330341,132.755447,8.194156,,,,,,
1466441709.35,2.702958,-0.055704,-1.669152,0.035135,-0.934935,0.025223,0.424045,0.055675,0.903928,-0.249118,0.164631,-0.690732,-38.330341,132.755447,8.194156,,,,,,
1466441709.36,2.693855,-0.056361,-1.669730,0.038257,-0.922315,0.068789,0.432240,0.056331,0.899998,0.193661,-0.039150,0.270367,-38.330341,132.755447,8.194156,,,,,,
1466441709.37,2.683636,-0.056013,-1.669699,-0.004399,-1.048523,0.023767,0.441423,0.055984,0.895551,0.026381,-0.157104,0.174838,-37.985287,132.782837,9.284439,,,,,,
1466441709.38,2.677115,-0.056377,-1.669891,-0.037211,-0.275115,-0.125881,0.447244,0.056347,0.892635,0.708182,0.066990,0.916187,-37.985287,132.782837,9.284439,,,,,,
1466441709.39,2.690840,-0.056385,-1.669561,0.038958,1.918464,-0.115080,0.434951,0.056355,0.898689,0.355653,0.121043,0.546898,-37.985287,132.782837,9.284439,,,,,,
1466441709.40,2.717208,-0.056336,-1.668709,-0.106060,2.693486,-0.059412,0.411107,0.056306,0.909846,0.081309,-0.103975,0.007420,-37.860790,132.793198,9.638124,,,,,,
1466441709.41,2.736883,-0.056461,-1.668057,0.037369,1.624132,-0.035531,0.393125,0.056431,0.917752,-0.063016,0.035457,-0.458844,-37.860790,132.793198,9.638124,,,,,,
1466441709.42,2.748736,-0.056586,-1.667418,-0.020622,1.156032,-0.078425,0.382216,0.056556,0.922341,0.249849,-0.138786,0.256431,-38.450874,132.734955,7.957823,,,,,,
1466441709.43,2.761392,-0.057205,-1.667046,0.050863,1.279156,-0.075932,0.370500,0.057174,0.927071,0.015090,-0.015182,-0.176613,-38.450874,132.734955,7.957823,,,,,,
1466441709.44,2.769840,-0.057652,-1.666617,0.025501,0.627146,-0.044193,0.362646,0.057620,0.930144,0.028910,-0.085314,-0.203292,-38.450874,132.734955,7.957823,,,,,,
1466441709.45,2.764420,-0.055889,-1.666827,0.121582,-0.022745,-0.045343,0.367718,0.055859,0.928258,0.110980,-0.051343,-0.025517,-38.795052,132.690170,6.973381,,,,,,
1466441709.46,2.765333,-0.056873,-1.666578,0.063302,0.180123,-0.059446,0.366851,0.056842,0.928542,0.062150,0.022595,-0.053908,-38.795052,132.690170,6.973381,,,,,,
1466441709.47,2.769657,-0.057638,-1.666297,0.062627,0.491232,-0.061398,0.362816,0.057606,0.930078,0.153526,0.107509,0.023718,-38.795052,132.690170,6.973381,,,,,,
1466441709.48,2.774762,-0.058238,-1.665994,0.038127,0.500768,-0.049774,0.358050,0.058205,0.931886,0.176358,0.031089,0.055052,-38.964367,132.657822,6.636742,,,,,,
1466441709.49,2.779528,-0.058772,-1.665695,0.039155,0.476338,-0.046426,0.353594,0.058738,0.933553,0.119749,0.044061,-0.029958,-38.964367,132.657822,6.636742,,,,,,
1466441709.50,2.782192,-0.060357,-1.665550,0.025542,0.654712,-0.048622,0.351073,0.060320,0.934403,0.154619,0.050108,0.039458,-38.964367,132.657822,6.636742,,,,,,
1466441709.51,2.792004,-0.060669,-1.665056,0.008016,1.102820,-0.057837,0.341881,0.060631,0.937785,0.196373,0.064750,0.099614,-39.155563,132.625397,6.140795,,,,,,
1466441709.52,2.807100,-0.060787,-1.664405,-0.017919,1.639058,-0.066548,0.327684,0.060750,0.942832,0.246916,0.047283,0.119561,-39.155563,132.625397,6.140795,,,,,,
1466441709.53,2.827314,-0.060773,-1.663582,-0.030055,2.134952,-0.079250,0.308560,0.060736,0.949264,0.284915,0.027262,0.113587,-39.155563,132.625397,6.140795,,,,,,
1466441709.54,2.851749,-0.060670,-1.662609,-0.042319,2.524672,-0.093416,0.285277,0.060633,0.956525,0.255632,0.016638,0.024264,-39.751572,132.526779,4.102499,,,,,,
1466441709.55,2.878456,-0.060439,-1.661545,-0.052757,2.688201,-0.096581,0.259636,0.060403,0.963816,0.213768,0.037010,-0.086588,-39.751572,132.526779,4.102499,,,,,,
1466441709.56,2.904711,-0.060149,-1.660498,-0.053973,2.572456,-0.092663,0.234248,0.060113,0.970317,0.185490,0.008994,-0.162196,-39.751572,132.526779,4.102499,,,,,,
1466441709.57,2.927802,-0.059860,-1.659519,-0.050197,2.191261,-0.088139,0.211786,0.059824,0.975483,0.131216,0.039022,-0.289235,-40.157719,132.449829,2.182750,,,,,,
1466441709.58,2.944946,-0.059532,-1.658699,-0.045744,1.520158,-0.069024,0.195036,0.059497,0.978990,0.087282,0.013440,-0.377122,-40.157719,132.449829,2.182750,,,,,,
1466441709.59,2.952850,-0.059344,-1.658141,-0.025735,0.520948,-0.046770,0.187294,0.059309,0.980512,0.046562,0.021089,-0.455609,-40.157719,132.449829,2.182750,,,,,,
1466441709.60,2.949250,-0.059277,-1.657881,-0.004901,-0.661970,-0.018042,0.190823,0.059243,0.979835,-0.035413,0.015434,-0.455574,-40.623631,132.324432,-0.572969,,,,,,
1466441709.61,2.934086,-0.059377,-1.657946,0.014919,-1.802418,0.011484,0.205658,0.059342,0.976823,-0.073456,-0.001786,-0.440080,-40.623631,132.324432,-0.572969,,,,,,
1466441709.62,2.905431,-0.059673,-1.658408,0.048181,-3.250813,0.049341,0.233556,0.059638,0.970513,-0.137609,-0.016379,-0.437081,-40.623631,132.324432,-0.572969,,,,,,
1466441709.63,2.860822,-0.060206,-1.659343,0.083391,-4.851035,0.083894,0.276594,0.060170,0.959101,-0.110686,-0.005620,-0.324824,-40.653294,132.316437,0.190917,,,,,,
1466441709.65,2.730962,-0.061638,-1.662500,0.140870,-7.340053,0.144269,0.398430,0.061599,0.915128,-0.046699,-0.008391,-0.006650,-40.653294,132.316437,0.190917,,,,,,
1466441709.64,2.801785,-0.060896,-1.660701,0.113576,-6.216590,0.114842,0.332688,0.060858,0.941071,-0.096650,-0.004431,-0.175568,-40.653294,132.316437,0.190917,,,,,,
1466441709.66,2.649951,-0.062335,-1.664925,0.180020,-8.294788,0.206711,0.471157,0.062295,0.879847,0.025043,-0.016412,0.167578,-40.653294,132.316437,0.190917,,,,,,
1466441709.67,2.568120,-0.063050,-1.667271,0.172018,-7.968664,0.151436,0.541474,0.063008,0.838353,0.107467,0.008815,0.409587,-39.348885,132.477219,7.862358,,,,,,
1466441709.68,2.498154,-0.063384,-1.669082,0.121537,-6.657248,0.119743,0.598745,0.063342,0.798431,-0.035101,-0.015429,0.474961,-39.348885,132.477219,7.862358,,,,,,
1466441709.69,2.436203,-0.063819,-1.670925,0.160554,-6.114677,0.113185,0.647010,0.063776,0.759809,-0.125694,-0.024958,0.368227,-37.129162,132.650299,13.626878,,,,,,
1466441709.70,2.374834,-0.064119,-1.672799,0.142451,-6.108312,0.118450,0.692379,0.064075,0.718684,-0.154567,-0.003589,0.284063,-37.129162,132.650299,13.626878,,,,,,
1466441709.71,2.318960,-0.064406,-1.674518,0.141346,-5.315104,0.098572,0.731420,0.064361,0.678884,-0.173558,-0.025848,0.378489,-37.129162,132.650299,13.626878,,,,,,
1466441709.72,2.274421,-0.064616,-1.675863,0.102356,-4.178894,0.069053,0.760911,0.064571,0.645636,-0.248414,-0.014324,0.366678,-32.111088,132.913940,21.520452,,,,,,
1466441709.73,2.239273,-0.064810,-1.676916,0.091774,-3.301798,0.048640,0.783119,0.064765,0.618490,-0.325233,-0.007361,0.346842,-32.111088,132.913940,21.520452,,,,,,
1466441709.74,2.211385,-0.065016,-1.677792,0.076687,-2.616892,0.031556,0.800050,0.064970,0.596405,-0.357469,-0.000273,0.342163,-32.111088,132.913940,21.520452,,,,,,
1466441709.75,2.190534,-0.065181,-1.678498,0.064823,-1.892731,0.024873,0.812302,0.065135,0.579588,-0.355469,-0.009120,0.342165,-30.144806,132.999954,23.720619,,,,,,
1466441709.76,2.178227,-0.065391,-1.678953,0.040439,-0.985895,0.003195,0.819362,0.065344,0.569540,-0.355266,0.001977,0.274027,-30.144806,132.999954,23.720619,,,,,,
1466441709.77,2.176280,-0.065625,-1.679017,0.015184,0.070664,-0.022617,0.820457,0.065578,0.567934,-0.334266,-0.019558,0.295744,-30.144806,132.999954,23.720619,,,,,,
1466441709.78,2.184261,-0.065871,-1.678782,-0.013424,1.021010,-0.034992,0.815885,0.065823,0.574455,-0.312314,0.009418,0.233681,-30.144806,132.999954,23.720619,,,,,,
1466441709.79,2.200367,-0.066136,-1.678304,-0.026270,1.799344,-0.049466,0.806513,0.066088,0.587511,-0.275690,0.033887,0.201292,-28.525660,133.070526,25.276272,,,,,,
1466441709.80,2.225275,-0.066345,-1.677550,-0.054880,2.732728,-0.071315,0.791620,0.066296,0.607407,-0.237390,-0.009030,0.216308,-28.525660,133.070526,25.276272,,,,,,
1466441709.81,2.261103,-0.066514,-1.676453,-0.082170,3.875276,-0.091282,0.769346,0.066465,0.635366,-0.219511,0.012973,0.194529,-29.235699,133.039505,24.619715,,,,,,
1466441709.82,2.309299,-0.066686,-1.674954,-0.108261,5.115525,-0.117182,0.737834,0.066636,0.671685,-0.149012,0.000472,0.239753,-29.235699,133.039505,24.619715,,,,,,
1466441709.83,2.369190,-0.066733,-1.673028,-0.141952,6.236845,-0.143405,0.696305,0.066684,0.714642,-0.021561,0.009122,0.259784,-29.235699,133.039505,24.619715,,,,,,
1466441709.84,2.436281,-0.066563,-1.670882,-0.159356,6.794297,-0.145854,0.646836,0.066514,0.759723,0.031753,0.032592,0.203091,-33.506535,132.836792,19.800699,,,,,,
1466441709.85,2.505463,-0.066227,-1.668740,-0.159215,6.910028,-0.144451,0.592785,0.066179,0.802637,0.067097,0.029357,0.190115,-33.506535,132.836792,19.800699,,,,,,
1466441709.86,2.573360,-0.065649,-1.666661,-0.166950,6.701889,-0.132509,0.536984,0.065602,0.841038,0.053393,0.050854,0.151241,-33.506535,132.836792,19.800699,,,,,,
1466441709.87,2.637228,-0.064904,-1.664802,-0.157967,6.246333,-0.115805,0.482234,0.064858,0.873638,0.049398,0.053672,0.082355,-36.298458,132.678406,15.467017,,,,,,
1466441709.88,2.696361,-0.063994,-1.663114,-0.158549,5.791863,-0.106569,0.429785,0.063951,0.900663,0.102121,0.019042,0.050081,-36.298458,132.678406,15.467017,,,,,,
1466441709.89,2.752002,-0.062980,-1.661611,-0.153640,5.479659,-0.092897,0.379057,0.062939,0.923231,0.147570,0.046940,0.014224,-36.298458,132.678406,15.467017,,,,,,
1466441709.90,2.803424,-0.061874,-1.660302,-0.148940,4.991213,-0.084506,0.331126,0.061834,0.941558,0.214239,0.031351,-0.053833,-39.681538,132.430832,6.915130,,,,,,
1466441709.91,2.847639,-0.060829,-1.659253,-0.112624,4.254266,-0.067075,0.289203,0.060791,0.955336,0.226712,-0.056549,-0.069792,-39.681538,132.430832,6.915130,,,,,,
1466441709.92,2.884341,-0.060113,-1.658340,-0.088045,3.479135,-0.061125,0.253964,0.060077,0.965346,0.226321,-0.048313,-0.114485,-39.681538,132.430832,6.915130,,,,,,
1466441709.93,2.914481,-0.059500,-1.657638,-0.073934,2.860070,-0.047648,0.224766,0.059465,0.972597,0.218533,0.002898,-0.137209,-40.375782,132.356232,3.463039,,,,,,
1466441709.94,2.939007,-0.059039,-1.657053,-0.051182,2.318548,-0.047422,0.200852,0.059005,0.977843,0.265243,0.008134,-0.104857,-40.375782,132.356232,3.463039,,,,,,
1466441709.95,2.958678,-0.058578,-1.656627,-0.054968,1.867248,-0.031822,0.181584,0.058545,0.981631,0.238582,0.007678,-0.167682,-40.375782,132.356232,3.463039,,,,,,
1466441709.96,2.973549,-0.058291,-1.656320,-0.026892,1.343744,-0.021060,0.166970,0.058258,0.984239,0.261894,0.002090,-0.153124,-40.797882,132.270355,-0.670085,,,,,,
1466441709.97,2.981971,-0.058151,-1.656131,-0.013909,0.664175,-0.013592,0.158676,0.058118,0.985619,0.259278,-0.024366,-0.175240,-40.797882,132.270355,-0.670085,,,,,,
1466441709.98,2.982938,-0.058262,-1.656128,0.019196,-0.091872,0.000763,0.157722,0.058229,0.985765,0.225289,-0.029070,-0.186250,-40.797882,132.270355,-0.670085,,,,,,
1466441709.99,2.977145,-0.058566,-1.656281,0.035432,-0.719423,0.011102,0.163426,0.058532,0.984818,0.218989,-0.002532,-0.160355,-40.826889,132.253983,-1.552760,,,,,,
1466441710.00,2.966394,-0.058956,-1.656516,0.046543,-1.191942,0.018334,0.174001,0.058922,0.982981,0.219340,0.001442,-0.137812,-40.826889,132.253983,-1.552760,,,,,,
1466441710.01,2.950464,-0.059400,-1.656854,0.050112,-1.730299,0.029165,0.189632,0.059365,0.980059,0.184834,0.019172,-0.152926,-40.826889,132.253983,-1.552760,,,,,,
1466441710.02,2.929258,-0.059927,-1.657340,0.065430,-2.236810,0.040873,0.210365,0.059891,0.975787,0.156640,-0.002365,-0.117236,-40.793144,132.272766,-0.447891,,,,,,
1466441710.03,2.904159,-0.060537,-1.657901,0.072456,-2.580832,0.040908,0.234778,0.060500,0.970164,0.162195,-0.002929,-0.070857,-40.793144,132.272766,-0.447891,,,,,,
1466441710.04,2.876066,-0.061225,-1.658532,0.083786,-2.882396,0.044940,0.261926,0.061187,0.963146,0.160987,-0.013366,-0.046215,-40.793144,132.272766,-0.447891,,,,,,
1466441710.05,2.845106,-0.061973,-1.659242,0.094097,-3.145736,0.049795,0.291601,0.061934,0.954533,0.155954,-0.010450,-0.023747,-40.671303,132.305038,1.259501,,,,,,
1466441710.06,2.813202,-0.062725,-1.659996,0.095121,-3.182891,0.046836,0.321885,0.062683,0.944701,0.166945,0.002670,0.004243,-40.671303,132.305038,1.259501,,,,,,
1466441710.07,2.780678,-0.063497,-1.660746,0.098211,-3.267835,0.046307,0.352418,0.063454,0.933689,0.122115,0.009681,0.005459,-40.671303,132.305038,1.259501,,,,,,
1466441710.08,2.746378,-0.064275,-1.661588,0.103244,-3.492951,0.051982,0.384211,0.064230,0.921008,0.067037,0.012888,-0.014117,-39.994232,132.392334,5.753092,,,,,,
1466441710.09,2.709043,-0.064967,-1.662548,0.102857,-3.791335,0.060239,0.418303,0.064921,0.905985,0.028170,0.018560,0.000921,-39.994232,132.392334,5.753092,,,,,,
1466441710.10,2.671558,-0.065610,-1.663490,0.096609,-3.686202,0.055316,0.451943,0.065563,0.889634,0.006858,0.010654,0.092162,-39.994232,132.392334,5.753092,,,,,,
1466441710.11,2.637545,-0.066138,-1.664375,0.085384,-3.301817,0.050765,0.481918,0.066090,0.873721,-0.027419,0.008419,0.120435,-39.346287,132.450058,8.319731,,,,,,
1466441710.12,2.606395,-0.066651,-1.665174,0.085715,-3.049088,0.041729,0.508879,0.066601,0.858258,-0.045988,-0.009946,0.131625,-39.346287,132.450058,8.319731,,,,,,
1466441710.13,2.577974,-0.067119,-1.665905,0.074362,-2.769816,0.035709,0.533046,0.067069,0.843424,-0.077907,0.004754,0.105887,-39.346287,132.450058,8.319731,,,,,,
1466441710.15,2.529056,-0.067862,-1.667147,0.049523,-2.201736,0.031057,0.573621,0.067810,0.816309,-0.110166,0.036301,0.100073,-37.701557,132.561081,12.904129,,,,,,
1466441710.14,2.551892,-0.067549,-1.666574,0.070387,-2.543650,0.034286,0.554844,0.067498,0.829212,-0.101002,0.017417,0.121685,-37.701557,132.561081,12.904129,,,,,,
1466441710.16,2.511103,-0.067973,-1.667532,0.025759,-1.630462,0.023192,0.588179,0.067921,0.805873,-0.103896,0.047527,0.086903,-37.701557,132.561081,12.904129,,,,,,
1466441710.17,2.500278,-0.067932,-1.667721,0.001116,-0.906297,0.017562,0.596870,0.067879,0.799462,-0.132392,0.036323,0.113090,-36.744774,131.000778,16.972319,,,,,,
1466441710.18,2.495030,-0.067826,-1.667738,-0.008914,-0.429516,0.004981,0.601061,0.067774,0.796324,-0.119921,0.009543,0.102830,-36.744774,131.000778,16.972319,,,,,,
1466441710.19,2.503390,-0.066967,-1.666920,-0.007736,-0.338138,0.003344,0.594418,0.066917,0.801367,-0.128185,-0.010628,0.081048,-36.744774,131.000778,16.972319,,,,,,
1466441710.21,2.492407,-0.067091,-1.667110,0.019436,-0.739525,0.010146,0.603178,0.067040,0.794784,-0.187559,-0.010384,0.118012,-36.250893,130.998169,18.022097,,,,,,
1466441710.20,2.499077,-0.067001,-1.666948,0.008071,-0.474048,0.001019,0.597867,0.066951,0.798794,-0.152494,-0.027492,0.107089,-36.250893,130.998169,18.022097,,,,,,
1466441710.22,2.482455,-0.067167,-1.667526,0.037064,-1.071954,0.039924,0.611055,0.067117,0.788738,-0.199769,0.004630,0.120350,-36.250893,130.998169,18.022097,,,,,,
1466441710.23,2.473196,-0.067320,-1.667934,0.023585,-0.811755,0.020183,0.618325,0.067269,0.783039,-0.141457,0.025092,0.047970,-36.040966,131.004852,18.390772,,,,,,
1466441710.24,2.471906,-0.067149,-1.667858,-0.025289,0.099331,0.001647,0.619341,0.067099,0.782249,-0.126849,0.021906,0.122490,-36.040966,131.004852,18.390772,,,,,,
1466441710.25,2.476136,-0.067079,-1.667811,-0.003560,0.453948,0.004767,0.616030,0.067029,0.784866,-0.130602,0.005939,0.161499,-36.040966,131.004852,18.390772,,,,,,
1466441710.27,2.496049,-0.066453,-1.666899,-0.028601,0.842664,-0.011535,0.600305,0.066404,0.797010,-0.085504,-0.004362,0.083895,-35.664810,131.032776,18.917656,,,,,,
1466441710.26,2.480129,-0.066956,-1.667753,-0.019585,0.403004,-0.000252,0.612896,0.066906,0.787326,-0.135006,0.000736,0.032056,-35.664810,131.032776,18.917656,,,,,,
1466441710.28,2.507276,-0.066327,-1.666586,-0.028166,1.180332,-0.018974,0.591325,0.066278,0.803705,-0.084809,-0.001047,0.134603,-35.664810,131.032776,18.917656,,,,,,
1466441710.29,2.519846,-0.066152,-1.666258,-0.034438,1.280133,-0.015349,0.581182,0.066104,0.811085,-0.082982,0.010236,0.054455,-36.079205,131.000992,18.343204,,,,,,
1466441710.30,2.534699,-0.065922,-1.665787,-0.048982,1.557291,-0.024552,0.569080,0.065874,0.819640,-0.041629,0.014753,0.041933,-36.079205,131.000992,18.343204,,,,,,
1466441710.31,2.551763,-0.065689,-1.665315,-0.046680,1.699564,-0.022249,0.555020,0.065642,0.829243,-0.049695,0.016054,0.046856,-36.079205,131.000992,18.343204,,,,,,
1466441710.33,2.588555,-0.065140,-1.664328,-0.054783,2.014950,-0.033815,0.524161,0.065094,0.849128,-0.002707,-0.011657,0.055337,-37.159374,130.943176,16.507854,,,,,,
1466441710.32,2.569086,-0.065432,-1.664896,-0.046619,1.751586,-0.020446,0.540581,0.065385,0.838747,-0.046562,0.008620,0.030638,-37.159374,130.943176,16.507854,,,,,,
1466441710.34,2.609432,-0.064940,-1.663732,-0.045115,2.073362,-0.040559,0.506327,0.064895,0.859896,0.027075,-0.021941,0.055417,-37.159374,130.943176,16.507854,,,,,,
1466441710.35,2.629322,-0.064755,-1.663199,-0.038871,1.957622,-0.039827,0.489130,0.064710,0.869807,-0.005961,-0.012525,0.027898,-37.812378,130.907455,15.261198,,,,,,
1466441710.36,2.649589,-0.064559,-1.662639,-0.044070,2.055314,-0.041509,0.471409,0.064514,0.879552,0.027996,-0.002014,0.038508,-37.812378,130.907455,15.261198,,,,,,
1466441710.37,2.669937,-0.064567,-1.662097,-0.016463,1.988418,-0.045320,0.453415,0.064522,0.888961,0.079681,-0.058571,0.103425,-37.812378,130.907455,15.261198,,,,,,
1466441710.38,2.688621,-0.064662,-1.661592,-0.012357,1.849349,-0.055088,0.436725,0.064617,0.897271,0.026150,-0.036007,-0.041070,-39.151608,130.821548,12.341646,,,,,,
1466441710.39,2.708214,-0.064922,-1.661068,0.000610,1.999060,-0.057078,0.419055,0.064877,0.905640,0.069806,-0.035900,0.042251,-39.151608,130.821548,12.341646,,,,,,
1466441710.40,2.728402,-0.064849,-1.660453,-0.038817,1.985256,-0.049580,0.400689,0.064804,0.913919,0.069617,0.092835,-0.070444,-39.151608,130.821548,12.341646,,,,,,
1466441710.41,2.745983,-0.064757,-1.660039,-0.032852,1.683639,-0.025329,0.384563,0.064712,0.920828,0.029026,0.086945,-0.082357,-39.735920,130.777481,10.851229,,,,,,
1466441710.42,2.762109,-0.064365,-1.659661,-0.051057,1.605066,-0.021661,0.369674,0.064321,0.926933,0.042191,0.051493,-0.093467,-39.735920,130.777481,10.851229,,,,,,
1466441710.43,2.777874,-0.064145,-1.659287,-0.030887,1.548795,-0.026610,0.355021,0.064101,0.932658,0.126989,-0.016677,0.010777,-39.735920,130.777481,10.851229,,,,,,
1466441710.44,2.791382,-0.064063,-1.658905,-0.014196,1.260000,-0.033298,0.342392,0.064019,0.937374,0.137283,-0.066766,-0.009700,-40.574860,130.710373,8.241427,,,,,,
1466441710.45,2.800016,-0.064020,-1.658726,0.011899,0.847994,-0.027494,0.334287,0.063976,0.940298,0.132724,-0.035427,-0.064062,-40.574860,130.710373,8.241427,,,,,,
1466441710.46,2.806660,-0.064068,-1.658491,-0.008636,0.615452,-0.019670,0.328032,0.064024,0.942495,0.137575,0.045595,-0.124883,-40.574860,130.710373,8.241427,,,,,,
1466441710.47,2.811214,-0.064049,-1.658372,-0.003622,0.387129,-0.006524,0.323736,0.064005,0.943980,0.122095,0.056326,-0.122233,-40.810596,130.688324,7.382488,,,,,,
1466441710.48,2.812447,-0.063904,-1.658361,-0.016872,0.028214,0.007423,0.322575,0.063860,0.944387,0.122265,0.066038,-0.148794,-40.810596,130.688324,7.382488,,,,,,
1466441710.49,2.797892,-0.063825,-1.659224,0.003957,-0.340310,0.011885,0.336288,0.063782,0.939597,0.124253,-0.003418,-0.099372,-40.810596,130.688324,7.382488,,,,,,
1466441710.50,2.792232,-0.063889,-1.659378,0.011044,-0.634430,0.012673,0.341599,0.063845,0.937675,0.128692,-0.021853,-0.075431,-40.725296,130.709961,7.469853,,,,,,
1466441710.51,2.783829,-0.064087,-1.659583,0.030934,-0.907320,0.013340,0.349461,0.064043,0.934759,0.121562,-0.030550,-0.046545,-40.725296,130.709961,7.469853,,,,,,
1466441710.52,2.772834,-0.064339,-1.659875,0.030614,-1.153673,0.020206,0.359712,0.064294,0.930846,0.094115,-0.001947,-0.053770,-40.725296,130.709961,7.469853,,,,,,
1466441710.54,2.747279,-0.064695,-1.660567,0.019766,-1.300221,0.029630,0.383371,0.064650,0.921329,0.051581,0.031953,-0.036853,-40.584538,130.722839,7.992480,,,,,,
1466441710.53,2.760222,-0.064580,-1.660211,0.028342,-1.260927,0.025135,0.371417,0.064535,0.926221,0.072812,0.041101,-0.068036,-40.584538,130.722839,7.992480,,,,,,
1466441710.55,2.733948,-0.064742,-1.660935,0.020772,-1.343761,0.032033,0.395618,0.064697,0.916134,0.026120,0.030182,-0.027386,-40.584538,130.722839,7.992480,,,,,,
1466441710.56,2.719886,-0.064855,-1.661351,0.027060,-1.422341,0.033597,0.408458,0.064810,0.910473,0.016423,-0.006597,0.007816,-40.008480,130.773315,9.854046,,,,,,
1466441710.57,2.705608,-0.064960,-1.661740,0.032412,-1.409584,0.027135,0.421413,0.064915,0.904543,0.003102,-0.011906,0.016875,-40.008480,130.773315,9.854046,,,,,,
1466441710.58,2.692855,-0.065216,-1.662112,0.037999,-1.206771,0.021611,0.432906,0.065170,0.899080,-0.000594,-0.031311,0.070250,-40.008480,130.773315,9.854046,,,,,,
1466441710.59,2.683544,-0.065454,-1.662319,0.026781,-0.835096,0.005431,0.441252,0.065407,0.894996,0.008134,-0.018700,0.078865,-39.630550,130.804459,10.911441,,,,,,
1466441710.60,2.677375,-0.065702,-1.662464,0.027153,-0.548392,-0.002753,0.446758,0.065655,0.892243,0.014592,-0.009121,0.064087,-39.630550,130.804459,10.911441,,,,,,
1466441710.61,2.673428,-0.066097,-1.662537,0.010439,-0.289311,-0.002266,0.450264,0.066049,0.890449,0.030281,0.013312,0.033745,-39.630550,130.804459,10.911441,,,,,,
1466441710.62,2.671578,-0.067759,-1.662552,-0.000839,0.043049,-0.010750,0.451860,0.067707,0.889516,0.032591,0.026745,0.017436,-39.233833,130.828781,11.999171,,,,,,
1466441710.63,2.673559,-0.069788,-1.662450,-0.016500,0.292566,-0.008074,0.450034,0.069731,0.890285,0.016549,0.033571,0.012654,-39.233833,130.828781,11.999171,,,,,,
1466441710.64,2.676735,-0.070824,-1.662307,-0.019531,0.412559,-0.013088,0.447172,0.070765,0.891644,0.019014,0.019476,0.003513,-39.233833,130.828781,11.999171,,,,,,
1466441710.65,2.681044,-0.071602,-1.662107,-0.025893,0.434854,-0.011106,0.443301,0.071541,0.893514,-0.001879,0.015633,-0.015675,-39.463261,130.798569,11.568490,,,,,,
1466441710.66,2.684672,-0.071586,-1.661932,-0.018525,0.366894,-0.010673,0.440057,0.071524,0.895117,0.005912,0.001794,-0.008139,-39.463261,130.798569,11.568490,,,,,,
1466441710.67,2.687548,-0.071167,-1.661761,-0.015530,0.211865,-0.007568,0.437494,0.071106,0.896406,-0.010278,-0.006943,-0.013273,-39.463261,130.798569,11.568490,,,,,,
1466441710.68,2.688667,-0.070652,-1.661666,-0.005126,0.023914,-0.003186,0.436506,0.070593,0.896927,-0.015577,-0.010275,-0.015763,-39.780605,130.760300,10.894698,,,,,,
1466441710.69,2.688417,-0.069916,-1.661602,0.001093,-0.108812,-0.002346,0.436753,0.069859,0.896865,-0.018052,-0.016255,-0.010207,-39.780605,130.760300,10.894698,,,,,,
1466441710.70,2.687646,-0.069039,-1.661538,0.008484,-0.161893,-0.005199,0.437472,0.068984,0.896582,-0.013155,-0.019881,0.011758,-39.780605,130.760300,10.894698,,,,,,
1466441710.71,2.687024,-0.068376,-1.661471,0.013780,-0.182064,-0.005066,0.438049,0.068322,0.896351,-0.019073,-0.016977,0.022930,-39.736973,130.763336,11.016640,,,,,,
1466441710.72,2.686761,-0.068307,-1.661371,0.010619,-0.156569,-0.006294,0.438287,0.068254,0.896240,-0.029214,-0.004320,0.016449,-39.736973,130.763336,11.016640,,,,,,
1466441710.73,2.687251,-0.068933,-1.661252,0.005359,-0.101353,-0.003453,0.437828,0.068878,0.896416,-0.035149,0.013062,0.017722,-39.736973,130.763336,11.016640,,,,,,
1466441710.75,2.689309,-0.070797,-1.661022,-0.005244,-0.058878,0.003719,0.435926,0.070738,0.897198,-0.049268,0.027620,-0.003171,-39.708450,130.756454,11.199521,,,,,,
1466441710.74,2.688239,-0.069664,-1.661123,0.000059,-0.079052,-0.000406,0.436921,0.069608,0.896803,-0.042176,0.017215,0.015047,-39.708450,130.756454,11.199521,,,,,,
1466441710.76,2.690434,-0.071232,-1.660925,-0.009429,-0.002590,0.002297,0.434903,0.071171,0.897660,-0.032910,0.013347,0.009017,-39.708450,130.756454,11.199521,,,,,,
1466441710.77,2.691886,-0.071413,-1.660820,-0.011532,0.020771,0.004276,0.433593,0.071352,0.898279,-0.030883,0.007993,0.011129,-39.984638,128.951263,13.375066,,,,,,
1466441710.79,2.692179,-0.071004,-1.660749,0.000977,-0.188404,0.007729,0.433343,0.070945,0.898432,-0.036843,-0.009986,-0.001093,-39.984638,128.951263,13.375066,,,,,,
1466441710.78,2.692733,-0.071350,-1.660754,-0.003141,-0.076918,0.007026,0.432834,0.071289,0.898650,-0.033939,0.000580,0.012727,-39.984638,128.951263,13.375066,,,,,,
1466441710.80,2.690480,-0.071052,-1.660822,0.008488,-0.149109,0.003233,0.434867,0.070992,0.897692,-0.016105,-0.018639,0.007291,-40.065815,128.938751,13.252214,,,,,,
1466441710.81,2.689838,-0.071133,-1.660838,0.007582,-0.034413,-0.004939,0.435441,0.071073,0.897407,-0.010057,-0.028730,0.017128,-40.065815,128.938751,13.252214,,,,,,
1466441710.82,2.690559,-0.071427,-1.660796,0.001307,0.056904,-0.004454,0.434785,0.071366,0.897702,-0.006837,0.007965,0.006335,-40.031773,128.941742,13.325768,,,,,,
1466441710.83,2.691643,-0.070922,-1.660758,0.001322,0.074924,-0.001369,0.433827,0.070863,0.898205,0.011958,-0.013978,0.051120,-40.031773,128.941742,13.325768,,,,,,
1466441710.84,2.693115,-0.071621,-1.660704,-0.004926,0.180055,-0.005229,0.432483,0.071559,0.898798,0.003369,0.022679,0.003042,-40.031773,128.941742,13.325768,,,,,,
1466441710.85,2.696169,-0.072514,-1.660600,-0.017536,0.315964,-0.002902,0.429708,0.072451,0.900057,-0.013753,0.018888,-0.020708,-40.053085,128.939560,13.282710,,,,,,
1466441710.86,2.699954,-0.072757,-1.660475,-0.014349,0.312773,-0.000750,0.426291,0.072692,0.901661,-0.018683,0.012192,-0.005878,-40.053085,128.939560,13.282710,,,,,,
1466441710.87,2.701878,-0.072811,-1.660479,-0.016689,0.154548,0.006627,0.424554,0.072747,0.902476,-0.012765,0.004631,-0.029993,-40.053085,128.939560,13.282710,,,,,,
1466441710.88,2.702965,-0.072551,-1.660483,-0.015647,0.134376,0.005690,0.423580,0.072488,0.902954,0.011646,-0.001351,0.010651,-40.322884,128.917358,12.667844,,,,,,
1466441710.89,2.705151,-0.071837,-1.660450,-0.017600,0.271357,0.001636,0.421627,0.071775,0.903924,0.016590,-0.017774,0.019385,-40.322884,128.917358,12.667844,,,,,,
1466441710.90,2.708310,-0.072103,-1.660412,-0.019522,0.430634,-0.002558,0.418762,0.072040,0.905234,0.036195,0.017788,0.008401,-40.322884,128.917358,12.667844,,,,,,
1466441710.91,2.716832,-0.071356,-1.660704,-0.087004,1.151298,0.114202,0.411054,0.071296,0.908819,1.231936,0.151284,-0.471792,-40.314308,128.921677,12.651232,,,,,,
1466441710.92,2.708788,-0.071149,-1.660493,0.042190,-2.125201,0.029499,0.418358,0.071089,0.905496,1.156639,-0.068907,-1.096902,-40.314308,128.921677,12.651232,,,,,,
1466441710.93,2.650233,-0.072187,-1.662174,0.171685,-6.563822,0.137299,0.470596,0.072124,0.879396,0.182724,-0.036159,-0.377565,-40.314308,128.921677,12.651232,,,,,,
1466441710.94,2.599009,-0.072548,-1.663303,0.062919,-4.266880,0.047209,0.514992,0.072484,0.854125,0.317451,-0.015493,0.436235,-40.314308,128.921677,12.651232,,,,,,
1466441710.95,2.574549,-0.072769,-1.663832,0.042309,-2.033880,0.026798,0.535719,0.072705,0.841260,-0.045744,0.007159,0.191363,-39.386791,128.991516,14.695747,,,,,,
1466441710.97,2.542084,-0.072840,-1.664275,0.019484,-1.559237,0.021669,0.562741,0.072776,0.823424,-0.130703,0.027398,0.039980,-38.025398,129.056931,17.449167,,,,,,
1466441710.96,2.557997,-0.072802,-1.663992,0.005600,-1.616526,0.007112,0.549568,0.072738,0.832277,-0.082222,-0.010085,0.020980,-38.025398,129.056931,17.449167,,,,,,
1466441710.98,2.527941,-0.072778,-1.664458,0.001619,-1.376589,0.017312,0.574332,0.072714,0.815386,-0.126197,-0.010351,0.131071,-38.025398,129.056931,17.449167,,,,,,
1466441710.99,2.512698,-0.072718,-1.664716,0.015020,-1.705790,0.033228,0.586697,0.072654,0.806541,-0.186260,0.003137,0.100502,-38.025398,129.056931,17.449167,,,,,,
1466441711.00,2.491070,-0.072684,-1.665228,0.033419,-2.298317,0.048671,0.604004,0.072620,0.793666,-0.224960,-0.002216,0.179753,-38.025398,129.056931,17.449167,,,,,,
1466441711.01,2.465598,-0.072641,-1.665935,0.041545,-2.593532,0.061176,0.624023,0.072577,0.778028,-0.225876,0.009821,0.227267,-36.779385,129.093750,19.702242,,,,,,
1466441711.02,2.438749,-0.072562,-1.666742,0.046713,-2.706106,0.069338,0.644689,0.072499,0.761000,-0.241826,0.004879,0.263476,-36.779385,129.093750,19.702242,,,,,,
1466441711.03,2.411711,-0.072468,-1.667691,0.056321,-2.674277,0.076599,0.665031,0.072405,0.743298,-0.217552,0.011839,0.200962,-36.779385,129.093750,19.702242,,,,,,
1466441711.04,2.389076,-0.072321,-1.668459,0.030496,-2.058389,0.062066,0.681691,0.072258,0.728063,-0.206410,-0.000068,0.142283,-34.303665,129.217209,23.070896,,,,,,
1466441711.05,2.376582,-0.072115,-1.668749,-0.001095,-0.972075,0.028610,0.690745,0.072053,0.719500,-0.209315,-0.032044,0.265073,-34.303665,129.217209,23.070896,,,,,,
1466441711.06,2.372497,-0.071949,-1.668916,-0.001271,-0.261732,0.025220,0.693686,0.071887,0.716681,-0.199912,-0.015582,0.195733,-33.344048,129.262344,24.197395,,,,,,
1466441711.07,2.372688,-0.071344,-1.668915,-0.036135,-0.071605,0.006961,0.693579,0.071283,0.716845,0.705468,-0.050714,-0.242205,-33.344048,129.262344,24.197395,,,,,,
1466441711.08,2.343157,-0.072709,-1.670304,0.056376,-2.628682,0.080571,0.714373,0.072645,0.695984,0.255155,0.063372,-0.596283,-33.344048,129.262344,24.197395,,,,,,
1466441711.09,2.307765,-0.072167,-1.671167,0.019987,-3.620400,0.091013,0.738582,0.072105,0.670297,0.557057,0.002740,-0.226235,-33.344048,129.262344,24.197395,,,,,,
1466441711.10,2.267812,-0.071870,-1.672316,0.082047,-4.217179,0.100140,0.764782,0.071808,0.640275,0.611118,-0.015824,-0.221253,-31.401262,129.360092,26.192047,,,,,,
1466441711.11,2.213087,-0.071020,-1.673883,0.062727,-5.932166,0.177936,0.798707,0.070960,0.597521,0.721877,0.031624,-0.459170,-31.401262,129.360092,26.192047,,,,,,
1466441711.12,2.132382,-0.068615,-1.675655,0.019536,-8.730391,0.339143,0.844420,0.068561,0.531276,-1.757109,0.110348,0.273717,-28.461258,129.475739,28.845888,,,,,,
1466441711.13,2.087528,-0.067093,-1.677901,0.064663,-1.814541,0.169145,0.867482,0.067043,0.492930,-1.080220,-0.087520,2.181402,-28.461258,129.475739,28.845888,,,,,,
1466441711.14,2.132537,-0.066953,-1.675563,-0.218490,5.424696,-0.161811,0.844433,0.066903,0.531466,0.098087,-0.097406,0.685178,-28.461258,129.475739,28.845888,,,,,,
1466441711.15,2.172634,-0.067904,-1.674879,0.039668,3.348608,-0.099569,0.822397,0.067852,0.564853,0.075720,-0.076031,-0.345707,-23.934723,129.656296,31.976051,,,,,,
1466441711.16,2.183468,-0.068320,-1.673887,-0.078173,0.229087,-0.079057,0.816206,0.068267,0.573713,0.665300,-0.061400,-0.935316,-23.934723,129.656296,31.976051,,,,,,
1466441711.17,2.170362,-0.068568,-1.674508,0.110040,-1.502028,0.034174,0.823641,0.068514,0.562958,0.236906,0.036940,-0.326569,-23.934723,129.656296,31.976051,,,,,,
1466441711.18,2.158738,-0.068391,-1.674959,-0.017161,-1.032676,0.041748,0.830139,0.068338,0.553353,0.082840,0.013450,-0.071786,-23.934723,129.656296,31.976051,,,,,,
1466441711.19,2.150710,-0.067895,-1.675173,0.016201,-0.725873,0.054760,0.834583,0.067843,0.546689,-0.135013,0.030317,0.208423,-26.896765,129.513855,30.146574,,,,,,
1466441711.20,2.145165,-0.067821,-1.675566,0.013340,-0.520838,0.015151,0.837605,0.067769,0.542056,-0.113225,-0.020589,0.227078,-26.896765,129.513855,30.146574,,,,,,
1466441711.21,2.147000,-0.067790,-1.675076,-0.004704,-0.477258,0.013793,0.836611,0.067738,0.543593,-0.181276,0.005566,0.272187,-26.896765,129.513855,30.146574,,,,,,
1466441711.22,2.143103,-0.067716,-1.675305,0.011378,-0.370056,0.024846,0.838727,0.067664,0.540332,-0.180265,0.030603,0.241300,-26.061880,129.540573,30.758930,,,,,,
1466441711.24,2.140116,-0.066614,-1.675787,-0.016940,0.049238,0.070088,0.840400,0.066565,0.537864,0.038400,0.030924,-0.064490,-26.061880,129.540573,30.758930,,,,,,
1466441711.23,2.140268,-0.067260,-1.675518,-0.008732,-0.226785,0.053732,0.840281,0.067210,0.537968,-0.154704,0.046545,0.154811,-26.061880,129.540573,30.758930,,,,,,
1466441711.25,2.131526,-0.065028,-1.676300,-0.041709,-0.193906,0.058818,0.845078,0.064982,0.530680,0.131393,-0.023326,-0.178019,-25.766602,129.560883,30.921803,,,,,,
1466441711.26,2.125465,-0.064487,-1.676473,-0.002937,-0.702509,0.054595,0.848308,0.064442,0.525567,-0.019847,-0.033619,-0.006173,-25.766602,129.560883,30.921803,,,,,,
1466441711.27,2.120051,-0.064102,-1.676679,-0.007875,-0.418964,0.037910,0.851162,0.064059,0.520979,-0.072903,-0.037218,0.163927,-25.198158,129.602905,31.212753,,,,,,
1466441711.28,2.120494,-0.063808,-1.676624,-0.020935,0.178882,0.018181,0.850947,0.063765,0.521367,-0.016459,-0.031126,0.097270,-25.198158,129.602905,31.212753,,,,,,
1466441711.29,2.121714,-0.062382,-1.676583,-0.017684,0.209695,0.007349,0.850387,0.062342,0.522451,0.049515,-0.033991,-0.013876,-25.198158,129.602905,31.212753,,,,,,
1466441711.30,2.120986,-0.062256,-1.676593,-0.001127,-0.168321,0.011865,0.850774,0.062216,0.521836,0.038600,-0.012838,-0.034989,-25.198158,129.602905,31.212753,,,,,,
1466441711.31,2.117908,-0.062125,-1.676726,0.002923,-0.321246,0.021344,0.852383,0.062085,0.519219,-0.014447,0.009814,0.013130,-24.579899,129.626236,31.606373,,,,,,
1466441711.32,2.116107,-0.061935,-1.676816,-0.005331,-0.114184,0.017908,0.853327,0.061895,0.517689,0.012518,-0.000829,0.033428,-24.579899,129.626236,31.606373,,,,,,
1466441711.33,2.115470,-0.061765,-1.676814,-0.010605,-0.080195,0.014496,0.853666,0.061726,0.517151,0.020999,-0.005985,-0.019378,-24.579899,129.626236,31.606373,,,,,,
1466441711.34,2.113507,-0.061641,-1.676863,0.000916,-0.234159,0.014409,0.854686,0.061602,0.515478,-0.002909,0.009229,0.007196,-24.298595,129.638092,31.774832,,,,,,
1466441711.35,2.112157,-0.062071,-1.676912,0.004149,-0.204426,0.014224,0.855358,0.062031,0.514310,-0.014751,0.014767,0.022433,-24.298595,129.638092,31.774832,,,,,,
1466441711.36,2.111013,-0.061982,-1.676947,-0.003173,-0.106725,0.009346,0.855951,0.061942,0.513334,0.039145,0.015176,-0.025526,-24.298595,129.638092,31.774832,,,,,,
1466441711.37,2.108412,-0.061827,-1.677013,-0.000212,-0.287243,0.013675,0.857291,0.061788,0.511111,0.006997,-0.000814,-0.003649,-24.220819,129.640640,31.823729,,,,,,
1466441711.38,2.104762,-0.061674,-1.677200,0.009263,-0.356294,0.024762,0.859159,0.061635,0.507983,-0.045926,-0.006719,0.059079,-24.220819,129.640640,31.823729,,,,,,
1466441711.39,2.102849,-0.061485,-1.677304,-0.005354,-0.132235,0.019084,0.860139,0.061446,0.506345,0.006011,-0.004699,0.024966,-24.220819,129.640640,31.823729,,,,,,
1466441711.40,2.101388,-0.060733,-1.677344,-0.007480,-0.126929,0.020115,0.860918,0.060696,0.505111,0.003142,-0.015164,-0.009948,-23.833176,129.658722,32.042011,,,,,,
1466441711.41,2.099475,-0.060526,-1.677439,-0.001183,-0.198076,0.021631,0.861893,0.060489,0.503470,-0.010407,-0.015384,0.014597,-23.833176,129.658722,32.042011,,,,,,
1466441711.42,2.097706,-0.059970,-1.677486,-0.010663,-0.120553,0.017943,0.862811,0.059934,0.501961,0.008572,-0.009763,-0.005379,-23.833176,129.658722,32.042011,,,,,,
1466441711.43,2.096939,-0.059958,-1.677442,-0.013884,-0.137547,0.021239,0.863197,0.059923,0.501299,-0.013450,0.006270,0.008406,-23.609074,129.668121,32.169651,,,,,,
1466441711.44,2.095495,-0.059652,-1.677508,-0.008572,-0.130146,0.031843,0.863936,0.059617,0.500061,-0.059584,0.022887,0.047089,-23.609074,129.668121,32.169651,,,,,,
1466441711.45,2.097374,-0.060077,-1.677421,-0.017976,0.019569,0.036215,0.862972,0.060040,0.501671,-0.044552,0.023166,0.044914,-23.609074,129.668121,32.169651,,,,,,
1466441711.46,2.098238,-0.059610,-1.677436,-0.023212,0.096010,0.039988,0.862563,0.059574,0.502430,-0.013991,0.020351,0.016094,-23.492178,129.669235,32.250580,,,,,,
1466441711.47,2.099472,-0.059815,-1.677427,-0.022233,0.037593,0.047805,0.861932,0.059780,0.503488,-0.033792,0.019948,0.004157,-23.492178,129.669235,32.250580,,,,,,
1466441711.48,2.101220,-0.059783,-1.677403,-0.025399,0.064137,0.050827,0.861052,0.059747,0.504995,-0.023085,0.015891,0.029368,-23.530100,129.670563,32.217598,,,,,,
1466441711.49,2.102247,-0.059134,-1.677434,-0.031737,0.118269,0.058997,0.860566,0.059100,0.505899,-0.030015,0.018308,0.027152,-23.530100,129.670563,32.217598,,,,,,
1466441711.50,2.104552,-0.058437,-1.677421,-0.031712,0.141627,0.060979,0.859433,0.058404,0.507902,-0.011395,0.000297,0.024813,-23.530100,129.670563,32.217598,,,,,,
1466441711.51,2.105749,-0.057727,-1.677454,-0.033879,0.112957,0.062221,0.858860,0.057695,0.508951,-0.005665,-0.012270,0.017706,-23.530100,129.670563,32.217598,,,,,,
1466441711.52,2.107536,-0.056468,-1.677425,-0.036010,0.109782,0.060111,0.858011,0.056438,0.510521,-0.010217,-0.017452,0.019569,-23.497244,129.679825,32.204273,,,,,,
1466441711.53,2.109001,-0.055788,-1.677412,-0.035936,0.166063,0.057629,0.857295,0.055759,0.511798,-0.028773,-0.024982,0.048948,-23.497244,129.679825,32.204273,,,,,,
1466441711.54,2.114098,-0.054052,-1.677251,-0.033697,0.254209,0.056016,0.854756,0.054026,0.516210,-0.046452,-0.034861,0.074610,-23.497244,129.679825,32.204273,,,,,,
1466441711.55,2.119737,-0.052630,-1.677125,-0.032466,0.382709,0.050955,0.851897,0.052606,0.521061,-0.024535,-0.026864,0.066814,-23.388546,129.685287,32.261360,,,,,,
1466441711.56,2.124494,-0.051493,-1.677021,-0.038822,0.406081,0.048674,0.849459,0.051470,0.525139,-0.006273,-0.018527,0.018684,-23.388546,129.685287,32.261360,,,,,,
1466441711.57,2.129328,-0.050358,-1.676921,-0.029290,0.357256,0.042604,0.846959,0.050337,0.529270,-0.009419,-0.020094,0.041058,-23.388546,129.685287,32.261360,,,,,,
1466441711.59,2.139268,-0.048445,-1.676675,-0.028094,0.427409,0.018750,0.841736,0.048426,0.537713,0.009399,-0.018030,0.032386,-23.475183,129.683136,32.207012,,,,,,
1466441711.58,2.134352,-0.049288,-1.676830,-0.024956,0.401885,0.031686,0.844334,0.049268,0.533547,-0.000981,-0.022275,0.047890,-23.475183,129.683136,32.207012,,,,,,
1466441711.60,2.143771,-0.047871,-1.676527,-0.018539,0.388152,0.007298,0.839329,0.047853,0.541513,0.015697,-0.015046,0.028601,-23.601797,129.678574,32.132771,,,,,,
1466441711.61,2.148346,-0.047540,-1.676390,-0.012187,0.356306,0.005375,0.836857,0.047522,0.545356,-0.004154,-0.007391,0.038400,-23.601797,129.678574,32.132771,,,,,,
1466441711.62,2.151869,-0.047424,-1.676352,-0.009010,0.347801,0.008625,0.834935,0.047407,0.548303,-0.006520,-0.003354,0.033774,-23.601797,129.678574,32.132771,,,,,,
1466441711.63,2.155092,-0.047298,-1.676359,-0.003738,0.309567,0.010999,0.833168,0.047280,0.550995,-0.003334,0.003272,0.026229,-23.813896,129.669556,32.012470,,,,,,
1466441711.64,2.157628,-0.047259,-1.676428,0.006829,0.237374,0.006140,0.831770,0.047242,0.553107,-0.012708,-0.000794,0.041970,-23.813896,129.669556,32.012470,,,,,,
1466441711.65,2.161744,-0.047278,-1.676487,0.017533,0.272434,-0.000456,0.829485,0.047261,0.556526,-0.018084,-0.001713,0.054085,-23.813896,129.669556,32.012470,,,,,,
1466441711.66,2.164852,-0.047378,-1.676574,0.011206,0.315980,-0.003929,0.827747,0.047360,0.559099,-0.019321,0.002552,0.028746,-24.205708,129.674026,31.698950,,,,,,
1466441711.67,2.167949,-0.047423,-1.676685,0.013305,0.307458,0.005707,0.826010,0.047405,0.561658,-0.048087,0.007618,0.036776,-24.205708,129.674026,31.698950,,,,,,
1466441711.68,2.171198,-0.047348,-1.676827,0.003735,0.336099,0.017227,0.824184,0.047331,0.564341,-0.061428,0.015887,0.054022,-24.205708,129.674026,31.698950,,,,,,
1466441711.69,2.175708,-0.047490,-1.676892,-0.002621,0.364770,0.019168,0.821625,0.047472,0.568048,-0.022248,0.010984,0.017981,-24.403259,129.681564,31.516102,,,,,,
1466441711.70,2.178478,-0.047298,-1.676933,-0.008093,0.242671,0.017800,0.820056,0.047280,0.570327,-0.013476,0.002204,0.001389,-24.403259,129.681564,31.516102,,,,,,
1466441711.71,2.180559,-0.047191,-1.676955,-0.004919,0.209783,0.007365,0.818871,0.047173,0.572035,-0.020119,-0.004723,0.020814,-24.403259,129.681564,31.516102,,,,,,
1466441711.72,2.183124,-0.047092,-1.676854,-0.016540,0.273511,0.001631,0.817405,0.047075,0.574137,-0.036445,-0.002779,0.031118,-24.754469,129.692825,31.194208,,,,,,
1466441711.73,2.188567,-0.047157,-1.676629,-0.018588,0.346773,0.006491,0.814266,0.047140,0.578575,-0.063091,0.006190,0.042457,-24.754469,129.692825,31.194208,,,,,,
1466441711.74,2.192417,-0.046878,-1.676529,-0.026015,0.391332,0.021107,0.812043,0.046861,0.581713,-0.071702,0.008697,0.041166,-24.754469,129.692825,31.194208,,,,,,
1466441711.75,2.196231,-0.046460,-1.676502,-0.026062,0.377487,0.036096,0.809834,0.046443,0.584818,-0.074543,0.010808,0.037619,-24.754469,129.692825,31.194208,,,,,,
1466441711.76,2.200080,-0.045961,-1.676528,-0.028188,0.390212,0.042400,0.807596,0.045945,0.587944,-0.057794,0.008315,0.030434,-25.535961,128.993896,33.870045,,,,,,
1466441711.77,2.204618,-0.045516,-1.676479,-0.030341,0.364746,0.038300,0.804936,0.045500,0.591615,-0.029118,0.001710,0.008300,-25.535961,128.993896,33.870045,,,,,,
1466441711.78,2.207876,-0.045154,-1.676521,-0.014410,0.318045,0.029029,0.803017,0.045139,0.594244,-0.036766,-0.005862,0.028055,-25.722752,128.993698,33.729195,,,,,,
1466441711.80,2.214964,-0.044622,-1.676566,-0.013263,0.371155,0.021246,0.798804,0.044607,0.599936,-0.051672,0.000132,0.028223,-25.722752,128.993698,33.729195,,,,,,
1466441711.79,2.211257,-0.044884,-1.676562,-0.013291,0.350978,0.022437,0.801013,0.044869,0.596963,-0.052096,-0.005806,0.039267,-25.722752,128.993698,33.729195,,,,,,
1466441711.81,2.219963,-0.044338,-1.676541,-0.009049,0.336122,0.021469,0.795805,0.044324,0.603929,-0.055006,-0.002911,0.022734,-25.722752,128.993698,33.729195,,,,,,
1466441711.82,2.223349,-0.044158,-1.676606,-0.005830,0.348873,0.017135,0.793762,0.044143,0.606625,-0.069000,-0.008056,0.029957,-26.111477,128.997131,33.415848,,,,,,
1466441711.83,2.227438,-0.044003,-1.676618,-0.009975,0.430617,0.012364,0.791280,0.043989,0.609869,-0.069616,-0.007642,0.033350,-26.111477,128.997131,33.415848,,,,,,
1466441711.84,2.232196,-0.043854,-1.676615,-0.008843,0.484769,0.012025,0.788374,0.043840,0.613632,-0.071593,-0.002962,0.022049,-26.320316,129.000595,33.238220,,,,,,
1466441711.85,2.238532,-0.043640,-1.676551,-0.012041,0.490072,0.017311,0.784478,0.043626,0.618620,-0.082147,-0.003282,0.015581,-26.320316,129.000595,33.238220,,,,,,
1466441711.86,2.243634,-0.043427,-1.676593,-0.009879,0.520854,0.020313,0.781319,0.043413,0.622620,-0.086419,-0.006289,0.015533,-26.320316,129.000595,33.238220,,,,,,
1466441711.87,2.249151,-0.043212,-1.676605,-0.013019,0.559090,0.016877,0.777879,0.043199,0.626927,-0.077928,-0.004610,0.007747,-26.655964,128.997910,32.980122,,,,,,
1466441711.88,2.254838,-0.043048,-1.676619,-0.007674,0.567596,0.011507,0.774307,0.043035,0.631345,-0.065475,-0.007238,-0.002988,-26.655964,128.997910,32.980122,,,,,,
1466441711.90,2.265894,-0.042863,-1.676639,-0.000264,0.526196,0.007516,0.767286,0.042850,0.639872,-0.083982,-0.010577,-0.001719,-26.655964,128.997910,32.980122,,,,,,
1466441711.89,2.260685,-0.042925,-1.676605,-0.005593,0.524072,0.008588,0.770606,0.042912,0.635865,-0.063132,-0.003743,-0.009736,-26.655964,128.997910,32.980122,,,,,,
1466441711.91,2.271330,-0.042824,-1.676675,-0.000233,0.546379,0.004196,0.763797,0.042811,0.644035,-0.076465,-0.004252,-0.009773,-27.304535,129.000549,32.434765,,,,,,
1466441711.92,2.276681,-0.042829,-1.676738,0.007199,0.527266,0.003259,0.760340,0.042816,0.648113,-0.071116,-0.005630,-0.020122,-27.304535,129.000549,32.434765,,,,,,
1466441711.93,2.281980,-0.042856,-1.676824,0.011400,0.479487,0.002498,0.756894,0.042843,0.652131,-0.068403,-0.004620,-0.029863,-27.632509,129.003586,32.143623,,,,,,
1466441711.94,2.286728,-0.042925,-1.676951,0.015664,0.486912,0.004585,0.753787,0.042912,0.655716,-0.100955,-0.007511,-0.020569,-27.632509,129.003586,32.143623,,,,,,
1466441711.95,2.292113,-0.042931,-1.677062,0.004028,0.558041,0.010514,0.750245,0.042918,0.659766,-0.119874,-0.002619,-0.019278,-27.632509,129.003586,32.143623,,,,,,
1466441711.96,2.298348,-0.042855,-1.677178,0.004115,0.638718,0.017459,0.746119,0.042842,0.664433,-0.133402,-0.003062,-0.013951,-28.272408,129.019913,31.515451,,,,,,
1466441711.97,2.305603,-0.042774,-1.677285,-0.001067,0.735374,0.006203,0.741282,0.042761,0.669830,-0.106852,0.001734,-0.023743,-28.272408,129.019913,31.515451,,,,,,
1466441711.98,2.312702,-0.042603,-1.677310,-0.004302,0.710939,0.011676,0.736513,0.042590,0.675081,-0.120959,-0.002933,-0.061571,-28.272408,129.019913,31.515451,,,,,,
1466441711.99,2.319354,-0.042530,-1.677486,0.009467,0.673734,0.024696,0.732009,0.042517,0.679967,-0.132689,-0.014746,-0.050435,-28.661015,129.029404,31.123173,,,,,,
1466441712.00,2.326869,-0.042419,-1.677590,-0.006381,0.762948,0.018798,0.726882,0.042406,0.685452,-0.102965,-0.010927,-0.048749,-28.661015,129.029404,31.123173,,,,,,
1466441712.01,2.334661,-0.042281,-1.677670,-0.001058,0.752345,0.012484,0.721523,0.042269,0.691100,-0.092937,0.001143,-0.074385,-28.661015,129.029404,31.123173,,,,,,
1466441712.02,2.341823,-0.042139,-1.677836,0.005291,0.720488,0.012690,0.716559,0.042126,0.696253,-0.138266,-0.005704,-0.083796,-29.473452,129.045822,30.285036,,,,,,
1466441712.03,2.348673,-0.041950,-1.678086,0.006316,0.724673,0.035018,0.711778,0.041938,0.701151,-0.158022,-0.010474,-0.101145,-29.473452,129.045822,30.285036,,,,,,
1466441712.04,2.355911,-0.041799,-1.678348,0.006312,0.743747,0.048736,0.706690,0.041787,0.706289,-0.107736,-0.003426,-0.101323,-29.473452,129.045822,30.285036,,,,,,
1466441712.05,2.363641,-0.041720,-1.678519,-0.000064,0.719387,0.027593,0.701211,0.041708,0.711733,-0.028055,0.002298,-0.101946,-29.473452,129.045822,30.285036,,,,,,
1466441712.07,2.379126,-0.041466,-1.679018,0.004312,0.801165,0.019634,0.690114,0.041454,0.722513,-0.157628,-0.007580,-0.135995,-30.210743,129.081818,29.391926,,,,,,
1466441712.06,2.371356,-0.041602,-1.678778,0.017053,0.770369,0.018775,0.695703,0.041590,0.717125,-0.127725,-0.012873,-0.110268,-30.210743,129.081818,29.391926,,,,,,
1466441712.08,2.387148,-0.041298,-1.679313,0.009632,0.823416,0.035466,0.684301,0.041286,0.728030,-0.139821,-0.010677,-0.148715,-30.593676,129.102875,28.899223,,,,,,
1466441712.09,2.395472,-0.041088,-1.679602,0.000053,0.827665,0.036495,0.678222,0.041076,0.733708,-0.092498,-0.004150,-0.160985,-30.593676,129.102875,28.899223,,,,,,
1466441712.10,2.403413,-0.040800,-1.679814,-0.006399,0.776702,0.036808,0.672383,0.040789,0.739079,-0.089146,-0.008104,-0.191899,-30.593676,129.102875,28.899223,,,,,,
1466441712.11,2.411355,-0.040561,-1.680230,0.012789,0.813823,0.048303,0.666498,0.040550,0.744403,-0.099817,-0.022835,-0.177524,-30.974266,129.127472,28.379307,,,,,,
1466441712.13,2.426340,-0.040191,-1.680634,0.020085,0.680047,0.043827,0.655278,0.040180,0.754318,-0.135366,-0.010578,-0.256134,-30.974266,129.127472,28.379307,,,,,,
1466441712.12,2.419725,-0.040382,-1.680344,-0.012698,0.795908,0.003683,0.660249,0.040371,0.749961,0.017699,-0.006191,-0.181617,-30.974266,129.127472,28.379307,,,,,,
1466441712.14,2.433823,-0.040095,-1.680998,0.004222,0.745922,0.030625,0.649618,0.040084,0.759203,-0.030950,-0.030593,-0.186358,-31.660027,129.170822,27.408615,,,,,,
1466441712.15,2.440711,-0.039728,-1.681239,-0.008680,0.672617,0.048103,0.644383,0.039717,0.763671,-0.081913,0.007463,-0.288085,-31.660027,129.170822,27.408615,,,,,,
1466441712.16,2.446700,-0.039456,-1.681659,0.007157,0.564308,0.047733,0.639805,0.039445,0.767525,-0.018223,-0.012987,-0.262978,-31.660027,129.170822,27.408615,,,,,,
1466441712.17,2.451809,-0.039116,-1.682030,-0.003562,0.512276,0.051242,0.635883,0.039106,0.770794,-0.030094,-0.011350,-0.286236,-31.952967,129.196152,26.945393,,,,,,
1466441712.19,2.462093,-0.038504,-1.682744,-0.002499,0.509093,0.050199,0.627938,0.038495,0.777311,0.001807,-0.013745,-0.286802,-31.952967,129.196152,26.945393,,,,,,
1466441712.18,2.457020,-0.038827,-1.682393,0.001789,0.520791,0.042679,0.631866,0.038818,0.774105,0.019013,-0.011916,-0.261990,-31.952967,129.196152,26.945393,,,,,,
1466441712.20,2.467112,-0.038174,-1.683123,-0.003582,0.491049,0.048182,0.624037,0.038165,0.780462,0.032335,-0.018588,-0.283392,-32.272800,129.258774,26.255077,,,,,,
1466441712.22,2.475212,-0.037289,-1.683890,-0.012268,0.377405,0.061659,0.617716,0.037280,0.785518,0.059943,-0.012271,-0.324336,-32.272800,129.258774,26.255077,,,,,,
1466441712.21,2.471367,-0.037771,-1.683485,-0.011155,0.409270,0.057203,0.620720,0.037762,0.783123,0.046486,-0.002179,-0.323070,-32.272800,129.258774,26.255077,,,,,,
1466441712.23,2.478732,-0.036771,-1.684317,-0.015511,0.348720,0.068223,0.614959,0.036763,0.787702,0.071199,-0.008900,-0.321897,-32.381710,129.289413,25.968500,,,,,,
1466441712.24,2.482180,-0.036201,-1.684685,-0.024022,0.343433,0.061861,0.612252,0.036193,0.789834,0.090614,-0.006011,-0.323938,-32.381710,129.289413,25.968500,,,,,,
1466441712.25,2.485597,-0.035552,-1.685019,-0.034679,0.347665,0.069275,0.609563,0.035544,0.791941,0.096751,-0.005668,-0.336099,-33.082142,128.624634,24.785580,,,,,,
1466441712.26,2.488957,-0.034822,-1.685340,-0.036837,0.325369,0.069412,0.606914,0.034815,0.794004,0.124516,-0.013559,-0.337980,-33.082142,128.624634,24.785580,,,,,,
1466441712.27,2.491758,-0.034071,-1.685698,-0.041171,0.273328,0.075057,0.604703,0.034065,0.795722,0.141024,-0.012855,-0.349967,-33.082142,128.624634,24.785580,,,,,,
1466441712.28,2.494461,-0.033241,-1.685998,-0.050753,0.272274,0.073989,0.602567,0.033235,0.797376,0.164919,-0.010972,-0.345777,-33.082142,128.624634,24.785580,,,,,,
1466441712.29,2.497008,-0.032333,-1.686208,-0.062493,0.243623,0.069899,0.600553,0.032327,0.798931,0.197177,-0.007547,-0.359692,-33.051861,128.683289,24.520016,,,,,,
1466441712.30,2.498976,-0.031400,-1.686392,-0.065753,0.192655,0.071280,0.598996,0.031394,0.800136,0.221606,-0.009895,-0.350749,-33.051861,128.683289,24.520016,,,,,,
1466441712.31,2.500389,-0.030325,-1.686543,-0.076528,0.107687,0.082447,0.597886,0.030321,0.801008,0.279022,-0.040651,-0.408308,-33.051861,128.683289,24.520016,,,,,,
1466441712.32,2.499885,-0.029162,-1.686996,-0.064068,-0.105809,0.108281,0.598310,0.029158,0.800734,0.356250,-0.006804,-0.397216,-33.051861,128.683289,24.520016,,,,,,
1466441712.33,2.497042,-0.027927,-1.687404,-0.080326,-0.343631,0.104434,0.600605,0.027923,0.799058,0.387035,0.004792,-0.377183,-32.887413,128.718872,24.554276,,,,,,
1466441712.34,2.492012,-0.026710,-1.687793,-0.070991,-0.537951,0.107791,0.604637,0.026707,0.796053,0.362313,-0.001133,-0.304003,-32.887413,128.718872,24.554276,,,,,,
1466441712.35,2.486691,-0.025425,-1.688148,-0.087995,-0.517760,0.104454,0.608884,0.025423,0.792852,0.392336,0.010405,-0.327062,-32.531612,128.753769,24.843672,,,,,,
1466441712.36,2.481391,-0.023971,-1.688339,-0.108271,-0.550671,0.106769,0.613100,0.023969,0.789642,0.421492,-0.019742,-0.385772,-32.531612,128.753769,24.843672,,,,,,
1466441712.37,2.474333,-0.022439,-1.688536,-0.106418,-0.769406,0.109207,0.618680,0.022437,0.785323,0.472797,-0.005973,-0.311339,-32.531612,128.753769,24.843672,,,,,,
1466441712.38,2.465104,-0.021011,-1.688747,-0.098117,-0.953085,0.103980,0.625921,0.021010,0.779604,0.494944,-0.003157,-0.266695,-31.408037,128.796371,26.039919,,,,,,
1466441712.39,2.455113,-0.019563,-1.688847,-0.104570,-1.014649,0.097973,0.633697,0.019562,0.773334,0.497437,-0.013504,-0.253162,-31.408037,128.796371,26.039919,,,,,,
1466441712.40,2.444416,-0.018183,-1.688940,-0.100402,-1.097454,0.092110,0.641950,0.018182,0.766531,0.522006,0.013937,-0.213522,-31.408037,128.796371,26.039919,,,,,,
1466441712.41,2.432626,-0.016956,-1.688982,-0.088785,-1.195107,0.078896,0.650956,0.016955,0.758926,0.539580,0.003491,-0.170211,-30.636179,128.805573,26.899685,,,,,,
1466441712.42,2.420484,-0.015837,-1.688859,-0.089843,-1.220537,0.059895,0.660135,0.015837,0.750980,0.530645,-0.002287,-0.133838,-30.636179,128.805573,26.899685,,,,,,
1466441712.43,2.408242,-0.014899,-1.688691,-0.081283,-1.208824,0.045992,0.669289,0.014898,0.742853,0.524467,0.018503,-0.079584,-30.636179,128.805573,26.899685,,,,,,
1466441712.44,2.397085,-0.014033,-1.688365,-0.090691,-1.095162,0.029303,0.677543,0.014032,0.735349,0.559685,-0.001383,-0.092939,-29.162367,127.780693,27.740141,,,,,,
1466441712.45,2.385984,-0.013284,-1.687916,-0.077925,-1.125923,0.015671,0.685671,0.013283,0.727790,0.565763,-0.001595,-0.075553,-29.162367,127.780693,27.740141,,,,,,
1466441712.46,2.374166,-0.012656,-1.687414,-0.080117,-1.195965,0.003334,0.694230,0.012655,0.719642,0.557784,0.014688,-0.023033,-29.162367,127.780693,27.740141,,,,,,
1466441712.47,2.362392,-0.012124,-1.686866,-0.077931,-1.160909,-0.003270,0.702660,0.012124,0.711423,0.564217,-0.000649,-0.002789,-28.467979,127.747581,28.600620,,,,,,
1466441712.48,2.351123,-0.011575,-1.686215,-0.086394,-1.127972,-0.009872,0.710636,0.011575,0.703464,0.575878,-0.005486,0.015515,-28.467979,127.747581,28.600620,,,,,,
1466441712.49,2.339429,-0.011103,-1.685542,-0.076864,-1.177866,-0.014871,0.718818,0.011103,0.695110,0.564752,0.002081,0.085560,-28.467979,127.747581,28.600620,,,,,,
1466441712.50,2.327895,-0.010753,-1.684835,-0.075726,-1.138548,-0.026826,0.726790,0.010753,0.686776,0.553865,0.006611,0.117027,-27.115799,127.648338,30.306816,,,,,,
1466441712.51,2.317265,-0.010489,-1.683997,-0.081967,-1.042945,-0.041270,0.734051,0.010488,0.679013,0.575473,0.011225,0.128070,-27.115799,127.648338,30.306816,,,,,,
1466441712.52,2.306689,-0.010377,-1.683060,-0.074515,-1.072629,-0.059172,0.741192,0.010377,0.671213,0.565663,0.016357,0.173391,-27.115799,127.648338,30.306816,,,,,,
1466441712.53,2.295950,-0.010548,-1.682085,-0.057428,-1.069388,-0.082593,0.748356,0.010548,0.663214,0.583966,0.019863,0.191904,-26.513332,127.584396,31.098745,,,,,,
1466441712.54,2.285005,-0.010836,-1.681090,-0.057473,-1.117148,-0.089744,0.755567,0.010836,0.654981,0.598024,0.004362,0.176745,-26.513332,127.584396,31.098745,,,,,,
1466441712.55,2.272153,-0.011221,-1.680127,-0.037543,-1.359243,-0.090335,0.763919,0.011221,0.645214,0.578229,0.010935,0.240314,-26.513332,127.584396,31.098745,,,,,,
1466441712.56,2.256505,-0.011744,-1.679498,-0.010213,-1.625796,-0.079056,0.773917,0.011744,0.633178,0.551354,0.003744,0.274217,-25.472225,127.426620,32.580482,,,,,,
1466441712.57,2.238906,-0.012328,-1.678984,0.001280,-1.802058,-0.079004,0.784934,0.012328,0.619456,0.598397,0.022722,0.266759,-25.472225,127.426620,32.580482,,,,,,
1466441712.58,2.218486,-0.013054,-1.678630,0.017901,-2.136529,-0.079018,0.797412,0.013054,0.603294,0.580472,0.016838,0.243919,-25.472225,127.426620,32.580482,,,,,,
1466441712.59,2.194328,-0.013928,-1.678343,0.032368,-2.503891,-0.087344,0.811743,0.013927,0.583849,0.544870,0.014957,0.284498,-24.575642,127.380959,33.436459,,,,,,
1466441712.60,2.168177,-0.014917,-1.678142,0.042878,-2.628100,-0.096135,0.826720,0.014916,0.562416,0.523759,0.010017,0.312645,-24.575642,127.380959,33.436459,,,,,,
1466441712.61,2.141741,-0.015902,-1.677871,0.025809,-2.654637,-0.095986,0.841284,0.015901,0.540359,0.505548,-0.018388,0.296525,-24.575642,127.380959,33.436459,,,,,,
1466441712.62,2.114197,-0.016838,-1.677520,0.024571,-2.794791,-0.096172,0.855834,0.016838,0.516976,0.469743,0.004982,0.343329,-21.674999,127.338974,35.536545,,,,,,
1466441712.63,2.085465,-0.017765,-1.677398,0.029753,-2.887206,-0.082814,0.870319,0.017764,0.492168,0.425122,-0.020999,0.373295,-21.674999,127.338974,35.536545,,,,,,
1466441712.64,2.056851,-0.018561,-1.677180,0.023403,-2.855351,-0.081956,0.884031,0.018560,0.467061,0.436938,0.004710,0.397335,-21.674999,127.338974,35.536545,,,,,,
1466441712.65,2.028118,-0.019431,-1.677107,0.030834,-2.874465,-0.082893,0.897069,0.019430,0.441463,0.420131,0.005137,0.401722,-19.877686,127.320862,36.635242,,,,,,
1466441712.66,1.999440,-0.020290,-1.676946,0.024469,-2.856411,-0.083013,0.909343,0.020289,0.415552,0.427449,0.004491,0.413779,-17.951704,127.309792,37.653950,,,,,,
1466441712.68,1.941767,-0.021953,-1.676795,0.016865,-2.961552,-0.072781,0.931751,0.021951,0.362433,0.434002,-0.012597,0.387857,-17.951704,127.309792,37.653950,,,,,,
1466441712.67,1.971115,-0.021199,-1.676907,0.029800,-2.846863,-0.080938,0.920730,0.021198,0.389624,0.456437,-0.015308,0.376275,-17.951704,127.309792,37.653950,,,,,,
1466441712.69,1.911831,-0.022582,-1.676831,0.027451,-2.988140,-0.058766,0.942169,0.022580,0.334377,0.410340,0.007892,0.441945,-15.994437,127.302155,38.551319,,,,,,
1466441712.70,1.882670,-0.023126,-1.676858,0.016920,-2.871378,-0.044606,0.951506,0.023124,0.306760,0.328737,-0.016304,0.492480,-15.994437,127.302155,38.551319,,,,,,
1466441712.71,1.856528,-0.023612,-1.676755,0.000320,-2.527339,-0.048909,0.959188,0.023610,0.281781,0.319575,-0.005956,0.526095,-15.994437,127.302155,38.551319,,,,,,
1466441712.72,1.833591,-0.024096,-1.676576,-0.003540,-2.210917,-0.051962,0.965387,0.024094,0.259705,0.272985,-0.001130,0.567902,-15.994437,127.302155,38.551319,,,,,,
1466441712.73,1.814052,-0.024608,-1.676372,-0.007369,-1.875374,-0.058328,0.970265,0.024606,0.240791,0.319560,0.005576,0.542504,-11.781774,127.296173,40.059204,,,,,,
1466441712.74,1.796477,-0.025053,-1.676033,-0.028493,-1.725672,-0.050772,0.974336,0.025050,0.223699,0.316557,-0.001658,0.524531,-11.781774,127.296173,40.059204,,,,,,
1466441712.75,1.780095,-0.025504,-1.675724,-0.015612,-1.635437,-0.047068,0.977859,0.025502,0.207706,0.413224,0.009746,0.514172,-11.781774,127.296173,40.059204,,,,,,
1466441712.76,1.761897,-0.025867,-1.675439,-0.024478,-1.896666,-0.034794,0.981467,0.025864,0.189876,0.270608,-0.016266,0.511281,-8.950300,127.252792,40.920490,,,,,,
1466441712.77,1.745429,-0.026162,-1.675155,-0.020757,-1.481494,-0.040587,0.984453,0.026159,0.173687,0.255857,0.019983,0.685642,-8.950300,127.252792,40.920490,,,,,,
1466441712.78,1.734507,-0.026597,-1.674827,-0.029717,-1.005767,-0.056353,0.986280,0.026594,0.162923,0.291018,0.009112,0.665080,-8.950300,127.252792,40.920490,,,,,,
1466441712.79,1.724583,-0.027104,-1.674321,-0.045675,-0.998320,-0.058545,0.987835,0.027101,0.153125,0.278293,-0.020799,0.602459,-7.621051,127.228767,41.262909,,,,,,
1466441712.80,1.714106,-0.027698,-1.673888,-0.023387,-1.070508,-0.067650,0.989369,0.027694,0.142764,0.298686,0.024216,0.650937,-7.621051,127.228767,41.262909,,,,,,
1466441712.81,1.703401,-0.028441,-1.673624,-0.023359,-1.058810,-0.074110,0.990820,0.028437,0.132163,0.231455,-0.013010,0.678491,-7.621051,127.228767,41.262909,,,,,,
1466441712.82,1.694233,-0.029235,-1.673121,-0.036942,-0.872953,-0.088062,0.991967,0.029231,0.123070,0.220710,0.011404,0.742179,-6.191915,127.163292,41.701618,,,,,,
1466441712.83,1.686406,-0.030195,-1.672882,-0.008037,-0.771029,-0.101443,0.992872,0.030190,0.115299,0.197008,0.015647,0.768627,-6.191915,127.163292,41.701618,,,,,,
1466441712.84,1.679425,-0.031276,-1.672611,-0.016390,-0.664801,-0.118084,0.993620,0.031271,0.108362,0.177050,-0.000768,0.800574,-6.191915,127.163292,41.701618,,,,,,
1466441712.85,1.673434,-0.032503,-1.672440,-0.000287,-0.576650,-0.129265,0.994212,0.032497,0.102403,0.094960,-0.008983,0.839079,-5.713815,127.130722,41.868847,,,,,,
1466441712.86,1.668932,-0.033897,-1.672240,-0.007489,-0.401405,-0.146338,0.994617,0.033891,0.097922,0.004117,-0.015733,0.874445,-5.713815,127.130722,41.868847,,,,,,
1466441712.87,1.666786,-0.035446,-1.672102,0.005635,-0.143361,-0.159652,0.994771,0.035439,0.095782,-0.088903,-0.005547,0.924573,-5.713815,127.130722,41.868847,,,,,,
1466441712.88,1.667285,-0.037046,-1.672092,0.016600,0.111463,-0.160175,0.994666,0.037037,0.096273,-0.157111,-0.000141,0.928385,-5.564153,127.091553,42.007671,,,,,,
1466441712.89,1.669815,-0.038612,-1.672156,0.024270,0.298313,-0.152824,0.994360,0.038602,0.098783,-0.208410,-0.004163,0.916399,-5.564153,127.091553,42.007671,,,,,,
1466441712.90,1.673446,-0.040151,-1.672309,0.031815,0.380054,-0.148007,0.993934,0.040141,0.102387,-0.255287,-0.004954,0.910568,-5.564153,127.091553,42.007671,,,,,,
1466441712.91,1.677743,-0.041649,-1.672521,0.040440,0.470294,-0.145371,0.993424,0.041637,0.106650,-0.371995,0.001103,0.915170,-6.091105,127.088409,41.944050,,,,,,
1466441712.92,1.683941,-0.043109,-1.672844,0.050269,0.678382,-0.139215,0.992683,0.043096,0.112798,-0.489891,0.006572,0.910594,-6.091105,127.088409,41.944050,,,,,,
1466441712.93,1.692489,-0.044522,-1.673202,0.052676,0.913016,-0.132168,0.991621,0.044507,0.121272,-0.573545,0.009067,0.890233,-6.091105,127.088409,41.944050,,,,,,
1466441712.94,1.703257,-0.045831,-1.673655,0.065707,1.138073,-0.119729,0.990199,0.045815,0.131935,-0.652308,0.012870,0.864571,-7.771810,127.119057,41.571743,,,,,,
1466441712.95,1.715836,-0.047041,-1.674071,0.053109,1.294141,-0.112205,0.988405,0.047024,0.144372,-0.748751,0.004429,0.798712,-7.771810,127.119057,41.571743,,,,,,
1466441712.96,1.730245,-0.048160,-1.674638,0.075698,1.501140,-0.098578,0.986170,0.048141,0.158590,-0.826121,-0.010101,0.729258,-7.771810,127.119057,41.571743,,,,,,
1466441712.97,1.746886,-0.049235,-1.675146,0.066372,1.712432,-0.095655,0.983343,0.049215,0.174969,-0.880453,-0.026006,0.637668,7.008446,122.136833,67.807503,,,,,,
1466441712.98,1.765069,-0.050274,-1.675721,0.078244,1.846202,-0.092224,0.979949,0.050253,0.192809,-0.931929,-0.033621,0.490968,7.008446,122.136833,67.807503,,,,,,
1466441712.99,1.784007,-0.051253,-1.676335,0.076170,1.907758,-0.081968,0.976073,0.051231,0.211321,-0.950606,-0.041267,0.354871,7.008446,122.136833,67.807503,,,,,,
1466441713.00,1.802753,-0.052074,-1.676958,0.084599,1.865232,-0.063597,0.971899,0.052051,0.229571,-0.979742,-0.008014,0.271039,1.921007,122.355392,67.748444,,,,,,
1466441713.01,1.821016,-0.052742,-1.677869,0.103666,1.827989,-0.037798,0.967511,0.052718,0.247272,-1.015072,-0.015624,0.178585,1.921007,122.355392,67.748444,,,,,,
1466441713.02,1.839695,-0.053191,-1.678615,0.077092,1.890602,-0.021186,0.962701,0.053166,0.265294,-1.019860,-0.048161,0.066523,1.921007,122.355392,67.748444,,,,,,
1466441713.03,1.858767,-0.053582,-1.679461,0.094149,1.924541,-0.010737,0.957446,0.053556,0.283599,-1.013614,-0.055967,-0.046050,-0.722618,122.480034,67.546303,,,,,,
,,,,,,,,,,,,,,,,29.719975,-95.399061,9.583358,-1.000000,-1.000000,1466441747.96
1466441713.04,1.877845,-0.053954,-1.680367,0.089853,1.897993,-0.008446,0.951843,0.053928,0.301807,-0.948150,-0.083209,-0.216876,-0.722618,122.480034,67.546303,,,,,,
1466441713.05,1.895932,-0.054221,-1.681135,0.082245,1.783307,-0.002412,0.946215,0.054194,0.318968,-0.907961,-0.083507,-0.330839,-0.722618,122.480034,67.546303,,,,,,
1466441713.06,1.912558,-0.054499,-1.682016,0.095896,1.641001,0.004881,0.940767,0.054472,0.334650,-0.913896,-0.060651,-0.359628,-5.831926,122.716965,66.864914,,,,,,
1466441713.07,1.929261,-0.054703,-1.682931,0.093821,1.701496,0.015144,0.935036,0.054676,0.350312,-0.937523,-0.043140,-0.397706,-5.831926,122.716965,66.864914,,,,,,
1466441713.09,1.969180,-0.054558,-1.684492,0.050622,2.116591,0.045495,0.920318,0.054531,0.387352,-0.787978,-0.039425,-0.636390,-8.041487,122.841324,66.405769,,,,,,
1466441713.08,1.948255,-0.054737,-1.683790,0.076024,1.974335,0.032575,0.928212,0.054709,0.368007,-0.887196,-0.040793,-0.478298,-8.041487,122.841324,66.405769,,,,,,
1466441713.10,1.990081,-0.054103,-1.685125,0.038813,2.080426,0.071257,0.912044,0.054076,0.406512,-0.731090,-0.039809,-0.705920,-8.041487,122.841324,66.405769,,,,,,
1466441713.11,2.011799,-0.053480,-1.685693,0.023001,2.225868,0.082038,0.903031,0.053454,0.426236,-0.702638,-0.051562,-0.700391,-8.041487,122.841324,66.405769,,,,,,
1466441713.12,2.036534,-0.052785,-1.686144,0.001054,2.559277,0.083119,0.892246,0.052761,0.448456,-0.646427,-0.046596,-0.700226,-13.217934,123.000824,65.272247,,,,,,
1466441713.13,2.064556,-0.051944,-1.686399,-0.019854,2.874631,0.085378,0.879370,0.051920,0.473300,-0.545736,-0.031214,-0.757877,-13.217934,123.000824,65.272247,,,,,,
1466441713.14,2.094160,-0.051019,-1.686548,-0.033573,2.975503,0.086860,0.865016,0.050997,0.499146,-0.448954,-0.035326,-0.820023,-13.217934,123.000824,65.272247,,,,,,
1466441713.15,2.124588,-0.049931,-1.686683,-0.048395,3.066785,0.101175,0.849476,0.049910,0.525261,-0.344120,-0.053450,-0.852776,-16.436466,123.021767,64.497063,,,,,,
1466441713.16,2.155663,-0.048643,-1.686643,-0.082419,3.109265,0.104068,0.832800,0.048624,0.551435,-0.219534,-0.038248,-0.926572,-16.436466,123.021767,64.497063,,,,,,
1466441713.17,2.185701,-0.047109,-1.686491,-0.101808,2.951031,0.117815,0.815922,0.047091,0.576241,-0.093098,-0.045032,-0.992851,-16.436466,123.021767,64.497063,,,,,,
1466441713.18,2.212831,-0.045489,-1.686518,-0.090529,2.628199,0.133689,0.800050,0.045473,0.598207,0.018660,-0.046465,-1.039384,-23.618450,122.948479,62.371639,,,,,,
1466441713.19,2.236064,-0.043792,-1.686673,-0.087871,2.214071,0.144804,0.785998,0.043778,0.616678,0.150465,-0.050369,-1.082559,-23.618450,122.948479,62.371639,,,,,,
1466441713.20,2.255224,-0.042102,-1.687038,-0.074537,1.815876,0.151572,0.774094,0.042090,0.631670,0.281387,-0.058691,-1.081316,-23.618450,122.948479,62.371639,,,,,,
1466441713.21,2.270385,-0.040475,-1.687581,-0.058008,1.421922,0.160446,0.764480,0.040464,0.643376,0.371735,-0.057920,-1.064991,-26.394245,122.904205,61.337471,,,,,,
1466441713.22,2.282341,-0.038938,-1.688216,-0.053029,1.135253,0.154798,0.756780,0.038928,0.652510,0.440196,-0.037082,-1.023832,-26.394245,122.904205,61.337471,,,,,,
1466441713.23,2.292165,-0.037374,-1.688809,-0.062844,0.946263,0.153845,0.750378,0.037365,0.659952,0.478077,-0.038510,-0.981562,-26.394245,122.904205,61.337471,,,,,,
1466441713.24,2.300543,-0.035779,-1.689340,-0.064100,0.789125,0.151636,0.744866,0.035771,0.666254,0.539191,-0.027898,-0.958567,-29.031691,122.929428,60.082439,,,,,,
1466441713.25,2.307073,-0.034022,-1.689899,-0.083515,0.614955,0.168675,0.740545,0.034015,0.671145,0.547128,-0.040867,-0.967364,-29.031691,122.929428,60.082439,,,,,,
1466441713.26,2.311757,-0.032107,-1.690410,-0.093357,0.416389,0.175233,0.737440,0.032101,0.674649,0.629656,-0.040402,-0.945477,-29.031691,122.929428,60.082439,,,,,,
1466441713.27,2.314389,-0.030091,-1.690867,-0.107448,0.223139,0.179624,0.735708,0.030086,0.676630,0.692148,-0.039028,-0.907511,-29.531145,122.938766,59.819332,,,,,,
1466441713.28,2.315510,-0.028030,-1.691245,-0.112935,0.081939,0.174118,0.734993,0.028026,0.677495,0.768791,-0.034771,-0.830297,-29.531145,122.938766,59.819332,,,,,,
1466441713.29,2.315819,-0.025930,-1.691470,-0.132165,0.017202,0.165989,0.734825,0.025927,0.677761,0.823250,-0.031085,-0.763088,-29.531145,122.938766,59.819332,,,,,,
1466441713.30,2.315629,-0.023781,-1.691537,-0.140732,-0.033739,0.158849,0.734994,0.023779,0.677657,0.886848,-0.030066,-0.699202,-29.194088,122.887367,60.089798,,,,,,
1466441713.31,2.314437,-0.021683,-1.691526,-0.145108,-0.143077,0.149950,0.735836,0.021681,0.676813,0.943989,-0.031508,-0.632349,-29.194088,122.887367,60.089798,,,,,,
1466441713.32,2.312438,-0.019637,-1.691267,-0.155800,-0.214150,0.128032,0.737218,0.019635,0.675369,1.020579,-0.014798,-0.532639,-28.722433,122.807922,60.478237,,,,,,
1466441713.33,2.309832,-0.017880,-1.690885,-0.141977,-0.277781,0.097575,0.739001,0.017879,0.673467,1.076734,0.011449,-0.390997,-28.722433,122.807922,60.478237,,,,,,
1466441713.34,2.307049,-0.016304,-1.690254,-0.153618,-0.270257,0.066648,0.740892,0.016304,0.671426,1.086669,0.005822,-0.304681,-28.722433,122.807922,60.478237,,,,,,
1466441713.35,2.303647,-0.015056,-1.689476,-0.135603,-0.385921,0.037586,0.743186,0.015055,0.668915,1.152779,0.020391,-0.269471,-28.722433,122.807922,60.478237,,,,,,
1466441713.36,2.297538,-0.013952,-1.688604,-0.134879,-0.690603,0.019273,0.747271,0.013952,0.664373,1.175138,0.003932,-0.231100,-27.629820,122.542648,61.516464,,,,,,
1466441713.37,2.288666,-0.013175,-1.687800,-0.105339,-0.940086,0.000643,0.753143,0.013175,0.657725,1.186401,0.028878,-0.112650,-27.629820,122.542648,61.516464,,,,,,
1466441713.38,2.278331,-0.012491,-1.686857,-0.119301,-1.063201,-0.015630,0.759907,0.012491,0.649911,1.167262,0.006277,-0.065759,-26.665264,122.395897,62.230133,,,,,,
1466441713.39,2.266376,-0.011905,-1.685892,-0.107813,-1.246890,-0.017660,0.767628,0.011905,0.640785,1.160717,0.005673,-0.006462,-26.665264,122.395897,62.230133,,,,,,
1466441713.40,2.252801,-0.011380,-1.684912,-0.113296,-1.385963,-0.024244,0.776261,0.011380,0.630310,1.130859,-0.005887,0.078003,-26.665264,122.395897,62.230133,,,,,,
1466441713.41,2.238500,-0.010884,-1.683755,-0.122941,-1.450701,-0.033428,0.785199,0.010884,0.619148,1.121402,0.002773,0.168694,-26.665264,122.395897,62.230133,,,,,,
1466441713.42,2.223567,-0.010442,-1.682628,-0.115548,-1.503786,-0.036281,0.794361,0.010442,0.607356,1.063595,-0.003545,0.284123,-23.594267,122.086273,64.051804,,,,,,
1466441713.43,2.208710,-0.010173,-1.681338,-0.119715,-1.475039,-0.064141,0.803299,0.010173,0.595490,1.038208,0.015645,0.390182,-23.594267,122.086273,64.051804,,,,,,
1466441713.44,2.194014,-0.010313,-1.679927,-0.102608,-1.477069,-0.101367,0.811961,0.010313,0.583620,1.041325,0.041079,0.449141,-23.594267,122.086273,64.051804,,,,,,
1466441713.45,2.178173,-0.010572,-1.678420,-0.105994,-1.638447,-0.105681,0.821102,0.010572,0.570683,1.023335,0.015780,0.481120,-21.780228,121.914032,65.015182,,,,,,
1466441713.46,2.158710,-0.010872,-1.677416,-0.055501,-2.076026,-0.069888,0.832050,0.010872,0.554594,1.010983,-0.004707,0.535632,-21.780228,121.914032,65.015182,,,,,,
1466441713.48,2.105117,-0.012016,-1.676449,0.025395,-2.974299,-0.083334,0.860553,0.012016,0.509220,0.992185,0.046395,0.607785,-20.025841,121.731659,65.914719,,,,,,
1466441713.47,2.134013,-0.011268,-1.676720,-0.028469,-2.600561,-0.069765,0.845488,0.011268,0.533875,0.992982,0.014398,0.574386,-20.025841,121.731659,65.914719,,,,,,
1466441713.49,2.072495,-0.012939,-1.676077,0.010043,-3.360735,-0.100086,0.876693,0.012939,0.480875,0.970841,0.020905,0.579656,-20.025841,121.731659,65.914719,,,,,,
1466441713.50,2.037464,-0.014109,-1.676024,0.063097,-3.514708,-0.104389,0.892984,0.014108,0.449868,0.823294,0.028616,0.727225,-20.175276,130.374313,41.711033,,,,,,
1466441713.51,2.003719,-0.015198,-1.675929,0.026075,-3.317200,-0.103536,0.907639,0.015197,0.419477,0.719558,0.000290,0.814776,-20.175276,130.374313,41.711033,,,,,,
1466441713.52,1.970823,-0.016256,-1.675811,0.038857,-3.307659,-0.100390,0.920929,0.016255,0.389392,0.736481,-0.007161,0.798414,-20.175276,130.374313,41.711033,,,,,,
1466441713.54,1.900841,-0.018415,-1.675676,0.031060,-3.594321,-0.106051,0.945867,0.018414,0.324031,0.708277,-0.006024,0.802922,-17.536417,130.372513,42.892853,,,,,,
1466441713.53,1.936546,-0.017309,-1.675758,0.030147,-3.464795,-0.101542,0.933716,0.017309,0.357596,0.726105,-0.011678,0.772714,-17.536417,130.372513,42.892853,,,,,,
1466441713.55,1.865837,-0.019493,-1.675628,0.028057,-3.438241,-0.104904,0.956609,0.019491,0.290724,0.582271,-0.013525,0.901263,-17.536417,130.372513,42.892853,,,,,,
1466441713.56,1.833287,-0.020556,-1.675546,0.015568,-3.205705,-0.104246,0.965543,0.020555,0.259432,0.557864,-0.012376,0.945952,-17.536417,130.372513,42.892853,,,,,,
1466441713.57,1.801181,-0.021482,-1.675281,-0.001524,-3.231212,-0.092394,0.973354,0.021481,0.228299,0.540440,-0.025005,0.909320,-12.021461,130.366287,44.770908,,,,,,
1466441713.58,1.768770,-0.022340,-1.675334,0.028274,-3.225947,-0.081753,0.980222,0.022338,0.196634,0.481890,0.005738,0.952536,-12.021461,130.366287,44.770908,,,,,,
1466441713.60,1.708138,-0.023783,-1.675009,-0.009711,-2.933962,-0.072977,0.990303,0.023781,0.136872,0.483925,-0.018349,0.969375,-9.186188,131.272781,46.357826,,,,,,
1466441713.59,1.737739,-0.023082,-1.675237,-0.006664,-3.052882,-0.073293,0.985835,0.023080,0.166124,0.472799,-0.004540,0.972045,-9.186188,131.272781,46.357826,,,,,,
1466441713.61,1.678983,-0.024559,-1.674849,-0.006468,-2.908457,-0.081650,0.993854,0.024557,0.107943,0.482144,0.003153,0.997419,-9.186188,131.272781,46.357826,,,,,,
1466441713.63,1.628318,-0.026484,-1.674563,-0.011888,-2.172563,-0.108624,0.997996,0.026481,0.057470,0.294912,-0.001335,1.154719,-3.874100,131.256821,47.144672,,,,,,
1466441713.62,1.651430,-0.025464,-1.674732,-0.004024,-2.674832,-0.093757,0.996428,0.025461,0.080520,0.382723,0.004141,1.069230,-3.874100,131.256821,47.144672,,,,,,
1466441713.64,1.609745,-0.027681,-1.674300,-0.023067,-1.769034,-0.125004,0.998859,0.027677,0.038924,0.262311,-0.007474,1.191560,-3.874100,131.256821,47.144672,,,,,,
1466441713.65,1.594668,-0.029038,-1.674132,-0.009820,-1.416484,-0.141039,0.999294,0.029034,0.023860,0.159688,0.001605,1.224645,-1.735681,131.245438,47.303291,,,,,,
1466441713.66,1.583836,-0.030541,-1.673941,-0.019877,-0.966240,-0.156646,0.999449,0.030537,0.013033,0.058977,-0.007435,1.256117,-1.735681,131.245438,47.303291,,,,,,
1466441713.67,1.577729,-0.032123,-1.673769,-0.011821,-0.493727,-0.164924,0.999460,0.032118,0.006929,-0.023340,-0.000959,1.293012,-1.735681,131.245438,47.303291,,,,,,
1466441713.68,1.575386,-0.033831,-1.673666,-0.009256,-0.157119,-0.173419,0.999417,0.033825,0.004587,-0.099927,0.004139,1.307852,-0.081067,131.211334,47.429562,,,,,,
1466441713.69,1.576236,-0.035522,-1.673493,-0.017380,0.168838,-0.168021,0.999354,0.035514,0.005437,-0.253535,-0.012946,1.270213,-0.081067,131.211334,47.429562,,,,,,
1466441713.70,1.580488,-0.037083,-1.673247,-0.026603,0.488390,-0.149809,0.999266,0.037075,0.009685,-0.329481,-0.007244,1.237889,-0.081067,131.211334,47.429562,,,,,,
1466441713.71,1.585473,-0.038574,-1.672984,-0.018111,0.472450,-0.146508,0.999148,0.038564,0.014665,-0.334979,-0.013845,1.191161,-0.455868,131.198334,47.463345,,,,,,
1466441713.72,1.588645,-0.040029,-1.673310,0.050827,0.269590,-0.137715,0.999040,0.040019,0.017834,-0.405702,0.040655,1.133167,-0.455868,131.198334,47.463345,,,,,,
1466441713.73,1.590545,-0.041356,-1.673707,0.038971,0.172940,-0.125412,0.998950,0.041345,0.019730,-0.503558,0.004447,1.074935,-0.455868,131.198334,47.463345,,,,,,
1466441713.74,1.591499,-0.042541,-1.674461,0.094196,0.076262,-0.115171,0.998881,0.042529,0.020683,-0.575785,0.022886,1.075371,-1.900167,131.205093,47.408806,,,,,,
1466441713.76,1.594753,-0.044898,-1.676821,0.124356,0.339598,-0.125308,0.998706,0.044883,0.023931,-0.908694,-0.008460,0.999553,-1.900167,131.205093,47.408806,,,,,,
1466441713.75,1.592260,-0.043691,-1.675609,0.117648,0.094307,-0.117389,0.998816,0.043677,0.021442,-0.727057,0.039834,1.083386,-1.900167,131.205093,47.408806,,,,,,
1466441713.77,1.600698,-0.046197,-1.678126,0.139668,0.667678,-0.124157,0.998487,0.046181,0.029865,-1.008176,-0.024193,0.948483,-2.286319,131.292404,47.149315,,,,,,
1466441713.78,1.609764,-0.047514,-1.679520,0.145391,0.988337,-0.125098,0.998113,0.047496,0.038914,-1.154684,-0.035533,0.834393,-2.286319,131.292404,47.149315,,,,,,
1466441713.79,1.621124,-0.048788,-1.680864,0.143492,1.183689,-0.118874,0.997545,0.048768,0.050247,-1.184847,-0.051347,0.669541,-2.286319,131.292404,47.149315,,,,,,
1466441713.80,1.633858,-0.050136,-1.682212,0.138328,1.302628,-0.124947,0.996758,0.050115,0.062941,-1.216607,-0.073445,0.404909,-4.291637,131.530045,46.340134,,,,,,
1466441713.81,1.646814,-0.051378,-1.683439,0.134032,1.301519,-0.106849,0.995796,0.051355,0.075844,-1.341698,-0.009287,0.297782,-4.291637,131.530045,46.340134,,,,,,
1466441713.82,1.661289,-0.052312,-1.684812,0.139584,1.530784,-0.078476,0.994546,0.052288,0.090246,-1.364144,-0.025188,0.203455,-5.800607,131.643707,45.850498,,,,,,
1466441713.83,1.679250,-0.053012,-1.685904,0.106978,1.892801,-0.054168,0.992728,0.052987,0.108089,-1.384528,-0.050149,0.067799,-5.800607,131.643707,45.850498,,,,,,
1466441713.84,1.701047,-0.053593,-1.686944,0.112757,2.283458,-0.037449,0.990106,0.053568,0.129696,-1.367089,-0.053446,-0.044552,-5.800607,131.643707,45.850498,,,,,,
1466441713.85,1.726709,-0.054006,-1.687771,0.078070,2.663562,-0.026029,0.986430,0.053980,0.155055,-1.353282,-0.050867,-0.156886,-7.469264,131.752945,45.291832,,,,,,
1466441713.86,1.756644,-0.054191,-1.688412,0.063672,3.115816,0.000925,0.981337,0.054165,0.184508,-1.280440,-0.042125,-0.344222,-7.469264,131.752945,45.291832,,,,,,
1466441713.87,1.790986,-0.054086,-1.688855,0.032201,3.534109,0.024881,0.974429,0.054060,0.218095,-1.156894,-0.030927,-0.498979,-7.469264,131.752945,45.291832,,,,,,
1466441713.88,1.828039,-0.053692,-1.689033,-0.004854,3.738991,0.046977,0.965702,0.053666,0.254048,-1.085681,-0.055543,-0.591756,-7.469264,131.752945,45.291832,,,,,,
1466441713.89,1.866814,-0.053050,-1.689183,-0.000399,3.941714,0.074450,0.955160,0.053025,0.291303,-1.017782,-0.057237,-0.604993,-12.533108,131.884674,43.764561,,,,,,
1466441713.90,1.908936,-0.052182,-1.689384,-0.009556,4.314353,0.093393,0.942089,0.052158,0.331281,-0.902615,-0.084965,-0.670606,-12.533108,131.884674,43.764561,,,,,,
1466441713.91,1.955750,-0.051214,-1.689419,-0.046233,4.782629,0.089355,0.925600,0.051192,0.375024,-0.664370,-0.078215,-0.870874,-12.533108,131.884674,43.764561,,,,,,
1466441713.92,2.004493,-0.049985,-1.689019,-0.095135,4.858015,0.098414,0.906285,0.049964,0.419703,-0.476125,-0.065223,-1.044993,-19.163872,131.917374,41.189022,,,,,,
1466441713.93,2.051215,-0.048416,-1.688354,-0.139150,4.595727,0.115981,0.885762,0.048397,0.461609,-0.302724,-0.057858,-1.136413,-19.163872,131.917374,41.189022,,,,,,
1466441713.94,2.094032,-0.046593,-1.687683,-0.145062,4.149732,0.133675,0.865267,0.046577,0.499143,-0.129915,-0.062690,-1.252134,-22.738232,131.874924,39.470951,,,,,,
1466441713.95,2.130178,-0.044542,-1.687354,-0.124759,3.403198,0.166053,0.846743,0.044527,0.530136,0.044050,-0.079744,-1.351105,-22.738232,131.874924,39.470951,,,,,,
1466441713.96,2.157116,-0.042476,-1.687730,-0.067423,2.467651,0.197524,0.832231,0.042464,0.552800,0.241667,-0.070479,-1.421743,-22.738232,131.874924,39.470951,,,,,,
1466441713.97,2.175469,-0.040476,-1.688476,-0.048250,1.631991,0.207042,0.822015,0.040465,0.568027,0.374824,-0.063490,-1.417133,-25.416027,131.835846,37.938282,,,,,,
1466441713.98,2.187250,-0.038690,-1.689475,-0.008472,1.069247,0.198902,0.815323,0.038681,0.577712,0.442535,-0.052795,-1.286102,-25.416027,131.835846,37.938282,,,,,,
1466441713.99,2.196190,-0.037091,-1.690513,-0.010831,0.864359,0.186347,0.810175,0.037083,0.585014,0.420477,-0.049625,-1.196601,-25.416027,131.835846,37.938282,,,,,,
1466441714.00,2.204855,-0.035563,-1.691428,-0.019321,0.872881,0.177769,0.805120,0.035556,0.592045,0.443400,-0.031314,-1.186161,-25.416027,131.835846,37.938282,,,,,,
1466441714.01,2.213022,-0.033858,-1.692226,-0.045001,0.794282,0.192075,0.800306,0.033851,0.598636,0.494845,-0.048317,-1.213092,-26.827330,131.986145,36.413322,,,,,,
1466441714.02,2.219464,-0.031858,-1.693001,-0.063400,0.586125,0.212522,0.796485,0.031852,0.603819,0.594659,-0.054847,-1.244444,-26.827330,131.986145,36.413322,,,,,,
1466441714.03,2.223386,-0.029597,-1.693755,-0.080786,0.329140,0.227954,0.794166,0.029593,0.606980,0.736077,-0.045508,-1.176667,-26.827330,131.986145,36.413322,,,,,,
1466441714.04,2.225207,-0.027303,-1.694331,-0.098016,0.145506,0.210993,0.793111,0.027300,0.608465,0.841304,-0.033922,-1.088492,-26.765406,132.131531,35.928440,,,,,,
1466441714.05,2.226444,-0.025077,-1.694611,-0.116090,0.127532,0.186605,0.792404,0.025074,0.609481,0.934647,-0.029041,-0.933883,-26.765406,132.131531,35.928440,,,,,,
1466441714.06,2.228266,-0.023033,-1.694627,-0.126570,0.206204,0.152039,0.791331,0.023031,0.610954,1.022542,-0.021719,-0.843681,-26.765406,132.131531,35.928440,,,,,,
1466441714.07,2.230474,-0.021040,-1.694326,-0.152067,0.221135,0.132760,0.790015,0.021039,0.612726,1.096963,-0.030530,-0.784266,-26.333475,132.165970,36.120399,,,,,,
1466441714.09,2.233074,-0.017320,-1.693108,-0.162847,0.049243,0.092313,0.788475,0.017319,0.614822,1.243171,-0.024445,-0.557907,-26.333475,132.165970,36.120399,,,,,,
1466441714.08,2.232336,-0.019101,-1.693799,-0.161691,0.162785,0.117149,0.788904,0.019100,0.614220,1.194739,-0.033321,-0.672707,-26.333475,132.165970,36.120399,,,,,,
1466441714.10,2.233343,-0.015727,-1.692231,-0.167084,0.020655,0.063748,0.788331,0.015726,0.615050,1.309188,-0.000086,-0.442321,-25.885103,132.085815,36.732552,,,,,,
1466441714.11,2.232758,-0.014375,-1.691206,-0.165046,-0.095009,0.037865,0.788706,0.014375,0.614602,1.338750,-0.001481,-0.335229,-25.885103,132.085815,36.732552,,,,,,
1466441714.12,2.230656,-0.013227,-1.690046,-0.163071,-0.257398,0.014403,0.790009,0.013227,0.612952,1.389694,0.013095,-0.245963,-25.885103,132.085815,36.732552,,,,,,
1466441714.13,2.226191,-0.012264,-1.688854,-0.148466,-0.522813,0.000115,0.792748,0.012264,0.609426,1.404899,0.015050,-0.184469,-25.720057,131.993210,37.178635,,,,,,
1466441714.14,2.218549,-0.011418,-1.687676,-0.146722,-0.843455,-0.006388,0.797390,0.011417,0.603357,1.409092,0.001644,-0.112115,-25.720057,131.993210,37.178635,,,,,,
1466441714.15,2.207939,-0.010634,-1.686465,-0.138556,-1.129075,-0.007782,0.803754,0.010634,0.594867,1.376132,-0.004393,0.014737,-25.720057,131.993210,37.178635,,,,,,
1466441714.16,2.195442,-0.009877,-1.685247,-0.146183,-1.279827,-0.014295,0.811131,0.009877,0.584781,1.350734,-0.004384,0.138226,-24.762484,131.767273,38.602921,,,,,,
1466441714.17,2.181848,-0.009200,-1.683863,-0.153747,-1.392333,-0.028499,0.819011,0.009200,0.573705,1.307698,-0.001036,0.272639,-24.762484,131.767273,38.602921,,,,,,
1466441714.18,2.167107,-0.008627,-1.682389,-0.152783,-1.493169,-0.040639,0.827383,0.008627,0.561572,1.236399,0.010432,0.442364,-24.762484,131.767273,38.602921,,,,,,
1466441714.19,2.152568,-0.008411,-1.680831,-0.138791,-1.433610,-0.079319,0.835461,0.008411,0.549486,1.221699,0.034100,0.525786,-23.787916,131.643204,39.625538,,,,,,
1466441714.20,2.138186,-0.008439,-1.679064,-0.145184,-1.471773,-0.100375,0.843277,0.008439,0.537414,1.266800,0.019271,0.523591,-23.787916,131.643204,39.625538,,,,,,
1466441714.21,2.119308,-0.008560,-1.677684,-0.101243,-2.055848,-0.074315,0.853270,0.008560,0.521399,1.197359,-0.008789,0.567926,-23.787916,131.643204,39.625538,,,,,,
1466441714.22,2.093938,-0.008808,-1.676729,-0.057316,-2.687643,-0.070309,0.866221,0.008808,0.499584,1.157461,0.036343,0.698673,-21.614412,131.353745,41.773071,,,,,,
1466441714.23,2.064373,-0.009406,-1.676230,-0.001261,-3.006180,-0.079964,0.880605,0.009406,0.473758,1.090083,0.050104,0.781750,-21.614412,131.353745,41.773071,,,,,,
1466441714.24,2.032654,-0.010423,-1.675784,0.003825,-3.253483,-0.114599,0.895178,0.010423,0.445588,1.021235,0.026763,0.777297,-21.614412,131.353745,41.773071,,,,,,
1466441714.25,1.996228,-0.011804,-1.675171,0.010675,-3.797021,-0.150568,0.910797,0.011803,0.412686,0.667313,0.036888,1.016910,-19.475872,131.288193,43.012581,,,,,,
1466441714.26,1.959685,-0.013575,-1.675478,0.130308,-3.508241,-0.162904,0.925246,0.013575,0.379125,0.517610,0.055425,1.234034,-19.475872,131.288193,43.012581,,,,,,
1466441714.27,1.929694,-0.014974,-1.675757,0.051209,-2.812881,-0.108799,0.936180,0.014974,0.351203,0.689263,-0.048512,0.929635,-19.475872,131.288193,43.012581,,,,,,
1466441714.28,1.903350,-0.015770,-1.676280,0.095930,-2.677225,-0.025514,0.945094,0.015769,0.326417,1.510289,-0.038138,0.273803,-14.230141,131.281784,45.039673,,,,,,
1466441714.30,1.791172,-0.018308,-1.675152,0.156715,-7.009130,-0.100473,0.975652,0.018307,0.218559,-0.192647,0.217197,1.721657,-14.230141,131.281784,45.039673,,,,,,
1466441714.29,1.861299,-0.017234,-1.675361,-0.136776,-5.147408,-0.197597,0.957958,0.017233,0.286392,1.739857,-0.125815,-0.123291,-14.230141,131.281784,45.039673,,,,,,
1466441714.31,1.749659,-0.020121,-1.678294,0.263938,-2.999842,-0.115930,0.983848,0.020120,0.177874,0.192422,-0.001397,1.828321,-11.417675,131.268417,45.871780,,,,,,
1466441714.32,1.739326,-0.020976,-1.675941,-0.283751,-0.786767,-0.131421,0.985616,0.020974,0.167696,0.809337,-0.218514,0.921431,-11.417675,131.268417,45.871780,,,,,,
1466441714.33,1.715927,-0.022062,-1.675962,0.115777,-3.099630,-0.096292,0.989246,0.022061,0.144587,0.873287,0.061344,0.633032,-11.417675,131.268417,45.871780,,,,,,
1466441714.34,1.670422,-0.022882,-1.676252,-0.009801,-4.735829,-0.077640,0.994781,0.022880,0.099435,0.678559,-0.038306,0.863990,-5.268585,131.305847,46.872124,,,,,,
1466441714.36,1.601907,-0.024991,-1.675654,-0.052854,-2.605749,-0.120847,0.999204,0.024989,0.031096,0.180148,0.029531,1.442613,-5.268585,131.305847,46.872124,,,,,,
