timestamp,attitude_roll,attitude_pitch,attitude_yaw,rotation_rate_x,rotation_rate_y,rotation_rate_z,gravity_x,gravity_y,gravity_z,user_acc_x,user_acc_y,user_acc_z,magnetic_field_x,magnetic_field_y,magnetic_field_z,latitude(degree),longitude(degree),altitude(meter),speed(m/s),course(degree),timestamp
,,,,,,,,,,,,,,,,29.720029,-95.398964,10.326840,-1.000000,-1.000000,1465826347.41
,,,,,,,,,,,,,,,,29.719949,-95.399105,10.530075,-1.000000,-1.000000,1465826587.00
1465826358.83,-0.588908,-0.106814,-0.265231,-0.004513,0.102177,0.000456,-0.552288,0.106611,-0.826809,0.881939,-0.080152,-0.108357,30.013227,237.749802,-2.272025,,,,,,
1465826358.84,-0.574193,-0.106214,-0.263806,-0.005560,0.107583,-0.000636,-0.540096,0.106015,-0.834899,0.885052,-0.080914,-0.103882,30.013227,237.749802,-2.272025,,,,,,
,,,,,,,,,,,,,,,,29.720029,-95.398964,10.326840,-1.000000,-1.000000,1465826347.41
1465826358.85,-0.559906,-0.105700,-0.262398,-0.000295,0.053521,-0.000285,-0.528143,0.105503,-0.842576,0.885107,-0.076542,-0.096877,30.013227,237.749802,-2.272025,,,,,,
1465826358.86,-0.546575,-0.105070,-0.260952,0.003871,-0.021786,0.003391,-0.516898,0.104877,-0.849598,0.870963,-0.077884,-0.097011,30.963169,237.632675,-1.707509,,,,,,
1465826358.87,-0.533618,-0.104400,-0.259527,0.004959,-0.010016,0.003325,-0.505882,0.104210,-0.856285,0.849449,-0.076866,-0.088418,30.963169,237.632675,-1.707509,,,,,,
1465826358.88,-0.520069,-0.103716,-0.258164,-0.002378,0.071842,0.000682,-0.494269,0.103530,-0.863122,0.837272,-0.078078,-0.069892,30.963169,237.632675,-1.707509,,,,,,
1465826358.89,-0.505851,-0.103028,-0.256864,-0.005466,0.146264,-0.001910,-0.481982,0.102846,-0.870124,0.827304,-0.078523,-0.062035,31.423893,237.573486,-1.513421,,,,,,
1465826358.90,-0.491487,-0.102348,-0.255616,-0.007566,0.161222,-0.003064,-0.469467,0.102170,-0.877019,0.818009,-0.078045,-0.060497,31.423893,237.573486,-1.513421,,,,,,
1465826358.91,-0.477277,-0.101690,-0.254363,-0.005439,0.155993,-0.000893,-0.456989,0.101515,-0.883660,0.811405,-0.076032,-0.055427,31.423893,237.573486,-1.513421,,,,,,
1465826358.92,-0.463052,-0.101066,-0.253125,-0.009685,0.161389,0.000139,-0.444402,0.100894,-0.890128,0.806050,-0.075626,-0.041223,32.247231,237.466293,-0.890690,,,,,,
1465826358.93,-0.449024,-0.100453,-0.251902,-0.009681,0.161469,0.002274,-0.431898,0.100284,-0.896330,0.794233,-0.074558,-0.039614,32.247231,237.466293,-0.890690,,,,,,
1465826358.94,-0.435299,-0.099865,-0.250667,-0.011855,0.123325,0.004646,-0.419581,0.099699,-0.902226,0.788630,-0.074094,-0.030757,32.247231,237.466293,-0.890690,,,,,,
1465826358.95,-0.422912,-0.099257,-0.249433,0.000770,-0.004014,0.005463,-0.408397,0.099094,-0.907410,0.775188,-0.069645,-0.040161,32.655743,237.411591,-0.504322,,,,,,
1465826358.96,-0.411885,-0.098496,-0.248170,0.008100,-0.107991,0.006129,-0.398397,0.098337,-0.911926,0.761404,-0.070963,-0.040451,32.655743,237.411591,-0.504322,,,,,,
1465826358.97,-0.401197,-0.097757,-0.246926,0.010246,-0.102598,0.005039,-0.388656,0.097601,-0.916199,0.748824,-0.068167,-0.022445,32.655743,237.411591,-0.504322,,,,,,
1465826358.98,-0.389977,-0.097017,-0.245743,0.008232,-0.022869,0.000285,-0.378380,0.096864,-0.920568,0.736488,-0.067918,-0.008783,33.474796,237.298035,-0.006862,,,,,,
1465826358.99,-0.378068,-0.096250,-0.244655,0.003039,0.068540,-0.004546,-0.367417,0.096101,-0.925078,0.717073,-0.068635,-0.002428,33.474796,237.298035,-0.006862,,,,,,
1465826359.00,-0.365720,-0.095470,-0.243607,-0.001137,0.133382,-0.001757,-0.355993,0.095325,-0.929614,0.696996,-0.069080,-0.003720,33.474796,237.298035,-0.006862,,,,,,
1465826359.01,-0.353245,-0.094746,-0.242586,-0.006439,0.148321,0.000278,-0.344393,0.094604,-0.934047,0.686678,-0.068252,-0.005238,33.832489,237.247192,0.229540,,,,,,
1465826359.02,-0.340881,-0.094051,-0.241570,-0.004318,0.135655,0.000365,-0.332840,0.093912,-0.938295,0.685516,-0.066172,-0.001936,33.832489,237.247192,0.229540,,,,,,
1465826359.03,-0.328789,-0.093383,-0.240557,-0.003286,0.103878,0.000571,-0.321490,0.093247,-0.942310,0.687320,-0.064988,0.006077,33.832489,237.247192,0.229540,,,,,,
1465826359.04,-0.317241,-0.092693,-0.239542,0.000920,0.054050,-0.000171,-0.310607,0.092560,-0.946021,0.681640,-0.063782,0.011710,34.476917,237.152695,0.926600,,,,,,
1465826359.05,-0.306338,-0.091945,-0.238534,0.002985,-0.001092,0.001247,-0.300295,0.091816,-0.949417,0.674990,-0.064472,0.015091,34.476917,237.152695,0.926600,,,,,,
1465826359.06,-0.296129,-0.091157,-0.237517,0.008251,-0.050927,0.002634,-0.290608,0.091031,-0.952502,0.663915,-0.063382,0.014224,34.476917,237.152695,0.926600,,,,,,
,,,,,,,,,,,,,,,,29.721499,-95.401382,10.326840,-1.000000,-1.000000,1465826588.99
1465826359.07,-0.286412,-0.090345,-0.236510,0.009286,-0.078464,0.003878,-0.281360,0.090222,-0.955352,0.651721,-0.063275,0.018553,34.800377,237.104095,1.224781,,,,,,
,,,,,,,,,,,,,,,,29.721550,-95.401465,10.326840,-1.000000,-1.000000,1465826589.00
1465826359.09,-0.267858,-0.088631,-0.234555,0.010342,-0.096371,0.004002,-0.263628,0.088515,-0.960555,0.627367,-0.064070,0.024581,34.800377,237.104095,1.224781,,,,,,
1465826359.08,-0.277008,-0.089513,-0.235519,0.010340,-0.092195,0.003970,-0.272384,0.089394,-0.958027,0.641937,-0.062630,0.020649,34.800377,237.104095,1.224781,,,,,,
1465826359.10,-0.258955,-0.087756,-0.233622,0.010341,-0.102671,0.004047,-0.255085,0.087644,-0.962938,0.614262,-0.062451,0.024614,35.426044,237.009552,1.543788,,,,,,
1465826359.11,-0.250200,-0.086879,-0.232718,0.008119,-0.095261,0.003912,-0.246664,0.086770,-0.965209,0.602026,-0.062356,0.026168,35.426044,237.009552,1.543788,,,,,,
1465826359.12,-0.241419,-0.086019,-0.231827,0.008148,-0.077147,0.003803,-0.238197,0.085913,-0.967409,0.591957,-0.061377,0.030138,35.426044,237.009552,1.543788,,,,,,
,,,,,,,,,,,,,,,,29.720017,-95.399026,10.931576,-1.000000,-1.000000,1465826589.18
1465826359.13,-0.232539,-0.085224,-0.230967,0.007111,-0.060095,0.003700,-0.229613,0.085121,-0.969553,0.584914,-0.058479,0.034280,35.711014,236.966064,1.653800,,,,,,
1465826359.15,-0.215155,-0.083621,-0.229281,0.008148,-0.091826,0.003909,-0.212753,0.083523,-0.973530,0.573470,-0.057568,0.038868,35.711014,236.966064,1.653800,,,,,,
1465826359.14,-0.223664,-0.084420,-0.230118,0.007118,-0.061092,0.002646,-0.221014,0.084320,-0.971619,0.582037,-0.058624,0.038040,35.711014,236.966064,1.653800,,,,,,
1465826359.16,-0.207207,-0.082814,-0.228441,0.012353,-0.135307,0.006319,-0.205022,0.082719,-0.975256,0.566228,-0.055451,0.036123,36.259712,236.880325,1.966029,,,,,,
1465826359.17,-0.199778,-0.081985,-0.227606,0.013374,-0.174534,0.006570,-0.197785,0.081893,-0.976819,0.558442,-0.055739,0.037549,36.259712,236.880325,1.966029,,,,,,
1465826359.18,-0.192757,-0.081184,-0.226788,0.014411,-0.201021,0.006742,-0.190935,0.081095,-0.978247,0.551637,-0.053278,0.039526,36.536057,236.837051,2.060020,,,,,,
1465826359.19,-0.186143,-0.080305,-0.225979,0.016520,-0.222199,0.006881,-0.184474,0.080218,-0.979558,0.540080,-0.054736,0.040685,36.536057,236.837051,2.060020,,,,,,
1465826359.20,-0.179843,-0.079380,-0.225182,0.018641,-0.231703,0.008011,-0.178312,0.079297,-0.980774,0.527357,-0.055509,0.039367,36.536057,236.837051,2.060020,,,,,,
1465826359.21,-0.173679,-0.078446,-0.224410,0.016516,-0.232707,0.008019,-0.172276,0.078366,-0.981927,0.518467,-0.055890,0.042306,36.808655,236.794571,2.091081,,,,,,
1465826359.22,-0.167594,-0.077570,-0.223652,0.016533,-0.223095,0.007963,-0.166309,0.077492,-0.983024,0.508777,-0.052712,0.042411,36.808655,236.794571,2.091081,,,,,,
1465826359.23,-0.153574,-0.075986,-0.222307,0.017606,-0.225111,0.007985,-0.152530,0.075913,-0.985379,0.495105,-0.052140,0.043927,36.808655,236.794571,2.091081,,,,,,
1465826359.24,-0.147971,-0.075119,-0.221604,0.018656,-0.240985,0.008089,-0.147016,0.075049,-0.986283,0.490095,-0.051031,0.044282,36.808655,236.794571,2.091081,,,,,,
1465826359.25,-0.142683,-0.074278,-0.220905,0.019687,-0.269604,0.009338,-0.141807,0.074210,-0.987109,0.487480,-0.049155,0.043536,37.421997,236.698029,2.134944,,,,,,
1465826359.26,-0.137816,-0.073443,-0.220197,0.019647,-0.303532,0.010619,-0.137009,0.073376,-0.987848,0.480882,-0.047894,0.043375,37.421997,236.698029,2.134944,,,,,,
1465826359.27,-0.133604,-0.072535,-0.219492,0.029165,-0.357641,0.012036,-0.132857,0.072471,-0.988482,0.472807,-0.048393,0.041461,37.421997,236.698029,2.134944,,,,,,
1465826359.28,-0.130001,-0.071589,-0.218799,0.028058,-0.396874,0.011220,-0.129303,0.071528,-0.989022,0.466721,-0.048533,0.040948,37.922020,236.619827,1.975924,,,,,,
1465826359.29,-0.126884,-0.070635,-0.218112,0.032269,-0.437178,0.012545,-0.126228,0.070577,-0.989487,0.463890,-0.048283,0.041032,37.922020,236.619827,1.975924,,,,,,
1465826359.30,-0.124603,-0.069679,-0.217463,0.032221,-0.478541,0.012808,-0.123980,0.069623,-0.989839,0.450197,-0.047665,0.034700,37.922020,236.619827,1.975924,,,,,,
1465826359.31,-0.123086,-0.068718,-0.216820,0.036429,-0.520974,0.014146,-0.122486,0.068664,-0.990092,0.435672,-0.045700,0.033046,38.174332,236.581085,1.739971,,,,,,
1465826359.32,-0.122207,-0.067705,-0.216210,0.038536,-0.544289,0.013233,-0.121624,0.067653,-0.990268,0.415294,-0.047161,0.029071,38.174332,236.581085,1.739971,,,,,,
1465826359.33,-0.121078,-0.066725,-0.215622,0.031138,-0.506015,0.011924,-0.120513,0.066675,-0.990470,0.394332,-0.045160,0.030799,38.414433,236.544510,1.394004,,,,,,
1465826359.34,-0.125496,-0.066442,-0.215454,0.030180,-0.418949,0.012441,-0.124890,0.066393,-0.989947,0.391797,-0.044328,0.037234,38.414433,236.544510,1.394004,,,,,,
1465826359.35,-0.128828,-0.066222,-0.215327,0.022873,-0.307448,0.008542,-0.128190,0.066174,-0.989539,0.391053,-0.043240,0.036918,38.414433,236.544510,1.394004,,,,,,
1465826359.36,-0.131169,-0.066051,-0.215234,0.015542,-0.214000,0.005819,-0.130508,0.066003,-0.989248,0.398346,-0.044213,0.033422,38.414433,236.544510,1.394004,,,,,,
1465826359.37,-0.132895,-0.065916,-0.215149,0.014543,-0.157729,0.007594,-0.132217,0.065868,-0.989030,0.427154,-0.046962,0.039048,38.695435,236.502197,0.538773,,,,,,
1465826359.38,-0.133991,-0.065818,-0.215094,0.007164,-0.108865,0.000894,-0.133301,0.065771,-0.988891,0.486268,-0.031912,0.071532,38.695435,236.502197,0.538773,,,,,,
1465826359.39,-0.136920,-0.065648,-0.214964,0.027040,-0.372234,0.014274,-0.136198,0.065601,-0.988507,0.433989,-0.052417,-0.017779,38.695435,236.502197,0.538773,,,,,,
1465826359.40,-0.142616,-0.065275,-0.214776,0.041634,-0.624945,0.013745,-0.141831,0.065229,-0.987739,0.436798,-0.038632,0.009575,38.764904,236.491425,0.078555,,,,,,
1465826359.41,-0.149542,-0.064831,-0.214534,0.047915,-0.703533,0.018502,-0.148672,0.064786,-0.986762,0.436636,-0.045071,0.025733,38.764904,236.491425,0.078555,,,,,,
1465826359.42,-0.156313,-0.064405,-0.214293,0.043714,-0.661053,0.016102,-0.155355,0.064360,-0.985760,0.429632,-0.047896,0.028881,38.764904,236.491425,0.078555,,,,,,
1465826359.43,-0.162411,-0.063998,-0.214062,0.044858,-0.596287,0.016762,-0.161367,0.063955,-0.984820,0.430868,-0.037954,0.041278,38.834286,236.479248,-0.617983,,,,,,
1465826359.45,-0.174721,-0.063214,-0.213547,0.046873,-0.682303,0.020496,-0.173486,0.063172,-0.982808,0.479883,-0.038468,0.027074,38.834286,236.479248,-0.617983,,,,,,
1465826359.44,-0.168216,-0.063617,-0.213813,0.040612,-0.584608,0.017749,-0.167085,0.063574,-0.983891,0.455125,-0.042288,0.031437,38.834286,236.479248,-0.617983,,,,,,
1465826359.46,-0.182942,-0.062708,-0.213210,0.058333,-0.878751,0.024933,-0.181566,0.062667,-0.981380,0.516725,-0.036635,0.032604,38.969238,236.449280,-2.015085,,,,,,
1465826359.47,-0.194291,-0.062014,-0.212785,0.082358,-1.245091,0.029384,-0.192700,0.061974,-0.979299,0.471356,-0.037423,-0.017238,38.969238,236.449280,-2.015085,,,,,,
1465826359.48,-0.210178,-0.061104,-0.212318,0.105242,-1.682553,0.027892,-0.208245,0.061066,-0.976169,0.303505,-0.055787,-0.123731,38.969238,236.449280,-2.015085,,,,,,
1465826359.49,-0.225836,-0.060135,-0.211748,0.101244,-1.465958,0.031852,-0.223517,0.060098,-0.972846,0.264914,-0.048181,-0.031381,39.043892,236.425323,-3.092191,,,,,,
1465826359.51,-0.233066,-0.059624,-0.211505,-0.016685,0.397632,-0.004436,-0.230551,0.059589,-0.971234,0.221258,-0.050632,0.039441,39.043892,236.425323,-3.092191,,,,,,
1465826359.50,-0.234503,-0.059607,-0.211488,0.041641,-0.630237,0.007391,-0.231947,0.059571,-0.970903,0.228163,-0.055177,0.022660,39.043892,236.425323,-3.092191,,,,,,
1465826359.52,-0.222804,-0.060155,-0.211830,-0.069943,1.206791,-0.023401,-0.220566,0.060118,-0.973518,0.294968,-0.053679,0.036857,39.057568,236.385513,-5.225837,,,,,,
1465826359.53,-0.207878,-0.060953,-0.212286,-0.090802,1.549772,-0.028767,-0.206001,0.060915,-0.976654,0.384971,-0.042986,0.015701,39.057568,236.385513,-5.225837,,,,,,
1465826359.54,-0.193040,-0.061768,-0.212785,-0.087745,1.432984,-0.032289,-0.191477,0.061729,-0.979554,0.419504,-0.043510,-0.015426,39.061607,236.410568,-3.893322,,,,,,
1465826359.55,-0.181396,-0.062379,-0.213154,-0.059466,1.070875,-0.022539,-0.180052,0.062338,-0.981680,0.433286,-0.039008,-0.028452,39.061607,236.410568,-3.893322,,,,,,
1465826359.56,-0.173207,-0.062788,-0.213413,-0.040717,0.745942,-0.016224,-0.172003,0.062747,-0.983096,0.443625,-0.041110,-0.010068,39.061607,236.410568,-3.893322,,,,,,
1465826359.57,-0.167176,-0.063059,-0.213594,-0.026035,0.570731,-0.012982,-0.166068,0.063017,-0.984099,0.433234,-0.038008,0.014281,39.061607,236.410568,-3.893322,,,,,,
1465826359.58,-0.161787,-0.063283,-0.213772,-0.026071,0.539942,-0.013853,-0.160759,0.063241,-0.984966,0.419426,-0.042473,0.021266,38.966255,236.451828,-1.755157,,,,,,
1465826359.59,-0.156057,-0.063537,-0.213934,-0.027078,0.589841,-0.012038,-0.155110,0.063494,-0.985855,0.399251,-0.040285,0.029495,38.966255,236.451828,-1.755157,,,,,,
1465826359.60,-0.149516,-0.063829,-0.214127,-0.033352,0.675859,-0.015777,-0.148656,0.063786,-0.986830,0.406469,-0.044788,0.034300,38.966255,236.451828,-1.755157,,,,,,
1465826359.61,-0.142370,-0.064165,-0.214312,-0.036491,0.724695,-0.012893,-0.141597,0.064121,-0.987845,0.418621,-0.039570,0.036780,38.921696,236.462677,-1.196816,,,,,,
1465826359.62,-0.135303,-0.064493,-0.214493,-0.034400,0.693901,-0.012698,-0.134610,0.064448,-0.988801,0.440076,-0.045527,0.032120,38.921696,236.462677,-1.196816,,,,,,
1465826359.63,-0.129136,-0.064779,-0.214633,-0.028153,0.584527,-0.009877,-0.128508,0.064734,-0.989594,0.457426,-0.041846,0.033875,38.921696,236.462677,-1.196816,,,,,,
1465826359.64,-0.124646,-0.064976,-0.214744,-0.018803,0.400827,-0.007651,-0.124061,0.064930,-0.990148,0.458228,-0.044132,0.021886,38.814140,236.483322,0.165608,,,,,,
1465826359.65,-0.122111,-0.065059,-0.214790,-0.005210,0.207563,-0.003232,-0.121550,0.065014,-0.990454,0.451704,-0.041881,0.019461,38.814140,236.483322,0.165608,,,,,,
1465826359.66,-0.121081,-0.065054,-0.214793,0.002073,0.076949,0.000787,-0.120530,0.065008,-0.990579,0.438020,-0.043340,0.027398,38.814140,236.483322,0.165608,,,,,,
1465826359.68,-0.120124,-0.064962,-0.214768,0.005249,0.062082,0.000884,-0.119583,0.064916,-0.990700,0.422683,-0.042639,0.042305,38.783325,236.487885,0.508945,,,,,,
1465826359.67,-0.120661,-0.065014,-0.214778,0.004152,0.036600,0.001043,-0.120114,0.064968,-0.990632,0.426968,-0.041530,0.035264,38.783325,236.487885,0.508945,,,,,,
1465826359.69,-0.119280,-0.064937,-0.214758,0.002090,0.090752,0.000701,-0.118746,0.064891,-0.990802,0.429598,-0.040737,0.046313,38.783325,236.487885,0.508945,,,,,,
1465826359.70,-0.118455,-0.064914,-0.214731,0.004192,0.071633,0.002952,-0.117929,0.064868,-0.990901,0.438883,-0.040927,0.042460,38.785820,236.487289,0.589044,,,,,,
1465826359.71,-0.118389,-0.064856,-0.214690,0.008333,-0.021808,0.003542,-0.117865,0.064811,-0.990912,0.445196,-0.040137,0.037147,38.785820,236.487289,0.589044,,,,,,
1465826359.72,-0.119674,-0.064688,-0.214595,0.019861,-0.164104,0.007639,-0.119139,0.064643,-0.990771,0.435377,-0.040717,0.023593,38.785820,236.487289,0.589044,,,,,,
1465826359.73,-0.122116,-0.064437,-0.214493,0.028254,-0.267097,0.006165,-0.121560,0.064393,-0.990493,0.438378,-0.040131,0.031906,38.798801,236.485107,0.602480,,,,,,
1465826359.74,-0.125203,-0.064154,-0.214355,0.029246,-0.318076,0.010743,-0.124620,0.064110,-0.990131,0.425706,-0.040169,0.032062,38.798801,236.485107,0.602480,,,,,,
1465826359.75,-0.128481,-0.063858,-0.214197,0.031360,-0.328698,0.011876,-0.127867,0.063814,-0.989736,0.420576,-0.040026,0.035101,38.798801,236.485107,0.602480,,,,,,
1465826359.76,-0.131653,-0.063555,-0.214054,0.031383,-0.313827,0.009654,-0.131008,0.063512,-0.989345,0.419888,-0.040807,0.037776,38.887993,236.471222,-0.039306,,,,,,
1465826359.77,-0.134809,-0.063268,-0.213907,0.031373,-0.320201,0.010758,-0.134133,0.063226,-0.988944,0.416786,-0.043405,0.031501,38.887993,236.471222,-0.039306,,,,,,
1465826359.78,-0.138082,-0.062963,-0.213751,0.033484,-0.332946,0.011905,-0.137371,0.062921,-0.988519,0.414638,-0.041788,0.027124,38.887993,236.471222,-0.039306,,,,,,
1465826359.79,-0.129506,-0.061529,-0.212816,0.032406,-0.345613,0.015182,-0.128900,0.061490,-0.989749,0.417062,-0.044095,0.030109,38.936035,236.462921,-0.433439,,,,,,
1465826359.80,-0.121303,-0.060368,-0.211926,0.038764,-0.379503,0.012212,-0.120785,0.060332,-0.990844,0.419781,-0.035048,0.039290,38.936035,236.462921,-0.433439,,,,,,
1465826359.81,-0.115107,-0.058978,-0.211084,0.040765,-0.479254,0.018167,-0.114654,0.058944,-0.991655,0.400802,-0.041671,0.022386,39.139999,236.428711,-0.670732,,,,,,
1465826359.82,-0.110858,-0.057688,-0.210298,0.049166,-0.582176,0.015631,-0.110447,0.057656,-0.992208,0.405567,-0.038476,0.026479,39.139999,236.428711,-0.670732,,,,,,
1465826359.83,-0.109625,-0.056482,-0.209600,0.051161,-0.683012,0.022656,-0.109231,0.056452,-0.992412,0.384362,-0.038751,0.023326,39.139999,236.428711,-0.670732,,,,,,
1465826359.84,-0.110673,-0.055348,-0.208971,0.058539,-0.753039,0.018847,-0.110279,0.055319,-0.992360,0.393924,-0.039984,0.028340,39.139999,236.428711,-0.670732,,,,,,
1465826359.85,-0.111450,-0.054149,-0.208263,0.061622,-0.834766,0.025753,-0.111056,0.054123,-0.992339,0.378070,-0.035995,0.030120,39.769421,236.321701,-1.168912,,,,,,
1465826359.86,-0.118569,-0.053340,-0.207836,0.068971,-0.923939,0.023127,-0.118123,0.053315,-0.991567,0.378682,-0.038483,0.019170,39.769421,236.321701,-1.168912,,,,,,
1465826359.87,-0.127393,-0.052546,-0.207442,0.072051,-1.011010,0.026870,-0.126873,0.052522,-0.990527,0.357876,-0.038728,0.010089,39.769421,236.321701,-1.168912,,,,,,
1465826359.88,-0.137804,-0.051848,-0.207070,0.074140,-1.044986,0.026020,-0.137184,0.051824,-0.989189,0.345558,-0.041540,0.002296,40.128902,236.246429,-2.866984,,,,,,
1465826359.89,-0.147850,-0.051172,-0.206706,0.071015,-0.986591,0.027780,-0.147119,0.051150,-0.987795,0.346093,-0.041674,0.008898,40.128902,236.246429,-2.866984,,,,,,
1465826359.90,-0.156776,-0.050570,-0.206360,0.061600,-0.858099,0.023771,-0.155935,0.050548,-0.986473,0.352407,-0.039791,0.016945,40.128902,236.246429,-2.866984,,,,,,
1465826359.91,-0.164669,-0.050065,-0.206052,0.054250,-0.774216,0.024302,-0.163720,0.050044,-0.985237,0.365594,-0.037822,0.016975,40.185558,236.219727,-4.035488,,,,,,
1465826359.92,-0.172449,-0.049550,-0.205717,0.056358,-0.791206,0.024411,-0.171385,0.049529,-0.983958,0.381483,-0.037307,0.013423,40.185558,236.219727,-4.035488,,,,,,
1465826359.93,-0.181396,-0.048974,-0.205348,0.065752,-0.939866,0.026417,-0.180186,0.048954,-0.982414,0.397426,-0.033177,0.009055,40.185558,236.219727,-4.035488,,,,,,
1465826359.94,-0.192686,-0.048262,-0.204899,0.082454,-1.201087,0.031265,-0.191273,0.048243,-0.980351,0.409672,-0.033595,-0.006069,40.248772,236.168442,-5.952163,,,,,,
1465826359.95,-0.206793,-0.047395,-0.204368,0.099134,-1.479297,0.036220,-0.205092,0.047377,-0.977595,0.406370,-0.036314,-0.024083,40.248772,236.168442,-5.952163,,,,,,
1465826359.96,-0.222834,-0.046430,-0.203745,0.109579,-1.634337,0.041461,-0.220756,0.046414,-0.974224,0.376793,-0.037624,-0.029621,40.248772,236.168442,-5.952163,,,,,,
1465826359.97,-0.238869,-0.045460,-0.203081,0.107510,-1.584434,0.042210,-0.236359,0.045444,-0.970602,0.375321,-0.035969,-0.006326,40.233871,236.130463,-7.386672,,,,,,
1465826359.98,-0.253987,-0.044571,-0.202443,0.100171,-1.496295,0.039521,-0.251015,0.044556,-0.966957,0.375985,-0.034562,0.005119,40.233871,236.130463,-7.386672,,,,,,
1465826359.99,-0.268764,-0.043705,-0.201780,0.101248,-1.483560,0.041571,-0.265287,0.043691,-0.963179,0.374585,-0.037710,-0.010896,40.233871,236.130463,-7.386672,,,,,,
1465826360.00,-0.284099,-0.042836,-0.201098,0.102215,-1.561072,0.042058,-0.280035,0.042823,-0.959034,0.395575,-0.034934,-0.020397,40.055012,236.026138,-10.870749,,,,,,
1465826360.01,-0.300967,-0.041895,-0.200366,0.113708,-1.736275,0.043169,-0.296184,0.041883,-0.954212,0.388698,-0.037855,-0.041683,40.055012,236.026138,-10.870749,,,,,,
1465826360.02,-0.319371,-0.040874,-0.199533,0.126305,-1.869024,0.050400,-0.313708,0.040863,-0.948640,0.372515,-0.038757,-0.058822,39.875408,235.967163,-12.663980,,,,,,
1465826360.03,-0.338215,-0.039844,-0.198641,0.125215,-1.889198,0.050526,-0.331541,0.039833,-0.942600,0.392011,-0.035073,-0.033444,39.875408,235.967163,-12.663980,,,,,,
1465826360.04,-0.357320,-0.038813,-0.197733,0.129430,-1.926360,0.049699,-0.349501,0.038803,-0.936132,0.404707,-0.036499,-0.030970,39.875408,235.967163,-12.663980,,,,,,
1465826360.05,-0.377383,-0.037765,-0.196734,0.136721,-2.045304,0.056839,-0.368226,0.037756,-0.928969,0.418412,-0.033606,-0.038056,39.598148,235.893616,-14.734446,,,,,,
1465826360.06,-0.399508,-0.036612,-0.195623,0.153456,-2.282100,0.060469,-0.388705,0.036604,-0.920635,0.446215,-0.032224,-0.045597,39.598148,235.893616,-14.734446,,,,,,
1465826360.07,-0.424778,-0.035348,-0.194317,0.174302,-2.626158,0.071164,-0.411861,0.035341,-0.910561,0.466701,-0.028459,-0.047706,39.598148,235.893616,-14.734446,,,,,,
1465826360.08,-0.453981,-0.033908,-0.192779,0.202536,-3.024369,0.081140,-0.438295,0.033901,-0.898192,0.482576,-0.028698,-0.063448,38.664333,235.703094,-19.494669,,,,,,
1465826360.09,-0.487150,-0.032352,-0.190977,0.226504,-3.428945,0.090088,-0.467865,0.032346,-0.883208,0.515884,-0.024854,-0.039232,38.664333,235.703094,-19.494669,,,,,,
1465826360.10,-0.525250,-0.030592,-0.188984,0.260855,-3.974825,0.092393,-0.501195,0.030588,-0.864794,0.500233,-0.030588,-0.082197,38.664333,235.703094,-19.494669,,,,,,
1465826360.11,-0.567993,-0.028702,-0.186568,0.291192,-4.378372,0.111985,-0.537719,0.028698,-0.842635,0.424911,-0.030056,-0.097306,38.664333,235.703094,-19.494669,,,,,,
1465826360.12,-0.612977,-0.026902,-0.183996,0.293125,-4.535520,0.112973,-0.575097,0.026898,-0.817643,0.456780,-0.036862,-0.074447,36.175480,235.343536,-27.123304,,,,,,
1465826360.13,-0.659204,-0.025157,-0.181228,0.309981,-4.665092,0.122318,-0.612294,0.025154,-0.790230,0.437947,-0.024254,-0.054405,36.175480,235.343536,-27.123304,,,,,,
1465826360.14,-0.707279,-0.023477,-0.178264,0.318237,-4.877450,0.121529,-0.649589,0.023475,-0.759923,0.450279,-0.036644,-0.075313,34.031841,235.085983,-31.738583,,,,,,
1465826360.15,-0.758646,-0.021812,-0.175019,0.350779,-5.228956,0.135475,-0.687775,0.021811,-0.725596,0.413224,-0.028128,-0.116659,34.031841,235.085983,-31.738583,,,,,,
1465826360.16,-0.813037,-0.020292,-0.171448,0.362122,-5.510362,0.145767,-0.726229,0.020290,-0.687154,0.426729,-0.038708,-0.099193,34.031841,235.085983,-31.738583,,,,,,
1465826360.17,-0.870721,-0.018787,-0.167597,0.392541,-5.878818,0.145979,-0.764659,0.018786,-0.644161,0.478236,-0.025042,-0.092396,31.225330,234.778305,-36.538311,,,,,,
1465826360.18,-0.932833,-0.017513,-0.163381,0.416435,-6.328016,0.164787,-0.803187,0.017512,-0.595469,0.416682,-0.039286,-0.118749,31.225330,234.778305,-36.538311,,,,,,
1465826360.19,-0.999754,-0.016384,-0.158768,0.453071,-6.822846,0.172184,-0.841225,0.016383,-0.540436,0.434594,-0.021541,-0.126022,31.225330,234.778305,-36.538311,,,,,,
1465826360.20,-1.070976,-0.015535,-0.153797,0.477050,-7.217869,0.182137,-0.877563,0.015534,-0.479210,0.384826,-0.045060,-0.126854,22.571497,233.939865,-46.835724,,,,,,
1465826360.21,-1.145717,-0.014979,-0.148492,0.505354,-7.561925,0.190710,-0.910904,0.014979,-0.412346,0.364273,-0.021723,-0.122672,22.571497,233.939865,-46.835724,,,,,,
1465826360.22,-1.223250,-0.014879,-0.142965,0.522050,-7.818914,0.200853,-0.940107,0.014878,-0.340554,0.318403,-0.045869,-0.121604,22.571497,233.939865,-46.835724,,,,,,
1465826360.23,-1.303165,-0.015178,-0.137276,0.530267,-8.067366,0.197098,-0.964289,0.015178,-0.264418,0.292978,-0.039393,-0.098055,16.202393,233.388168,-51.945778,,,,,,
1465826360.24,-1.385442,-0.015984,-0.131444,0.558708,-8.286155,0.214465,-0.982745,0.015983,-0.184271,0.250125,-0.045112,-0.148859,16.202393,233.388168,-51.945778,,,,,,
1465826360.25,-1.470012,-0.017382,-0.125519,0.564768,-8.533585,0.225603,-0.994775,0.017382,-0.100599,0.203622,-0.041002,-0.077654,8.583688,232.769180,-56.353786,,,,,,
1465826360.26,-1.557385,-0.019274,-0.119579,0.591033,-8.826634,0.220016,-0.999724,0.019273,-0.013408,0.210845,-0.053758,-0.147862,8.583688,232.769180,-56.353786,,,,,,
1465826360.27,-1.647755,-0.021840,-0.113543,0.611921,-9.120817,0.241042,-0.996802,0.021838,0.076864,0.125327,-0.046145,-0.094442,8.583688,232.769180,-56.353786,,,,,,
1465826360.28,-1.741033,-0.025069,-0.107727,0.622194,-9.405410,0.251352,-0.985235,0.025066,0.169363,0.110983,-0.055874,-0.104620,8.583688,232.769180,-56.353786,,,,,,
1465826360.29,-1.837150,-0.028771,-0.101990,0.644201,-9.715416,0.235223,-0.964338,0.028767,0.263107,0.079008,-0.049183,-0.083465,-9.865667,231.399399,-61.545944,,,,,,
1465826360.31,-2.033009,-0.038166,-0.091504,0.645283,-9.672996,0.253054,-0.894416,0.038157,0.445605,-0.202920,-0.063181,-0.052783,-9.865667,231.399399,-61.545944,,,,,,
1465826360.30,-1.935677,-0.033186,-0.096471,0.665254,-9.889595,0.248045,-0.933652,0.033180,0.356642,-0.094348,-0.075141,-0.127836,-9.865667,231.399399,-61.545944,,,,,,
1465826360.32,-2.126247,-0.043265,-0.087282,0.611823,-9.202570,0.239425,-0.848868,0.043252,0.526833,-0.255945,-0.077828,-0.131645,-31.203508,230.027771,-59.535561,,,,,,
1465826360.33,-2.212761,-0.048511,-0.083767,0.571201,-8.482648,0.234870,-0.799978,0.048492,0.598066,-0.336984,-0.077407,-0.045637,-31.203508,230.027771,-59.535561,,,,,,
1465826360.34,-2.293230,-0.053584,-0.081073,0.520781,-7.954871,0.218736,-0.749122,0.053558,0.660263,-0.278054,-0.078217,-0.023377,-31.203508,230.027771,-59.535561,,,,,,
1465826360.35,-2.372139,-0.058781,-0.078763,0.529335,-7.928328,0.217514,-0.694541,0.058747,0.717050,-0.236947,-0.064286,-0.020075,-40.522865,229.503540,-55.829605,,,,,,
1465826360.36,-2.454472,-0.064325,-0.076805,0.551122,-8.377493,0.224610,-0.633002,0.064281,0.771477,-0.246942,-0.067241,-0.009514,-40.522865,229.503540,-55.829605,,,,,,
1465826360.37,-2.542339,-0.070266,-0.075103,0.586660,-8.920069,0.219533,-0.562634,0.070208,0.823719,-0.323123,-0.083300,-0.116352,-40.522865,229.503540,-55.829605,,,,,,
1465826360.38,-2.631022,-0.076608,-0.073936,0.595325,-8.775715,0.235667,-0.487242,0.076533,0.869907,-0.493318,-0.100429,-0.125659,-55.257225,228.823349,-44.915947,,,,,,
1465826360.39,-2.712786,-0.082362,-0.073344,0.520822,-7.954815,0.198511,-0.414377,0.082268,0.906380,-0.478796,-0.082375,0.016213,-55.257225,228.823349,-44.915947,,,,,,
1465826360.40,-2.784870,-0.087577,-0.073304,0.466710,-6.959870,0.189024,-0.347867,0.087466,0.933455,-0.583911,-0.105471,0.061723,-55.257225,228.823349,-44.915947,,,,,,
1465826360.41,-2.847856,-0.092049,-0.073550,0.400764,-6.088044,0.164330,-0.288306,0.091919,0.953116,-0.617899,-0.083344,-0.009772,-55.257225,228.823349,-44.915947,,,,,,
1465826360.43,-2.950583,-0.099327,-0.074622,0.304780,-4.556807,0.129084,-0.188914,0.099164,0.976974,-0.696904,-0.100308,-0.084792,-65.108414,228.530060,-31.077801,,,,,,
1465826360.42,-2.902921,-0.095942,-0.074040,0.350664,-5.313916,0.141330,-0.235325,0.095795,0.967184,-0.660518,-0.105088,-0.045584,-65.108414,228.530060,-31.077801,,,,,,
1465826360.44,-2.988647,-0.102026,-0.075218,0.236912,-3.528877,0.097023,-0.151557,0.101849,0.983187,-0.710503,-0.112759,-0.106036,-67.394356,228.520645,-25.830742,,,,,,
1465826360.45,-3.015530,-0.103930,-0.075724,0.163828,-2.407520,0.069693,-0.125050,0.103743,0.986712,-0.677562,-0.103819,-0.059954,-67.394356,228.520645,-25.830742,,,,,,
1465826360.46,-3.032228,-0.105111,-0.076123,0.098006,-1.429526,0.048591,-0.108545,0.104918,0.988540,-0.665900,-0.103102,-0.081603,-68.545647,228.538101,-22.422138,,,,,,
1465826360.47,-3.040079,-0.105720,-0.076330,0.044817,-0.577872,0.020844,-0.100773,0.105523,0.989298,-0.631374,-0.099008,-0.094385,-68.545647,228.538101,-22.422138,,,,,,
1465826360.48,-3.040374,-0.105739,-0.076488,-0.017097,0.145244,0.017311,-0.100481,0.105542,0.989325,-0.587110,-0.093914,-0.110266,-68.545647,228.538101,-22.422138,,,,,,
1465826360.49,-3.034309,-0.105399,-0.076465,-0.039727,0.734632,-0.014084,-0.106483,0.105204,0.988733,-0.483971,-0.091563,-0.090921,-68.895393,228.556030,-21.130230,,,,,,
1465826360.50,-3.024563,-0.104735,-0.076328,-0.068103,1.027710,-0.018079,-0.116123,0.104544,0.987718,-0.426693,-0.076117,-0.095902,-68.895393,228.556030,-21.130230,,,,,,
1465826360.51,-3.012814,-0.103942,-0.076185,-0.078473,1.221010,-0.036333,-0.127730,0.103755,0.986367,-0.421785,-0.102992,-0.132531,-68.895393,228.556030,-21.130230,,,,,,
1465826360.52,-2.999390,-0.103069,-0.075972,-0.085747,1.381317,-0.026701,-0.140972,0.102886,0.984653,-0.380512,-0.073437,-0.107242,-68.378952,228.570450,-22.600723,,,,,,
1465826360.53,-2.983814,-0.101998,-0.075749,-0.106699,1.623471,-0.047401,-0.156308,0.101821,0.982446,-0.361713,-0.077895,-0.065042,-68.378952,228.570450,-22.600723,,,,,,
1465826360.54,-2.965599,-0.100796,-0.075571,-0.119188,1.880386,-0.031993,-0.174198,0.100626,0.979556,-0.313717,-0.082498,-0.076373,-68.378952,228.570450,-22.600723,,,,,,
1465826360.55,-2.945489,-0.099412,-0.075344,-0.133855,2.035479,-0.055334,-0.193887,0.099249,0.975990,-0.277472,-0.070852,-0.069756,-67.863785,228.565796,-24.147564,,,,,,
1465826360.56,-2.925531,-0.098071,-0.075105,-0.125451,1.963239,-0.043163,-0.213354,0.097913,0.972056,-0.295587,-0.082243,-0.146998,-67.863785,228.565796,-24.147564,,,,,,
1465826360.57,-2.906811,-0.096746,-0.074922,-0.123453,1.843281,-0.051989,-0.231542,0.096595,0.968017,-0.278238,-0.072867,-0.107971,-67.863785,228.565796,-24.147564,,,,,,
1465826360.58,-2.888897,-0.095515,-0.074716,-0.113963,1.776371,-0.047302,-0.248875,0.095370,0.963829,-0.286510,-0.081439,-0.135139,-67.863785,228.565796,-24.147564,,,,,,
1465826360.59,-2.871089,-0.094247,-0.074571,-0.120328,1.791245,-0.049531,-0.266031,0.094107,0.959360,-0.275901,-0.071646,-0.096186,-66.269753,228.573471,-28.167408,,,,,,
1465826360.60,-2.852403,-0.092963,-0.074458,-0.122344,1.895279,-0.041670,-0.283944,0.092829,0.954337,-0.235984,-0.075648,-0.098593,-66.269753,228.573471,-28.167408,,,,,,
1465826360.62,-2.814977,-0.090319,-0.074326,-0.114015,1.741320,-0.042825,-0.319532,0.090196,0.943273,-0.185809,-0.076265,-0.149679,-65.452042,228.577911,-29.984928,,,,,,
1465826360.61,-2.833058,-0.091595,-0.074390,-0.129731,1.934593,-0.050439,-0.302390,0.091467,0.948786,-0.190530,-0.068305,-0.071054,-65.452042,228.577911,-29.984928,,,,,,
1465826360.63,-2.800238,-0.089267,-0.074278,-0.091049,1.379227,-0.038402,-0.333431,0.089148,0.938550,-0.194447,-0.072531,-0.142667,-65.452042,228.577911,-29.984928,,,,,,
1465826360.64,-2.788983,-0.088503,-0.074242,-0.064870,1.047900,-0.024589,-0.343996,0.088387,0.934802,-0.187788,-0.077187,-0.165362,-63.609970,228.611115,-33.491077,,,,,,
1465826360.65,-2.780191,-0.087883,-0.074245,-0.055557,0.832349,-0.023228,-0.352221,0.087770,0.931792,-0.178327,-0.070191,-0.115157,-63.609970,228.611115,-33.491077,,,,,,
1465826360.66,-2.773046,-0.087409,-0.074254,-0.041930,0.675172,-0.013713,-0.358885,0.087298,0.929291,-0.171023,-0.072451,-0.142608,-63.609970,228.611115,-33.491077,,,,,,
1465826360.67,-2.767585,-0.087031,-0.074268,-0.033632,0.501029,-0.011548,-0.363967,0.086922,0.927347,-0.170503,-0.066109,-0.123407,-63.044861,228.622772,-34.465958,,,,,,
1465826360.68,-2.764274,-0.086821,-0.074279,-0.015834,0.270591,-0.003698,-0.367042,0.086711,0.926154,-0.167260,-0.069515,-0.158011,-63.044861,228.622772,-34.465958,,,,,,
1465826360.69,-2.752882,-0.083577,-0.073375,-0.000196,0.003078,-0.000942,-0.377673,0.083479,0.922168,-0.163373,-0.067244,-0.140857,-63.044861,228.622772,-34.465958,,,,,,
1465826360.71,-2.749224,-0.081162,-0.072536,0.032190,-0.480018,0.011699,-0.381119,0.081073,0.920964,-0.168853,-0.065128,-0.134175,-62.639351,228.601685,-35.334087,,,,,,
1465826360.70,-2.754836,-0.083731,-0.073356,0.019690,-0.261339,0.007123,-0.375866,0.083633,0.922893,-0.169697,-0.070068,-0.163173,-62.639351,228.601685,-35.334087,,,,,,
1465826360.72,-2.755367,-0.081615,-0.072514,0.045801,-0.657358,0.017083,-0.375441,0.081524,0.923254,-0.175402,-0.070813,-0.142462,-62.639351,228.601685,-35.334087,,,,,,
1465826360.74,-2.772138,-0.082849,-0.072503,0.064602,-0.937701,0.025246,-0.359868,0.082754,0.929326,-0.197840,-0.070944,-0.138036,-62.899788,228.562897,-35.121834,,,,,,
1465826360.73,-2.763094,-0.082184,-0.072506,0.055189,-0.809207,0.020173,-0.368279,0.082092,0.926084,-0.187813,-0.068893,-0.130018,-62.899788,228.562897,-35.121834,,,,,,
1465826360.75,-2.782033,-0.083494,-0.072487,0.070835,-1.057691,0.028134,-0.350636,0.083397,0.932791,-0.209133,-0.068611,-0.131781,-62.899788,228.562897,-35.121834,,,,,,
1465826360.76,-2.793194,-0.084311,-0.072517,0.077121,-1.133094,0.032871,-0.340181,0.084211,0.936582,-0.210601,-0.068357,-0.129865,-62.899788,228.562897,-35.121834,,,,,,
1465826360.77,-2.804989,-0.085162,-0.072577,0.078107,-1.193620,0.034316,-0.329087,0.085059,0.940461,-0.207184,-0.066413,-0.113343,-62.899788,228.562897,-35.121834,,,,,,
1465826360.78,-2.817659,-0.086092,-0.072621,0.088628,-1.294497,0.034959,-0.317120,0.085985,0.944480,-0.219456,-0.068728,-0.128546,-64.448555,228.530426,-32.421341,,,,,,
1465826360.79,-2.831137,-0.086972,-0.072624,0.093787,-1.428280,0.034739,-0.304337,0.086862,0.948596,-0.249511,-0.069193,-0.135623,-64.448555,228.530426,-32.421341,,,,,,
1465826360.80,-2.846138,-0.088054,-0.072660,0.104322,-1.514298,0.037418,-0.290047,0.087941,0.952963,-0.290870,-0.075871,-0.146475,-65.137672,228.516495,-31.116142,,,,,,
1465826360.81,-2.860751,-0.089121,-0.072753,0.096976,-1.425109,0.038980,-0.276065,0.089003,0.957009,-0.301740,-0.074171,-0.120065,-65.137672,228.516495,-31.116142,,,,,,
1465826360.82,-2.873193,-0.090017,-0.072861,0.078132,-1.174505,0.034196,-0.264115,0.089896,0.960293,-0.304381,-0.074958,-0.095562,-65.137672,228.516495,-31.116142,,,,,,
1465826360.83,-2.883011,-0.090743,-0.072969,0.063556,-0.919650,0.027261,-0.254657,0.090618,0.962776,-0.299969,-0.074673,-0.094856,-65.865685,228.504288,-29.638222,,,,,,
1465826360.84,-2.890886,-0.091294,-0.073065,0.048864,-0.753993,0.023014,-0.247056,0.091167,0.964703,-0.301177,-0.075603,-0.111782,-65.865685,228.504288,-29.638222,,,,,,
1465826360.85,-2.897919,-0.091807,-0.073143,0.047883,-0.690278,0.020484,-0.240253,0.091679,0.966371,-0.300427,-0.075092,-0.120042,-66.366371,228.502747,-28.511753,,,,,,
1465826360.86,-2.904526,-0.092305,-0.073203,0.045812,-0.648858,0.017029,-0.233853,0.092174,0.967893,-0.305866,-0.073863,-0.125211,-66.366371,228.502747,-28.511753,,,,,,
1465826360.87,-2.910442,-0.092747,-0.073263,0.040595,-0.567091,0.014382,-0.228113,0.092614,0.969220,-0.309485,-0.075891,-0.120679,-66.686401,228.503723,-27.746904,,,,,,
1465826360.88,-2.915051,-0.093078,-0.073311,0.028007,-0.420550,0.011322,-0.223636,0.092944,0.970231,-0.310070,-0.074847,-0.107499,-66.686401,228.503723,-27.746904,,,,,,
1465826360.89,-2.917939,-0.093295,-0.073353,0.017587,-0.244277,0.007012,-0.220829,0.093159,0.970853,-0.305203,-0.076360,-0.101270,-66.686401,228.503723,-27.746904,,,,,,
1465826360.90,-2.919136,-0.093409,-0.073369,0.008214,-0.080749,0.003849,-0.219664,0.093274,0.971106,-0.303407,-0.076550,-0.101523,-67.106071,228.502274,-26.728432,,,,,,
1465826360.91,-2.919058,-0.093427,-0.073382,-0.000156,0.033936,0.000992,-0.219740,0.093291,0.971088,-0.301500,-0.074919,-0.107623,-67.106071,228.502274,-26.728432,,,,,,
1465826360.92,-2.918034,-0.093366,-0.073380,-0.006426,0.123140,-0.002767,-0.220736,0.093230,0.970868,-0.299253,-0.075942,-0.109768,-67.106071,228.502274,-26.728432,,,,,,
1465826360.93,-2.916195,-0.093259,-0.073366,-0.011644,0.205966,-0.004356,-0.222523,0.093124,0.970470,-0.296078,-0.074279,-0.111797,-67.106071,228.502274,-26.728432,,,,,,
1465826360.94,-2.913389,-0.093096,-0.073338,-0.015775,0.304721,-0.007108,-0.225248,0.092961,0.969856,-0.294023,-0.074666,-0.106621,-67.058105,228.503647,-26.836903,,,,,,
1465826360.95,-2.909537,-0.092857,-0.073310,-0.025221,0.411971,-0.008855,-0.228988,0.092724,0.969003,-0.289582,-0.074398,-0.109872,-67.058105,228.503647,-26.836903,,,,,,
1465826360.96,-2.904615,-0.092547,-0.073255,-0.030405,0.518163,-0.012720,-0.233762,0.092415,0.967892,-0.284671,-0.073876,-0.105908,-67.058105,228.503647,-26.836903,,,,,,
1465826360.98,-2.892020,-0.091707,-0.073153,-0.044033,0.682758,-0.016959,-0.245952,0.091578,0.964946,-0.268559,-0.071620,-0.104030,-66.911659,228.504105,-27.196024,,,,,,
1465826360.97,-2.898700,-0.092158,-0.073209,-0.037737,0.612670,-0.014384,-0.239491,0.092028,0.966527,-0.275616,-0.071642,-0.105398,-66.911659,228.504105,-27.196024,,,,,,
1465826360.99,-2.884969,-0.091229,-0.073106,-0.045067,0.709300,-0.016062,-0.252761,0.091102,0.963230,-0.258561,-0.072899,-0.110310,-66.911659,228.504105,-27.196024,,,,,,
1465826361.00,-2.868259,-0.088418,-0.072196,-0.047194,0.709369,-0.017131,-0.268888,0.088302,0.959115,-0.250033,-0.070495,-0.108972,-66.363335,228.507309,-28.482143,,,,,,
1465826361.01,-2.854933,-0.086400,-0.071606,-0.044007,0.704100,-0.017096,-0.281695,0.086292,0.955616,-0.242109,-0.070408,-0.114689,-66.363335,228.507309,-28.482143,,,,,,
1465826361.02,-2.839236,-0.083779,-0.070847,-0.046108,0.725397,-0.018299,-0.296727,0.083681,0.951289,-0.231182,-0.067828,-0.106883,-66.363335,228.507309,-28.482143,,,,,,
1465826361.03,-2.821833,-0.080906,-0.069990,-0.049258,0.759446,-0.019582,-0.313310,0.080818,0.946206,-0.226332,-0.063423,-0.106347,-66.121391,228.449402,-29.491722,,,,,,
1465826361.04,-2.804247,-0.078090,-0.069186,-0.051324,0.807298,-0.022016,-0.329975,0.078011,0.940761,-0.218578,-0.060570,-0.103786,-66.121391,228.449402,-29.491722,,,,,,
1465826361.05,-2.790609,-0.076271,-0.068771,-0.054452,0.863604,-0.020245,-0.342822,0.076197,0.936305,-0.211393,-0.059718,-0.100993,-66.121391,228.449402,-29.491722,,,,,,
1465826361.06,-2.775583,-0.074145,-0.068321,-0.057576,0.917801,-0.021654,-0.356909,0.074077,0.931197,-0.191370,-0.057063,-0.093932,-65.497726,228.331085,-31.715681,,,,,,
1465826361.07,-2.765046,-0.073165,-0.068267,-0.061807,0.942229,-0.020747,-0.366728,0.073100,0.927452,-0.165026,-0.057810,-0.088707,-65.497726,228.331085,-31.715681,,,,,,
1465826361.08,-2.755612,-0.072413,-0.068259,-0.057628,0.879580,-0.019286,-0.375481,0.072350,0.924002,-0.144569,-0.054894,-0.090674,-65.497726,228.331085,-31.715681,,,,,,
1465826361.09,-2.747653,-0.071793,-0.068261,-0.045066,0.713926,-0.015041,-0.382841,0.071731,0.921025,-0.128573,-0.055526,-0.105016,-65.034576,228.316055,-32.759731,,,,,,
1465826361.10,-2.740474,-0.070885,-0.068160,-0.031509,0.489885,-0.011494,-0.389468,0.070826,0.918313,-0.122160,-0.053217,-0.107522,-65.034576,228.316055,-32.759731,,,,,,
1465826361.11,-2.731388,-0.068807,-0.067764,-0.015831,0.264800,-0.004746,-0.397854,0.068753,0.914869,-0.114643,-0.051480,-0.107496,-65.034576,228.316055,-32.759731,,,,,,
1465826361.12,-2.723826,-0.066685,-0.067340,-0.002333,0.066248,-0.000373,-0.404818,0.066636,0.911966,-0.108030,-0.048448,-0.100656,-64.398369,228.306030,-34.060650,,,,,,
1465826361.13,-2.718405,-0.064752,-0.066943,0.009164,-0.100432,0.003875,-0.409809,0.064706,0.909874,-0.104077,-0.048151,-0.097938,-64.398369,228.306030,-34.060650,,,,,,
1465826361.14,-2.714953,-0.063154,-0.066573,0.018542,-0.259677,0.007011,-0.412989,0.063112,0.908547,-0.103872,-0.044222,-0.092903,-64.398369,228.306030,-34.060650,,,,,,
1465826361.15,-2.713305,-0.061741,-0.066217,0.027930,-0.411492,0.010099,-0.414523,0.061702,0.907945,-0.105512,-0.044658,-0.094560,-64.503204,228.267136,-34.122997,,,,,,
1465826361.16,-2.713837,-0.060768,-0.065895,0.039453,-0.556944,0.014215,-0.414064,0.060730,0.908220,-0.112730,-0.043198,-0.094056,-64.503204,228.267136,-34.122997,,,,,,
1465826361.17,-2.717306,-0.060388,-0.065675,0.046753,-0.674795,0.017089,-0.410921,0.060351,0.909671,-0.124510,-0.045794,-0.097614,-64.503204,228.267136,-34.122997,,,,,,
1465826361.18,-2.722428,-0.060305,-0.065504,0.050919,-0.749109,0.017559,-0.406258,0.060269,0.911769,-0.139366,-0.046338,-0.095134,-65.141693,228.192734,-33.399975,,,,,,
1465826361.19,-2.727893,-0.060331,-0.065337,0.051964,-0.760782,0.019761,-0.401268,0.060295,0.913974,-0.156944,-0.045906,-0.097507,-65.141693,228.192734,-33.399975,,,,,,
1465826361.20,-2.730198,-0.059713,-0.065008,0.047779,-0.704467,0.017273,-0.399175,0.059677,0.914930,-0.171778,-0.045639,-0.092161,-65.141693,228.192734,-33.399975,,,,,,
1465826361.21,-2.733880,-0.059597,-0.064835,0.040472,-0.587650,0.016532,-0.395807,0.059562,0.916400,-0.181738,-0.046073,-0.087131,-65.567856,228.168304,-32.726212,,,,,,
1465826361.22,-2.738599,-0.059942,-0.064824,0.030031,-0.430486,0.011279,-0.391470,0.059906,0.918239,-0.184565,-0.045166,-0.081172,-65.567856,228.168304,-32.726212,,,,,,
1465826361.23,-2.741779,-0.060188,-0.064822,0.020637,-0.281826,0.009272,-0.388542,0.060152,0.919465,-0.187737,-0.045702,-0.082551,-65.567856,228.168304,-32.726212,,,,,,
1465826361.24,-2.743669,-0.060325,-0.064830,0.009086,-0.159701,0.004237,-0.386801,0.060288,0.920191,-0.185068,-0.044312,-0.087244,-66.137642,228.131149,-31.826214,,,,,,
1465826361.25,-2.737337,-0.058811,-0.064405,0.006006,-0.067277,0.003652,-0.392655,0.058777,0.917806,-0.178009,-0.045257,-0.087056,-66.137642,228.131149,-31.826214,,,,,,
1465826361.26,-2.737340,-0.058837,-0.064406,0.001862,0.020860,0.000966,-0.392651,0.058803,0.917806,-0.174381,-0.044154,-0.087575,-66.137642,228.131149,-31.826214,,,,,,
1465826361.28,-2.734593,-0.058667,-0.064421,-0.013863,0.212001,-0.003442,-0.395175,0.058633,0.916733,-0.170895,-0.042962,-0.082870,-66.207344,228.105331,-31.866451,,,,,,
1465826361.27,-2.736457,-0.058790,-0.064397,-0.005470,0.112188,-0.002807,-0.393463,0.058757,0.917461,-0.171647,-0.044383,-0.084850,-66.207344,228.105331,-31.866451,,,,,,
1465826361.29,-2.725090,-0.056949,-0.064040,-0.019060,0.307620,-0.008307,-0.403909,0.056918,0.913027,-0.161994,-0.042972,-0.078569,-66.207344,228.105331,-31.866451,,,,,,
1465826361.30,-2.721370,-0.056728,-0.064037,-0.021081,0.392568,-0.009906,-0.407307,0.056698,0.911530,-0.157329,-0.043041,-0.076538,-66.060654,228.084198,-32.318775,,,,,,
1465826361.31,-2.716903,-0.056432,-0.064046,-0.029507,0.463716,-0.011425,-0.411382,0.056402,0.909716,-0.149470,-0.041860,-0.078768,-66.060654,228.084198,-32.318775,,,,,,
1465826361.32,-2.706142,-0.054731,-0.063746,-0.029450,0.510472,-0.011720,-0.421187,0.054704,0.905322,-0.138551,-0.039552,-0.072910,-66.060654,228.084198,-32.318775,,,,,,
1465826361.33,-2.695630,-0.053114,-0.063498,-0.034727,0.545552,-0.014077,-0.430719,0.053089,0.900923,-0.124121,-0.037174,-0.072234,-65.841164,228.086090,-32.750523,,,,,,
1465826361.34,-2.686093,-0.051650,-0.063328,-0.036846,0.556193,-0.013083,-0.439324,0.051627,0.896844,-0.104484,-0.035651,-0.065545,-65.841164,228.086090,-32.750523,,,,,,
1465826361.35,-2.677912,-0.050425,-0.063221,-0.033708,0.513735,-0.011750,-0.446675,0.050404,0.893275,-0.088451,-0.034718,-0.066524,-65.841164,228.086090,-32.750523,,,,,,
1465826361.36,-2.670824,-0.049333,-0.063137,-0.028502,0.422431,-0.010109,-0.453020,0.049313,0.890136,-0.076262,-0.031795,-0.065673,-65.296806,228.037598,-34.148216,,,,,,
1465826361.37,-2.664837,-0.048254,-0.063035,-0.018023,0.293956,-0.006100,-0.458365,0.048236,0.887454,-0.066766,-0.031680,-0.070178,-65.296806,228.037598,-34.148216,,,,,,
1465826361.39,-2.656982,-0.046360,-0.062792,0.001847,0.016835,0.000977,-0.465364,0.046344,0.883906,-0.058700,-0.028003,-0.067148,-65.109833,228.026291,-34.577961,,,,,,
1465826361.38,-2.660191,-0.047218,-0.062917,-0.009682,0.156991,-0.003106,-0.462506,0.047201,0.885359,-0.059390,-0.030294,-0.068312,-65.109833,228.026291,-34.577961,,,,,,
1465826361.40,-2.655172,-0.045596,-0.062658,0.010201,-0.109513,0.003906,-0.466979,0.045580,0.883093,-0.059419,-0.028383,-0.065252,-65.109833,228.026291,-34.577961,,,,,,
1465826361.41,-2.654631,-0.044973,-0.062522,0.015379,-0.223116,0.005686,-0.467470,0.044958,0.882865,-0.058302,-0.026617,-0.066291,-65.086792,228.009583,-34.731258,,,,,,
1465826361.42,-2.655020,-0.044451,-0.062369,0.023770,-0.321854,0.007377,-0.467137,0.044436,0.883068,-0.065013,-0.026461,-0.066524,-65.086792,228.009583,-34.731258,,,,,,
1465826361.43,-2.656026,-0.043914,-0.062193,0.026881,-0.387670,0.007792,-0.466260,0.043900,0.883558,-0.075229,-0.029175,-0.065763,-65.086792,228.009583,-34.731258,,,,,,
1465826361.44,-2.657330,-0.043460,-0.062029,0.031097,-0.417391,0.010110,-0.465116,0.043447,0.884183,-0.083925,-0.028554,-0.065717,-65.435417,227.965729,-34.362072,,,,,,
1465826361.45,-2.658466,-0.043040,-0.061845,0.028981,-0.405691,0.010033,-0.464120,0.043027,0.884726,-0.093543,-0.027783,-0.063102,-65.435417,227.965729,-34.362072,,,,,,
1465826361.46,-2.659096,-0.042569,-0.061668,0.025851,-0.355762,0.008651,-0.463572,0.042556,0.885037,-0.098761,-0.028701,-0.061337,-65.435417,227.965729,-34.362072,,,,,,
1465826361.47,-2.658881,-0.042080,-0.061492,0.020629,-0.275040,0.007074,-0.463772,0.042067,0.884955,-0.106602,-0.027831,-0.058905,-65.435417,227.965729,-34.362072,,,,,,
1465826361.48,-2.657601,-0.041497,-0.061349,0.012245,-0.168832,0.005333,-0.464915,0.041485,0.884383,-0.109487,-0.028286,-0.058943,-65.869812,227.913223,-33.876965,,,,,,
1465826361.49,-2.655408,-0.040874,-0.061212,0.007056,-0.063685,0.002538,-0.466866,0.040862,0.883384,-0.107597,-0.027740,-0.053962,-65.869812,227.913223,-33.876965,,,,,,
1465826361.50,-2.652266,-0.040236,-0.061098,-0.003468,0.034028,0.000849,-0.469651,0.040225,0.881935,-0.105788,-0.025378,-0.053932,-65.869812,227.913223,-33.876965,,,,,,
1465826361.51,-2.648338,-0.039553,-0.060985,-0.007611,0.122187,-0.002903,-0.473125,0.039543,0.880107,-0.101323,-0.025154,-0.052898,-65.937042,227.891617,-33.891514,,,,,,
1465826361.52,-2.643801,-0.038835,-0.060891,-0.013901,0.199722,-0.004461,-0.477126,0.038825,0.877977,-0.094743,-0.024406,-0.051454,-65.937042,227.891617,-33.891514,,,,,,
1465826361.53,-2.638779,-0.038036,-0.060838,-0.014882,0.270873,-0.002780,-0.481545,0.038027,0.875596,-0.085899,-0.026537,-0.048234,-65.883919,227.873550,-34.115604,,,,,,
1465826361.54,-2.633456,-0.036957,-0.060779,-0.016904,0.347355,-0.009650,-0.486218,0.036949,0.873056,-0.071933,-0.036781,-0.036340,-65.883919,227.873550,-34.115604,,,,,,
1465826361.55,-2.627586,-0.036191,-0.060775,-0.016927,0.353699,0.005211,-0.491348,0.036183,0.870211,-0.076065,-0.026097,-0.056018,-65.883919,227.873550,-34.115604,,,,,,
1465826361.56,-2.622818,-0.035795,-0.060776,-0.027512,0.360159,-0.022516,-0.495499,0.035788,0.867871,-0.036652,-0.005347,-0.026074,-65.580582,227.852783,-34.831345,,,,,,
1465826361.57,-2.617931,-0.034873,-0.060711,0.006349,0.269770,0.025984,-0.499751,0.034866,0.865467,-0.055257,-0.041488,-0.071186,-65.580582,227.852783,-34.831345,,,,,,
1465826361.58,-2.615814,-0.034782,-0.060822,-0.012846,0.177520,-0.016035,-0.501583,0.034775,0.864410,-0.080677,-0.028611,0.094055,-65.580582,227.852783,-34.831345,,,,,,
1465826361.59,-2.615011,-0.034802,-0.060829,-0.001362,0.044703,0.015678,-0.502276,0.034795,0.864007,0.001208,0.021418,-0.168679,-43.461323,216.153152,-23.008911,,,,,,
1465826361.60,-2.614960,-0.034665,-0.060779,-0.003456,0.005535,-0.026656,-0.502323,0.034658,0.863985,-0.020931,0.023661,-0.045656,-43.461323,216.153152,-23.008911,,,,,,
1465826361.61,-2.615243,-0.034799,-0.060869,0.000659,-0.041304,0.016220,-0.502076,0.034792,0.864123,-0.050842,-0.067949,-0.027072,-43.461323,216.153152,-23.008911,,,,,,
1465826361.63,-2.615541,-0.034195,-0.060751,0.014413,-0.135758,0.000858,-0.501829,0.034188,0.864291,-0.043703,-0.033639,-0.041934,-43.377682,216.160782,-23.094940,,,,,,
1465826361.62,-2.615818,-0.034837,-0.060783,0.015557,-0.061462,0.007845,-0.501579,0.034830,0.864410,-0.021019,-0.010966,-0.042984,-43.377682,216.160782,-23.094940,,,,,,
1465826361.64,-2.616983,-0.034312,-0.060719,0.008005,-0.146381,0.004112,-0.500580,0.034305,0.865010,-0.035476,-0.004627,-0.029408,-43.377682,216.160782,-23.094940,,,,,,
1465826361.65,-2.618722,-0.034316,-0.060673,0.003711,-0.181407,0.000069,-0.499076,0.034309,0.865879,-0.029977,0.040565,-0.100178,-43.377682,216.160782,-23.094940,,,,,,
1465826361.66,-2.620748,-0.034323,-0.060653,0.000501,-0.205806,-0.007232,-0.497320,0.034316,0.866888,-0.062143,-0.030059,-0.042059,-43.546650,216.150253,-22.874302,,,,,,
1465826361.67,-2.621038,-0.033533,-0.060561,0.015366,-0.210096,0.009839,-0.497082,0.033527,0.867056,-0.071354,-0.036060,-0.026464,-43.546650,216.150253,-22.874302,,,,,,
1465826361.68,-2.622745,-0.033677,-0.060522,0.013323,-0.151679,0.003084,-0.495599,0.033670,0.867899,-0.070396,-0.050577,-0.032511,-43.546650,216.150253,-22.874302,,,,,,
1465826361.69,-2.623694,-0.033794,-0.060511,0.008080,-0.077367,0.009000,-0.494773,0.033788,0.868365,-0.067849,-0.007359,-0.038852,-43.704765,216.143173,-22.638470,,,,,,
1465826361.70,-2.623782,-0.033696,-0.060518,-0.013066,0.010826,-0.010735,-0.494698,0.033690,0.868412,-0.063225,0.003160,-0.051197,-43.704765,216.143173,-22.638470,,,,,,
1465826361.72,-2.619721,-0.033692,-0.060451,-0.018235,0.136132,-0.010462,-0.498221,0.033685,0.866396,-0.072077,-0.028299,-0.038072,-43.746265,216.141266,-22.576515,,,,,,
1465826361.71,-2.620933,-0.033894,-0.060436,-0.014054,0.077725,-0.007962,-0.497166,0.033887,0.866993,-0.054759,0.011660,-0.069142,-43.746265,216.141266,-22.576515,,,,,,
1465826361.73,-2.618174,-0.033597,-0.060469,-0.006514,0.158397,-0.001010,-0.499562,0.033590,0.865627,-0.079036,-0.053198,-0.015194,-43.746265,216.141266,-22.576515,,,,,,
1465826361.74,-2.616602,-0.033538,-0.060498,-0.007574,0.158404,-0.003140,-0.500923,0.033532,0.864842,-0.074470,-0.050164,-0.027607,-43.650139,216.138809,-22.785131,,,,,,
1465826361.75,-2.613317,-0.033237,-0.060468,-0.010797,0.141419,0.000156,-0.503767,0.033231,0.863200,-0.050738,-0.008985,-0.045665,-43.650139,216.138809,-22.785131,,,,,,
1465826361.76,-2.611997,-0.033045,-0.060459,-0.015045,0.131897,-0.011497,-0.504908,0.033039,0.862540,-0.033544,0.016979,-0.069556,-43.650139,216.138809,-22.785131,,,,,,
1465826361.77,-2.610749,-0.032975,-0.060491,-0.005507,0.121231,0.004546,-0.505986,0.032969,0.861911,-0.048213,-0.038981,-0.018253,-43.650139,216.138809,-22.785131,,,,,,
1465826361.79,-2.607563,-0.032214,-0.060505,0.005072,0.071323,0.006997,-0.508741,0.032208,0.860317,-0.040697,-0.032834,-0.018688,-43.543739,216.138519,-22.990501,,,,,,
1465826361.78,-2.609595,-0.033008,-0.060519,0.005127,0.110607,0.004623,-0.506979,0.033002,0.861326,-0.049219,-0.057050,-0.018370,-43.543739,216.138519,-22.990501,,,,,,
1465826361.80,-2.607174,-0.032234,-0.060503,0.001840,0.027814,-0.001249,-0.509076,0.032228,0.860118,-0.025210,0.005049,-0.062007,-43.543739,216.138519,-22.990501,,,,,,
1465826361.81,-2.607262,-0.032255,-0.060503,0.000708,-0.022096,0.001192,-0.509000,0.032249,0.860162,-0.033724,-0.004463,-0.054620,-43.551399,216.137466,-22.985882,,,,,,
1465826361.82,-2.606340,-0.031539,-0.060450,0.001729,-0.059245,-0.000705,-0.509805,0.031534,0.859712,-0.040961,-0.026743,-0.033983,-43.551399,216.137466,-22.985882,,,,,,
1465826361.83,-2.607204,-0.031642,-0.060444,0.012316,-0.095372,0.006984,-0.509060,0.031637,0.860149,-0.048053,-0.039419,-0.027080,-43.551399,216.137466,-22.985882,,,,,,
1465826361.84,-2.608194,-0.031795,-0.060429,0.014445,-0.097494,0.005935,-0.508206,0.031790,0.860649,-0.044758,-0.025747,-0.029457,-43.617409,216.133072,-22.901852,,,,,,
1465826361.85,-2.609094,-0.031971,-0.060400,0.016589,-0.085815,0.005863,-0.507428,0.031965,0.861101,-0.045672,-0.013716,-0.042681,-43.617409,216.133072,-22.901852,,,,,,
1465826361.86,-2.608094,-0.031960,-0.060334,0.010236,-0.062433,0.002516,-0.508289,0.031954,0.860593,-0.043805,-0.005755,-0.044813,-43.632832,216.131729,-22.885235,,,,,,
1465826361.87,-2.608607,-0.032024,-0.060325,0.004928,-0.048630,0.003489,-0.507847,0.032018,0.860852,-0.055691,-0.013799,-0.037793,-43.632832,216.131729,-22.885235,,,,,,
1465826361.88,-2.609061,-0.032079,-0.060320,0.003877,-0.041191,0.001312,-0.507455,0.032073,0.861081,-0.055717,-0.019439,-0.035032,-43.632832,216.131729,-22.885235,,,,,,
1465826361.89,-2.609330,-0.032157,-0.060313,0.007092,-0.021024,0.003318,-0.507222,0.032151,0.861215,-0.054271,-0.019257,-0.039377,-43.629955,216.128128,-22.924610,,,,,,
1465826361.90,-2.607519,-0.031681,-0.060236,0.005017,0.018284,-0.000125,-0.508789,0.031676,0.860308,-0.051438,-0.018904,-0.034915,-43.629955,216.128128,-22.924610,,,,,,
1465826361.91,-2.607018,-0.031685,-0.060249,-0.003451,0.061816,0.001722,-0.509220,0.031680,0.860053,-0.050457,-0.011828,-0.034934,-43.629955,216.128128,-22.924610,,,,,,
1465826361.92,-2.604590,-0.030853,-0.060203,-0.000223,0.087314,-0.000565,-0.511319,0.030848,0.858837,-0.049136,-0.029307,-0.030117,-43.629955,216.128128,-22.924610,,,,,,
1465826361.93,-2.602153,-0.030188,-0.060198,-0.001289,0.095804,0.004701,-0.513421,0.030183,0.857606,-0.044501,-0.024553,-0.030305,-43.644936,216.123566,-22.939178,,,,,,
1465826361.94,-2.599941,-0.029713,-0.060184,0.002983,0.105369,0.003580,-0.515325,0.029709,0.856480,-0.035960,-0.019074,-0.025563,-43.644936,216.123566,-22.939178,,,,,,
1465826361.95,-2.597660,-0.029928,-0.060164,0.000863,0.111751,0.002473,-0.517273,0.029924,0.855297,-0.023696,0.005583,-0.044201,-43.644936,216.123566,-22.939178,,,,,,
1465826361.96,-2.595422,-0.030227,-0.060149,-0.006570,0.120268,-0.001845,-0.519181,0.030223,0.854130,-0.020721,0.011693,-0.040592,-43.640507,216.114700,-23.030983,,,,,,
1465826361.97,-2.593259,-0.030388,-0.060147,-0.012975,0.103295,-0.003874,-0.521025,0.030383,0.853000,-0.017350,0.009106,-0.048343,-43.640507,216.114700,-23.030983,,,,,,
1465826361.98,-2.591530,-0.029978,-0.060125,-0.010885,0.069328,-0.005788,-0.522506,0.029974,0.852109,-0.023042,-0.010870,-0.030759,-43.640507,216.114700,-23.030983,,,,,,
1465826361.99,-2.590302,-0.029322,-0.060094,-0.006691,0.018365,-0.005466,-0.523562,0.029318,0.851483,-0.026044,-0.022238,-0.027096,-43.490112,216.115128,-23.309565,,,,,,
1465826362.00,-2.589610,-0.028596,-0.060062,-0.000364,-0.024113,-0.002001,-0.524162,0.028592,0.851138,-0.026329,-0.028165,-0.022235,-43.490112,216.115128,-23.309565,,,,,,
1465826362.01,-2.589231,-0.027968,-0.060020,0.004908,-0.060217,0.000358,-0.524494,0.027964,0.850955,-0.026623,-0.026667,-0.027484,-43.490112,216.115128,-23.309565,,,,,,
1465826362.02,-2.589139,-0.027584,-0.059982,0.007004,-0.084637,0.001577,-0.524578,0.027580,0.850916,-0.029179,-0.018608,-0.024210,-43.693680,216.101547,-23.053511,,,,,,
1465826362.03,-2.589094,-0.027271,-0.059948,0.006989,-0.092069,0.003751,-0.524621,0.027267,0.850899,-0.030250,-0.016861,-0.027566,-43.693680,216.101547,-23.053511,,,,,,
1465826362.04,-2.589036,-0.026958,-0.059912,0.008059,-0.086755,0.003718,-0.524674,0.026955,0.850876,-0.033798,-0.017128,-0.022324,-43.782890,216.095627,-22.939316,,,,,,
1465826362.05,-2.588779,-0.026752,-0.059862,0.007014,-0.071879,0.002558,-0.524896,0.026749,0.850746,-0.035056,-0.012833,-0.027412,-43.782890,216.095627,-22.939316,,,,,,
1465826362.06,-2.588300,-0.026641,-0.059826,0.003859,-0.042138,0.001304,-0.525305,0.026638,0.850497,-0.032480,-0.007382,-0.028353,-43.782890,216.095627,-22.939316,,,,,,
1465826362.08,-2.586409,-0.026474,-0.059768,-0.003502,0.029025,-0.001280,-0.526915,0.026471,0.849506,-0.030290,-0.005169,-0.027957,-43.850502,216.089554,-22.867455,,,,,,
1465826362.07,-2.587510,-0.026601,-0.059796,0.000706,-0.010273,0.000036,-0.525977,0.026598,0.850083,-0.031091,-0.003023,-0.031052,-43.850502,216.089554,-22.867455,,,,,,
1465826362.09,-2.584949,-0.026085,-0.059752,-0.005589,0.061950,-0.002554,-0.528160,0.026082,0.848744,-0.032936,-0.014730,-0.023869,-43.850502,216.089554,-22.867455,,,,,,
1465826362.10,-2.583319,-0.025601,-0.059745,-0.006628,0.085313,-0.001638,-0.529549,0.025598,0.847893,-0.031333,-0.019006,-0.019951,-43.858803,216.081741,-22.925276,,,,,,
1465826362.11,-2.581687,-0.025198,-0.059753,-0.005561,0.089562,-0.000600,-0.530938,0.025195,0.847036,-0.027763,-0.016391,-0.017736,-43.858803,216.081741,-22.925276,,,,,,
1465826362.12,-2.580066,-0.024978,-0.059758,-0.005559,0.091690,-0.000614,-0.532313,0.024976,0.846179,-0.020681,-0.008588,-0.026904,-43.858803,216.081741,-22.925276,,,,,,
1465826362.14,-2.577335,-0.024503,-0.059758,-0.005655,0.072558,-0.001625,-0.534629,0.024501,0.844732,-0.014779,-0.009379,-0.023901,-43.885616,216.078369,-22.905680,,,,,,
1465826362.13,-2.578630,-0.024744,-0.059756,-0.005644,0.081049,-0.001678,-0.533530,0.024742,0.845419,-0.016946,-0.008629,-0.023931,-43.885616,216.078369,-22.905680,,,,,,
1465826362.15,-2.576257,-0.024285,-0.059752,-0.003550,0.053447,-0.001504,-0.535541,0.024282,0.844160,-0.012905,-0.008703,-0.022260,-43.885616,216.078369,-22.905680,,,,,,
1465826362.16,-2.575415,-0.024082,-0.059747,-0.001442,0.038580,-0.000344,-0.536255,0.024080,0.843713,-0.008042,-0.008638,-0.023095,-43.866455,216.074677,-22.977177,,,,,,
1465826362.17,-2.574693,-0.023979,-0.059746,-0.002524,0.024780,-0.000259,-0.536865,0.023977,0.843328,-0.008805,-0.003835,-0.023778,-43.866455,216.074677,-22.977177,,,,,,
1465826362.18,-2.574089,-0.023921,-0.059746,-0.005730,0.012049,-0.002312,-0.537375,0.023918,0.843004,-0.008707,-0.000939,-0.025957,-43.866455,216.074677,-22.977177,,,,,,
1465826362.19,-2.573731,-0.023868,-0.059719,-0.001496,-0.011305,-0.004290,-0.537677,0.023866,0.842813,-0.008282,-0.001298,-0.024179,-43.866852,216.073166,-22.990665,,,,,,
1465826362.20,-2.573575,-0.023669,-0.059678,-0.000458,-0.030418,-0.003105,-0.537811,0.023666,0.842733,-0.011444,-0.008972,-0.020238,-43.866852,216.073166,-22.990665,,,,,,
1465826362.21,-2.573494,-0.023390,-0.059655,-0.001543,-0.044221,-0.001956,-0.537883,0.023387,0.842695,-0.016835,-0.012813,-0.018583,-43.866852,216.073166,-22.990665,,,,,,
1465826362.22,-2.573531,-0.023030,-0.059636,0.002693,-0.058029,0.000263,-0.537857,0.023028,0.842722,-0.021409,-0.018481,-0.014048,-43.924561,216.066147,-22.946373,,,,,,
1465826362.23,-2.573631,-0.022741,-0.059610,0.005879,-0.062278,0.001357,-0.537776,0.022739,0.842781,-0.017812,-0.016743,-0.018761,-43.924561,216.066147,-22.946373,,,,,,
1465826362.24,-2.573612,-0.022533,-0.059596,0.001640,-0.045284,0.001245,-0.537795,0.022531,0.842775,-0.019411,-0.012353,-0.018571,-43.924561,216.066147,-22.946373,,,,,,
1465826362.25,-2.573352,-0.022318,-0.059581,0.001660,-0.027232,0.002196,-0.538016,0.022316,0.842639,-0.022089,-0.012123,-0.020008,-43.924561,216.066147,-22.946373,,,,,,
1465826362.26,-2.572909,-0.022104,-0.059576,0.001696,0.000380,0.000958,-0.538392,0.022102,0.842405,-0.019713,-0.011787,-0.016752,-44.059372,216.057785,-22.765947,,,,,,
1465826362.27,-2.572150,-0.021929,-0.059557,0.001729,0.025870,-0.000267,-0.539033,0.021927,0.841999,-0.021544,-0.009811,-0.018970,-44.059372,216.057785,-22.765947,,,,,,
1465826362.29,-2.570108,-0.021587,-0.059540,-0.001420,0.060920,-0.001556,-0.540756,0.021585,0.840903,-0.017838,-0.007074,-0.020712,-44.081631,216.054810,-22.750824,,,,,,
1465826362.28,-2.571222,-0.021738,-0.059541,-0.001437,0.048173,-0.000411,-0.539817,0.021736,0.841502,-0.019937,-0.009392,-0.016505,-44.081631,216.054810,-22.750824,,,,,,
1465826362.30,-2.569057,-0.021441,-0.059547,-0.002483,0.067285,0.001596,-0.541641,0.021439,0.840337,-0.014115,-0.006928,-0.014790,-44.081631,216.054810,-22.750824,,,,,,
1465826362.31,-2.567986,-0.021643,-0.059568,-0.009922,0.071550,-0.002695,-0.542538,0.021641,0.839752,-0.001178,0.013286,-0.031967,-44.078117,216.052399,-22.780638,,,,,,
1465826362.32,-2.566908,-0.021422,-0.059546,-0.007776,0.080054,-0.005940,-0.543445,0.021420,0.839171,-0.007061,-0.006635,-0.017531,-44.078117,216.052399,-22.780638,,,,,,
1465826362.33,-2.565940,-0.021019,-0.059563,-0.004598,0.074733,-0.001646,-0.544262,0.021017,0.838652,-0.010547,-0.018133,-0.001890,-44.078117,216.052399,-22.780638,,,,,,
1465826362.34,-2.565022,-0.020850,-0.059566,-0.001419,0.063053,-0.001570,-0.545033,0.020849,0.838155,-0.001704,-0.007375,-0.018484,-44.045425,216.050842,-22.858492,,,,,,
1465826362.35,-2.564371,-0.020763,-0.059576,-0.004651,0.034385,-0.000330,-0.545581,0.020761,0.837801,-0.003919,-0.002740,-0.014971,-44.045425,216.050842,-22.858492,,,,,,
1465826362.36,-2.564013,-0.020785,-0.059586,-0.003621,0.006779,-0.000155,-0.545880,0.020783,0.837605,0.001202,0.002059,-0.024220,-44.045425,216.050842,-22.858492,,,,,,
1465826362.37,-2.563859,-0.020875,-0.059584,-0.004709,-0.017632,-0.003196,-0.546008,0.020874,0.837520,-0.000653,0.007019,-0.025432,-44.037384,216.050247,-22.879745,,,,,,
1465826362.38,-2.563883,-0.020663,-0.059569,-0.000464,-0.025071,-0.001017,-0.545990,0.020661,0.837537,-0.005539,-0.009675,-0.011548,-44.037384,216.050247,-22.879745,,,,,,
1465826362.39,-2.563913,-0.020484,-0.059552,-0.003653,-0.024001,-0.003156,-0.545967,0.020482,0.837556,-0.006721,-0.007528,-0.011369,-44.037384,216.050247,-22.879745,,,,,,
1465826362.41,-2.563855,-0.020411,-0.059530,-0.007909,-0.025051,-0.005283,-0.546016,0.020410,0.837526,-0.003315,0.003089,-0.027391,-44.064194,216.047684,-22.852264,,,,,,
1465826362.40,-2.563924,-0.020435,-0.059541,-0.003655,-0.025061,-0.003150,-0.545958,0.020433,0.837563,-0.003556,-0.000337,-0.017403,-44.064194,216.047684,-22.852264,,,,,,
1465826362.42,-2.563832,-0.020215,-0.059512,-0.005778,-0.022927,-0.005294,-0.546038,0.020213,0.837516,-0.009031,-0.006465,-0.012153,-44.064194,216.047684,-22.852264,,,,,,
1465826362.43,-2.563740,-0.019847,-0.059495,-0.004709,-0.017619,-0.004263,-0.546119,0.019846,0.837472,-0.011620,-0.016016,-0.010415,-44.075413,216.046249,-22.844271,,,,,,
1465826362.44,-2.563551,-0.019486,-0.059472,-0.002568,-0.005942,-0.003270,-0.546281,0.019485,0.837375,-0.013595,-0.017242,-0.007007,-44.075413,216.046249,-22.844271,,,,,,
1465826362.45,-2.563218,-0.019084,-0.059458,-0.000434,0.002548,-0.001194,-0.546564,0.019082,0.837200,-0.017920,-0.021295,-0.005413,-44.075413,216.046249,-22.844271,,,,,,
1465826362.47,-2.562295,-0.018608,-0.059444,0.003833,0.017403,0.002974,-0.547342,0.018607,0.836702,-0.012030,-0.012167,-0.015795,-44.230755,216.035950,-22.640598,,,,,,
1465826362.46,-2.562804,-0.018781,-0.059447,0.002765,0.011037,0.000884,-0.546914,0.018779,0.836978,-0.015998,-0.017788,-0.008411,-44.230755,216.035950,-22.640598,,,,,,
1465826362.48,-2.561752,-0.018427,-0.059456,-0.000412,0.029087,0.002896,-0.547797,0.018426,0.836408,-0.011956,-0.011056,-0.009916,-44.230755,216.035950,-22.640598,,,,,,
1465826362.49,-2.561091,-0.018337,-0.059450,0.003861,0.038646,0.001775,-0.548351,0.018336,0.836047,-0.010075,-0.006998,-0.014239,-44.268536,216.032745,-22.596981,,,,,,
1465826362.50,-2.560376,-0.018246,-0.059447,0.001748,0.052452,0.001686,-0.548949,0.018245,0.835656,-0.008378,-0.006694,-0.008813,-44.268536,216.032745,-22.596981,,,,,,
1465826362.51,-2.559602,-0.018231,-0.059444,0.002819,0.057762,0.001654,-0.549596,0.018230,0.835231,-0.002863,-0.002223,-0.014324,-44.268536,216.032745,-22.596981,,,,,,
1465826362.53,-2.558131,-0.018128,-0.059446,0.001749,0.053517,0.001679,-0.550826,0.018127,0.834423,-0.001069,-0.006027,-0.011059,-44.252453,216.030685,-22.648172,,,,,,
1465826362.52,-2.558829,-0.018215,-0.059441,0.001760,0.062010,0.001626,-0.550243,0.018214,0.834806,-0.000417,-0.002711,-0.015241,-44.252453,216.030685,-22.648172,,,,,,
1465826362.54,-2.557634,-0.018009,-0.059441,0.004921,0.036527,0.001788,-0.551242,0.018008,0.834151,-0.000135,-0.008868,-0.007003,-44.252453,216.030685,-22.648172,,,,,,
1465826362.55,-2.557193,-0.017874,-0.059431,0.005962,0.021656,0.004011,-0.551611,0.017873,0.833910,-0.003885,-0.011830,-0.011538,-44.230759,216.030273,-22.694508,,,,,,
1465826362.56,-2.556983,-0.017872,-0.059427,0.008066,0.003603,0.005190,-0.551786,0.017871,0.833794,-0.000933,-0.005710,-0.011727,-44.230759,216.030273,-22.694508,,,,,,
1465826362.57,-2.556920,-0.017902,-0.059428,0.006977,-0.014449,0.006367,-0.551838,0.017901,0.833759,-0.001278,-0.004168,-0.014866,-44.230759,216.030273,-22.694508,,,,,,
1465826362.58,-2.557017,-0.017908,-0.059418,0.008029,-0.027185,0.004318,-0.551757,0.017907,0.833813,-0.003098,-0.005380,-0.010769,-44.233547,216.028137,-22.709377,,,,,,
1465826362.59,-2.557173,-0.017929,-0.059405,0.011214,-0.031438,0.006477,-0.551626,0.017928,0.833899,-0.002390,-0.005553,-0.012442,-44.233547,216.028137,-22.709377,,,,,,
1465826362.60,-2.557298,-0.017880,-0.059404,0.011220,-0.026129,0.006443,-0.551523,0.017879,0.833968,-0.005575,-0.009868,-0.007140,-44.233547,216.028137,-22.709377,,,,,,
1465826362.61,-2.557305,-0.017844,-0.059379,0.010172,-0.013382,0.005297,-0.551517,0.017843,0.833973,-0.005673,-0.008978,-0.008991,-44.240318,216.027130,-22.705721,,,,,,
1465826362.62,-2.557196,-0.017834,-0.059359,0.012306,-0.008076,0.006330,-0.551608,0.017833,0.833913,-0.006741,-0.008144,-0.009892,-44.240318,216.027130,-22.705721,,,,,,
1465826362.63,-2.557043,-0.017809,-0.059350,0.012310,-0.002769,0.007361,-0.551736,0.017808,0.833828,-0.006659,-0.009751,-0.008557,-44.240318,216.027130,-22.705721,,,,,,
1465826362.64,-2.556826,-0.017776,-0.059335,0.014444,0.003599,0.008387,-0.551917,0.017775,0.833709,-0.008706,-0.011107,-0.007568,-44.240318,216.027130,-22.705721,,,,,,
1465826362.65,-2.556525,-0.017710,-0.059321,0.014457,0.014219,0.008319,-0.552170,0.017709,0.833544,-0.009796,-0.013406,-0.004793,-44.261574,216.023758,-22.696510,,,,,,
1465826362.66,-2.556138,-0.017631,-0.059313,0.016583,0.016337,0.010436,-0.552493,0.017630,0.833331,-0.011579,-0.015876,-0.005359,-44.261574,216.023758,-22.696510,,,,,,
1465826362.67,-2.555741,-0.017571,-0.059300,0.019781,0.023763,0.012521,-0.552824,0.017570,0.833113,-0.011583,-0.016868,-0.000349,-44.266708,216.021805,-22.705040,,,,,,
1465826362.69,-2.554937,-0.017629,-0.059292,0.025102,0.028001,0.015691,-0.553493,0.017628,0.832667,-0.004460,-0.010929,-0.004024,-44.266708,216.021805,-22.705040,,,,,,
1465826362.68,-2.555310,-0.017516,-0.059298,0.021911,0.028004,0.014624,-0.553184,0.017515,0.832875,-0.009377,-0.018476,-0.003804,-44.266708,216.021805,-22.705040,,,,,,
1465826362.70,-2.554468,-0.017871,-0.059290,0.022980,0.035432,0.016707,-0.553881,0.017870,0.832404,-0.001050,-0.002734,-0.011206,-44.266708,216.021805,-22.705040,,,,,,
1465826362.71,-2.553959,-0.018224,-0.059303,0.020863,0.041810,0.014536,-0.554301,0.018223,0.832117,0.001231,0.004818,-0.010889,-44.245556,216.019928,-22.764069,,,,,,
1465826362.72,-2.553475,-0.018437,-0.059321,0.019796,0.043929,0.016651,-0.554702,0.018436,0.831845,0.001968,-0.002597,-0.008526,-44.245556,216.019928,-22.764069,,,,,,
1465826362.73,-2.552976,-0.018814,-0.059326,0.015576,0.064122,0.010134,-0.555112,0.018813,0.831563,0.014173,0.008989,-0.012120,-44.150127,216.023712,-22.913082,,,,,,
1465826362.75,-2.551760,-0.019306,-0.059341,0.016619,0.049251,0.012357,-0.556119,0.019305,0.830879,0.004895,0.002424,-0.004844,-44.150127,216.023712,-22.913082,,,,,,
1465826362.74,-2.552296,-0.019055,-0.059327,0.016638,0.065178,0.012257,-0.555676,0.019054,0.831181,0.007488,0.001438,-0.011296,-44.150127,216.023712,-22.913082,,,,,,
1465826362.76,-2.551457,-0.019439,-0.059437,0.016551,0.019480,0.027446,-0.556368,0.019438,0.830709,0.010012,-0.008482,-0.020741,-43.962803,216.031296,-23.199804,,,,,,
1465826362.78,-2.550937,-0.019578,-0.059574,-0.010044,0.028005,0.020979,-0.556799,0.019576,0.830416,-0.039652,-0.036804,0.076993,-43.962803,216.031296,-23.199804,,,,,,
1465826362.77,-2.551286,-0.019406,-0.059328,0.004957,0.020708,-0.031118,-0.556511,0.019405,0.830614,0.063316,0.107060,-0.084398,-43.962803,216.031296,-23.199804,,,,,,
1465826362.79,-2.550573,-0.019404,-0.059417,0.001735,0.041870,-0.003579,-0.557103,0.019403,0.830216,0.047628,0.057044,-0.078233,-43.942062,216.031174,-23.240089,,,,,,
1465826362.81,-2.550904,-0.019064,-0.059352,0.028200,-0.069647,0.002467,-0.556832,0.019063,0.830406,0.007653,-0.032735,-0.020867,-43.942062,216.031174,-23.240089,,,,,,
1465826362.80,-2.550468,-0.019485,-0.059431,0.004862,0.000437,0.004135,-0.557190,0.019484,0.830157,-0.022858,-0.069624,0.031324,-43.942062,216.031174,-23.240089,,,,,,
1465826362.82,-2.551989,-0.019446,-0.059360,0.030228,-0.119605,0.021943,-0.555927,0.019445,0.831004,-0.037930,-0.052693,0.048009,-43.942062,216.031174,-23.240089,,,,,,
1465826362.83,-2.553301,-0.019833,-0.059328,0.034468,-0.133414,0.023098,-0.554831,0.019831,0.831726,-0.003289,-0.015193,-0.017044,-43.969959,216.030609,-23.192635,,,,,,
1465826362.84,-2.554417,-0.020197,-0.059310,0.030257,-0.103667,0.017585,-0.553899,0.020196,0.832339,-0.005443,0.002403,-0.014514,-43.969959,216.030609,-23.192635,,,,,,
1465826362.85,-2.555078,-0.020585,-0.059317,0.032439,-0.051657,0.023648,-0.553345,0.020584,0.832698,-0.018021,-0.016250,0.006062,-43.937675,216.033340,-23.228249,,,,,,
1465826362.86,-2.555212,-0.020937,-0.059307,0.031447,-0.001737,0.018012,-0.553229,0.020935,0.832766,-0.002801,0.001022,-0.019808,-43.937675,216.033340,-23.228249,,,,,,
1465826362.87,-2.554805,-0.021260,-0.059350,0.021929,0.051355,0.018733,-0.553564,0.021259,0.832536,-0.015772,-0.015750,0.011565,-43.937675,216.033340,-23.228249,,,,,,
1465826362.88,-2.553968,-0.021542,-0.059366,0.024113,0.094888,0.018463,-0.554257,0.021540,0.832067,-0.000079,0.008810,-0.026372,-43.797722,216.041458,-23.416306,,,,,,
1465826362.89,-2.552961,-0.021814,-0.059407,0.020927,0.101260,0.018419,-0.555091,0.021812,0.831504,-0.011986,-0.019035,0.002633,-43.797722,216.041458,-23.416306,,,,,,
1465826362.90,-2.552003,-0.022162,-0.059447,0.028354,0.093800,0.026989,-0.555884,0.022161,0.830965,-0.011789,-0.024236,0.004469,-43.797722,216.041458,-23.416306,,,,,,
1465826362.91,-2.551214,-0.022516,-0.059485,0.028345,0.074708,0.019658,-0.556535,0.022514,0.830519,-0.000945,-0.007011,-0.009139,-43.677948,216.046860,-23.589703,,,,,,
1465826362.92,-2.550516,-0.022950,-0.059546,0.031509,0.069365,0.031403,-0.557109,0.022948,0.830123,-0.006246,-0.021941,0.006227,-43.677948,216.046860,-23.589703,,,,,,
1465826362.93,-2.549823,-0.023348,-0.059574,0.031528,0.070451,0.022881,-0.557679,0.023346,0.829728,0.011185,-0.003067,-0.008699,-43.677948,216.046860,-23.589703,,,,,,
1465826362.94,-2.549119,-0.023773,-0.059622,0.031518,0.069377,0.027146,-0.558257,0.023771,0.829328,0.006133,-0.008146,-0.001493,-43.388676,216.061966,-23.981853,,,,,,
1465826362.96,-2.548103,-0.024451,-0.059643,0.022985,0.035442,0.013512,-0.559090,0.024448,0.828746,0.014794,0.020443,-0.013073,-43.388676,216.061966,-23.981853,,,,,,
1465826362.95,-2.548521,-0.024142,-0.059643,0.029379,0.056645,0.024030,-0.558748,0.024140,0.828986,0.018464,0.011139,-0.013938,-43.388676,216.061966,-23.981853,,,,,,
1465826362.97,-2.548129,-0.024747,-0.059576,0.028237,-0.016598,0.017037,-0.559064,0.024745,0.828755,0.020780,0.017003,-0.033925,-43.249062,216.068741,-24.172218,,,,,,
1465826362.98,-2.548809,-0.025093,-0.059508,0.036667,-0.083502,0.019594,-0.558496,0.025090,0.829127,0.003839,0.014278,-0.010646,-43.249062,216.068741,-24.172218,,,,,,
1465826362.99,-2.549981,-0.025630,-0.059604,0.037668,-0.125989,0.025184,-0.557516,0.025627,0.829771,-0.023508,-0.046822,0.034701,-43.249062,216.068741,-24.172218,,,,,,
1465826363.00,-2.551098,-0.026329,-0.059521,0.045179,-0.073978,0.029123,-0.556579,0.026326,0.830378,0.027907,0.008205,-0.026133,-43.112167,216.072678,-24.380663,,,,,,
1465826363.01,-2.551329,-0.026699,-0.059556,0.025064,-0.002792,0.015884,-0.556381,0.026696,0.830498,0.004425,0.007850,-0.016777,-43.112167,216.072678,-24.380663,,,,,,
1465826363.02,-2.550784,-0.026998,-0.059580,0.023018,0.070462,0.019680,-0.556829,0.026995,0.830188,0.009390,0.011487,0.011044,-43.112167,216.072678,-24.380663,,,,,,
1465826363.03,-2.549751,-0.027231,-0.059608,0.013501,0.116136,0.015126,-0.557683,0.027227,0.829607,0.020483,0.009318,-0.024599,-43.025063,216.074265,-24.520065,,,,,,
1465826363.05,-2.547708,-0.027691,-0.059680,0.014549,0.099150,0.013105,-0.559370,0.027687,0.828455,0.008146,0.002800,-0.007365,-43.025063,216.074265,-24.520065,,,,,,
1465826363.04,-2.548816,-0.027499,-0.059646,0.016714,0.128876,0.013985,-0.558455,0.027495,0.829079,0.009322,0.002504,0.014381,-43.025063,216.074265,-24.520065,,,,,,
1465826363.06,-2.547180,-0.027907,-0.059722,0.016590,0.035429,0.017765,-0.559805,0.027903,0.828155,0.005727,-0.003657,-0.008956,-42.793728,216.083832,-24.838530,,,,,,
1465826363.07,-2.547452,-0.028180,-0.059717,0.025011,-0.044208,0.017208,-0.559575,0.028177,0.828301,0.010152,0.004965,-0.028969,-42.793728,216.083832,-24.838530,,,,,,
1465826363.08,-2.548282,-0.028423,-0.059700,0.023906,-0.084541,0.012137,-0.558883,0.028420,0.828759,0.004135,-0.001991,-0.002832,-42.793728,216.083832,-24.838530,,,,,,
1465826363.09,-2.549170,-0.028671,-0.059687,0.018577,-0.086665,0.013210,-0.558143,0.028667,0.829249,0.017936,0.020299,-0.040171,-42.721428,216.087280,-24.932676,,,,,,
1465826363.11,-2.549878,-0.028835,-0.059682,0.000603,0.000435,0.004130,-0.557553,0.028831,0.829640,0.014691,0.016458,-0.020329,-42.721428,216.087280,-24.932676,,,,,,
1465826363.10,-2.549765,-0.028784,-0.059665,0.009061,-0.049471,0.003387,-0.557648,0.028780,0.829579,0.021744,0.034666,-0.033024,-42.721428,216.087280,-24.932676,,,,,,
1465826363.12,-2.549648,-0.029372,-0.059674,-0.001532,0.037563,-0.001489,-0.557735,0.029368,0.829499,0.015362,0.021444,-0.017670,-42.709358,216.087616,-24.950541,,,,,,
1465826363.13,-2.549182,-0.029349,-0.059697,-0.002592,0.044990,0.000592,-0.558122,0.029345,0.829240,-0.004058,-0.014666,0.002074,-42.709358,216.087616,-24.950541,,,,,,
1465826363.14,-2.548796,-0.029354,-0.059702,0.001653,0.035429,0.001721,-0.558442,0.029349,0.829024,-0.005676,-0.026999,0.002686,-42.709358,216.087616,-24.950541,,,,,,
1465826363.15,-2.548504,-0.029302,-0.059713,0.005867,0.012047,0.009323,-0.558685,0.029297,0.828863,-0.000016,-0.005677,-0.007757,-42.627163,216.089935,-25.070740,,,,,,
1465826363.17,-2.548550,-0.029567,-0.059716,0.010097,-0.009194,0.010524,-0.558642,0.029563,0.828882,0.007327,0.005914,-0.023035,-42.627163,216.089935,-25.070740,,,,,,
1465826363.16,-2.548489,-0.029391,-0.059683,0.013314,-0.001745,0.004094,-0.558696,0.029386,0.828852,-0.016896,-0.047941,0.025228,-42.627163,216.089935,-25.070740,,,,,,
1465826363.18,-2.548572,-0.029770,-0.059693,0.021816,0.002468,0.014721,-0.558620,0.029765,0.828889,-0.009022,-0.040202,0.023497,-42.581501,216.091568,-25.134321,,,,,,
1465826363.19,-2.548380,-0.030249,-0.059705,0.016534,0.030086,0.011350,-0.558772,0.030244,0.828770,0.008448,0.009169,-0.009586,-42.581501,216.091568,-25.134321,,,,,,
1465826363.20,-2.547910,-0.030452,-0.059710,0.017621,0.052375,0.014404,-0.559158,0.030447,0.828502,-0.001755,-0.022574,0.023748,-42.581501,216.091568,-25.134321,,,,,,
1465826363.21,-2.547243,-0.030661,-0.059742,0.015515,0.068309,0.012173,-0.559707,0.030656,0.828124,0.010314,-0.000322,-0.013365,-42.496803,216.092972,-25.265066,,,,,,
1465826363.22,-2.546667,-0.030905,-0.059751,0.021875,0.052367,0.016538,-0.560180,0.030900,0.827794,-0.009751,-0.033006,0.017954,-42.496803,216.092972,-25.265066,,,,,,
1465826363.23,-2.546321,-0.030745,-0.059785,0.022911,0.031130,0.016670,-0.560468,0.030740,0.827605,0.002775,-0.017068,-0.001220,-42.496803,216.092972,-25.265066,,,,,,
1465826363.24,-2.546213,-0.031131,-0.059804,0.031378,0.005616,0.026419,-0.560552,0.031125,0.827534,0.001989,-0.025052,0.008983,-42.370373,216.098267,-25.431732,,,,,,
1465826363.25,-2.546273,-0.031534,-0.059812,0.033497,-0.009239,0.022256,-0.560494,0.031529,0.827558,0.002908,-0.007878,0.001376,-42.370373,216.098267,-25.431732,,,,,,
1465826363.26,-2.546436,-0.032000,-0.059836,0.037732,-0.016694,0.029758,-0.560352,0.031995,0.827637,0.004749,-0.017606,0.007019,-42.370373,216.098267,-25.431732,,,,,,
1465826363.27,-2.546727,-0.032112,-0.059855,0.039885,0.001357,0.028582,-0.560109,0.032107,0.827797,0.001637,-0.013583,0.014351,-42.268646,216.101669,-25.571758,,,,,,
1465826363.28,-2.546607,-0.032589,-0.059857,0.039907,0.014107,0.025308,-0.560199,0.032584,0.827717,-0.004071,-0.018713,0.008236,-42.268646,216.101669,-25.571758,,,,,,
1465826363.29,-2.546378,-0.033204,-0.059922,0.033518,0.018349,0.028469,-0.560377,0.033198,0.827572,0.016829,0.004064,-0.026730,-42.268646,216.101669,-25.571758,,,,,,
1465826363.30,-2.546314,-0.033007,-0.059947,0.043098,0.028943,0.034797,-0.560434,0.033001,0.827541,0.000055,-0.027004,0.013294,-42.049217,216.111008,-25.853048,,,,,,
1465826363.31,-2.544740,-0.032682,-0.059882,0.046254,-0.018794,0.022323,-0.561742,0.032676,0.826667,-0.043635,-0.032585,-0.039268,-42.049217,216.111008,-25.853048,,,,,,
1465826363.32,-2.546126,-0.033407,-0.060435,-0.001795,-0.101635,0.038761,-0.560582,0.033401,0.827425,0.149708,0.207719,0.071882,-42.049217,216.111008,-25.853048,,,,,,
1465826363.33,-2.545753,-0.033965,-0.060014,0.094062,0.055235,0.120900,-0.560880,0.033958,0.827200,-0.038821,-0.092476,-0.110647,-42.077259,216.107895,-25.833256,,,,,,
1465826363.34,-2.544716,-0.034154,-0.060081,-0.003564,0.096017,-0.018896,-0.561734,0.034147,0.826613,0.018429,-0.019041,-0.031584,-42.077259,216.107895,-25.833256,,,,,,
1465826363.35,-2.544116,-0.034669,-0.060291,0.047358,0.050158,0.045309,-0.562220,0.034662,0.826261,-0.008748,0.015951,0.043368,-42.077259,216.107895,-25.833256,,,,,,
1465826363.36,-2.544816,-0.035182,-0.060223,0.034443,-0.097362,0.022804,-0.561631,0.035174,0.826640,-0.004409,0.037473,-0.030909,-41.746239,216.132111,-26.165520,,,,,,
1465826363.37,-2.546236,-0.035761,-0.060341,0.044987,-0.134609,0.051788,-0.560446,0.035753,0.827419,-0.021021,-0.046053,0.061146,-41.746239,216.132111,-26.165520,,,,,,
1465826363.38,-2.546654,-0.036208,-0.060110,0.055880,-0.025100,-0.003175,-0.560091,0.036200,0.827640,0.011553,-0.011542,-0.063632,-41.746239,216.132111,-26.165520,,,,,,
1465826363.39,-2.546498,-0.036752,-0.060278,0.024979,0.023641,0.039067,-0.560209,0.036744,0.827536,0.004133,-0.004121,0.005365,-41.660378,216.136475,-26.266251,,,,,,
1465826363.40,-2.546368,-0.037208,-0.060288,0.044148,0.015158,0.031688,-0.560307,0.037200,0.827449,-0.007137,-0.006881,0.023030,-41.660378,216.136475,-26.266251,,,,,,
1465826363.41,-2.546221,-0.037805,-0.060267,0.048399,0.011964,0.033841,-0.560416,0.037796,0.827348,-0.009912,-0.026718,0.001768,-41.660378,216.136475,-26.266251,,,,,,
1465826363.43,-2.545463,-0.038982,-0.060315,0.052693,0.050170,0.039992,-0.561017,0.038972,0.826886,0.004972,-0.008775,-0.009869,-41.425434,216.135712,-26.641468,,,,,,
1465826363.42,-2.545964,-0.038327,-0.060289,0.046307,0.033216,0.028383,-0.560618,0.038318,0.827188,-0.006002,-0.029758,0.019492,-41.425434,216.135712,-26.641468,,,,,,
1465826363.44,-2.544972,-0.039569,-0.060336,0.048447,0.050189,0.033601,-0.561410,0.039558,0.826592,0.000222,-0.010262,0.025581,-41.425434,216.135712,-26.641468,,,,,,
1465826363.45,-2.544402,-0.040197,-0.060360,0.050586,0.060800,0.035666,-0.561867,0.040186,0.826251,0.016503,0.009832,-0.008731,-41.253742,216.139313,-26.877651,,,,,,
1465826363.46,-2.543653,-0.040746,-0.060410,0.038897,0.083098,0.037643,-0.562474,0.040735,0.825811,0.028111,0.018515,-0.013433,-41.253742,216.139313,-26.877651,,,,,,
1465826363.47,-2.542333,-0.041203,-0.060416,0.037943,0.148969,0.023391,-0.563552,0.041191,0.825053,0.029800,0.021813,0.013006,-41.253742,216.139313,-26.877651,,,,,,
1465826363.48,-2.540709,-0.041627,-0.060505,0.025173,0.162764,0.028614,-0.564882,0.041615,0.824122,0.048494,0.043438,-0.049036,-40.880688,216.145752,-27.390945,,,,,,
1465826363.49,-2.539242,-0.041913,-0.060553,0.021963,0.138364,0.021313,-0.566083,0.041901,0.823282,0.034177,0.025772,-0.000788,-40.880688,216.145752,-27.390945,,,,,,
1465826363.50,-2.538269,-0.042191,-0.060598,0.017650,0.086353,0.016313,-0.566878,0.042179,0.822721,0.045790,0.039761,-0.027922,-40.880688,216.145752,-27.390945,,,,,,
1465826363.51,-2.537561,-0.042369,-0.060648,0.010183,0.070438,0.013212,-0.567455,0.042356,0.822314,0.049801,0.044420,-0.012667,-40.684196,216.152756,-27.627201,,,,,,
1465826363.52,-2.536612,-0.042472,-0.060646,0.005990,0.107630,0.003394,-0.568233,0.042459,0.821771,0.052242,0.033545,0.000326,-40.684196,216.152756,-27.627201,,,,,,
1465826363.53,-2.535208,-0.042425,-0.060678,-0.008854,0.149062,-0.002203,-0.569388,0.042412,0.820974,0.056479,0.044502,-0.016241,-40.684196,216.152756,-27.627201,,,,,,
1465826363.54,-2.533870,-0.042294,-0.060672,-0.009944,0.118288,-0.008398,-0.570489,0.042281,0.820216,0.053368,0.045823,-0.044795,-40.487038,216.159012,-27.866856,,,,,,
1465826363.55,-2.533536,-0.042101,-0.060665,-0.017535,0.001505,-0.011931,-0.570767,0.042089,0.820033,0.050397,0.055155,-0.064768,-40.487038,216.159012,-27.866856,,,,,,
1465826363.56,-2.534379,-0.041843,-0.060621,-0.019785,-0.107836,-0.019763,-0.570082,0.041831,0.820522,0.045423,0.055138,-0.057705,-40.487038,216.159012,-27.866856,,,,,,
1465826363.57,-2.535668,-0.041477,-0.060571,-0.030439,-0.126920,-0.028169,-0.569032,0.041465,0.821269,0.040514,0.056237,-0.034205,-40.482735,216.158295,-27.878643,,,,,,
1465826363.58,-2.536426,-0.040953,-0.060535,-0.046304,-0.052568,-0.035038,-0.568422,0.040942,0.821718,0.035005,0.052640,-0.024156,-40.482735,216.158295,-27.878643,,,,,,
1465826363.59,-2.536373,-0.040275,-0.060535,-0.060047,0.020712,-0.038705,-0.568481,0.040264,0.821710,0.029144,0.049382,-0.031259,-40.482735,216.158295,-27.878643,,,,,,
1465826363.60,-2.536108,-0.039436,-0.060547,-0.072805,0.020745,-0.048298,-0.568718,0.039426,0.821587,0.031746,0.058780,-0.076500,-40.809448,216.151138,-27.454628,,,,,,
1465826363.61,-2.536611,-0.038494,-0.060533,-0.078236,-0.080098,-0.057251,-0.568326,0.038485,0.821903,0.027875,0.067045,-0.113666,-40.809448,216.151138,-27.454628,,,,,,
1465826363.62,-2.538468,-0.037417,-0.060530,-0.093301,-0.220225,-0.064903,-0.566821,0.037409,0.822991,0.029117,0.101416,-0.147393,-40.809448,216.151138,-27.454628,,,,,,
1465826363.63,-2.541499,-0.036179,-0.060528,-0.105128,-0.322134,-0.070662,-0.564350,0.036171,0.824743,0.027943,0.076240,-0.146017,-41.035316,216.149521,-27.128738,,,,,,
1465826363.64,-2.543679,-0.037364,-0.060495,-0.126290,-0.260479,-0.091285,-0.562527,0.037356,0.825935,0.026226,0.078306,-0.077049,-41.035316,216.149521,-27.128738,,,,,,
1465826363.65,-2.544924,-0.035557,-0.060487,-0.157965,-0.072480,-0.108462,-0.561535,0.035549,0.826689,0.030865,0.102100,-0.073012,-41.035316,216.149521,-27.128738,,,,,,
1465826363.66,-2.544079,-0.033371,-0.060552,-0.192821,0.133557,-0.120434,-0.562276,0.033365,0.826277,0.031361,0.076468,-0.062437,-41.624332,216.143326,-26.266928,,,,,,
1465826363.67,-2.541762,-0.030871,-0.060618,-0.216045,0.258920,-0.142532,-0.564234,0.030866,0.825038,0.035318,0.079180,-0.068980,-41.624332,216.143326,-26.266928,,,,,,
1465826363.68,-2.538277,-0.028148,-0.060674,-0.228652,0.384236,-0.149717,-0.567152,0.028144,0.823132,-0.040926,0.002130,0.118213,-41.624332,216.143326,-26.266928,,,,,,
1465826363.70,-2.525423,-0.023673,-0.061155,-0.172981,0.725939,-0.090067,-0.577752,0.023671,0.815869,0.035500,-0.174642,0.035541,-42.089375,216.139633,-25.546566,,,,,,
1465826363.69,-2.532681,-0.025648,-0.060836,-0.207123,0.627282,-0.116093,-0.571787,0.025646,0.820001,-0.121084,-0.190410,0.353797,-42.089375,216.139633,-25.546566,,,,,,
1465826363.71,-2.519550,-0.022029,-0.061245,-0.124290,0.526246,-0.070670,-0.582555,0.022027,0.812493,-0.035502,-0.256738,0.136253,-42.089375,216.139633,-25.546566,,,,,,
1465826363.73,-2.517063,-0.021529,-0.061317,0.023840,-0.114274,-0.001574,-0.584580,0.021527,0.811050,0.008760,-0.194287,0.035477,-42.514713,216.138290,-24.843805,,,,,,
1465826363.72,-2.516693,-0.021451,-0.061445,-0.035376,0.202190,-0.010004,-0.584882,0.021449,0.810835,-0.072147,-0.236598,0.190874,-42.514713,216.138290,-24.843805,,,,,,
1465826363.74,-2.520453,-0.022105,-0.061315,0.055331,-0.406403,0.042868,-0.581820,0.022103,0.813017,-0.050977,-0.149788,0.068605,-42.514713,216.138290,-24.843805,,,,,,
1465826363.75,-2.526060,-0.023061,-0.061166,0.095544,-0.606036,0.042031,-0.577240,0.023059,0.816249,-0.014175,-0.056934,0.029866,-42.503201,216.139557,-24.852613,,,,,,
1465826363.76,-2.532876,-0.024127,-0.060976,0.095419,-0.697366,0.047926,-0.571648,0.024125,0.820144,-0.011024,-0.010926,-0.007674,-42.503201,216.139557,-24.852613,,,,,,
1465826363.77,-2.539742,-0.025123,-0.060869,0.083747,-0.667627,0.046663,-0.565990,0.025120,0.824029,-0.011387,0.008327,-0.036310,-42.503201,216.139557,-24.852613,,,,,,
1465826363.79,-2.547611,-0.026754,-0.060635,0.062006,-0.190837,0.033007,-0.559465,0.026750,0.828422,-0.007628,-0.024111,0.007500,-42.696121,216.133041,-24.577063,,,,,,
1465826363.78,-2.545014,-0.026002,-0.060733,0.079752,-0.469047,0.037963,-0.561625,0.025999,0.826983,-0.009313,0.007540,0.016080,-42.696121,216.133041,-24.577063,,,,,,
1465826363.80,-2.547896,-0.027301,-0.060677,0.036711,0.015165,0.031689,-0.559220,0.027298,0.828569,-0.024855,0.014710,0.009474,-42.696121,216.133041,-24.577063,,,,,,
1465826363.81,-2.546837,-0.027658,-0.060708,0.024099,0.130934,0.021371,-0.560092,0.027655,0.827969,-0.006177,0.025843,-0.018642,-42.733086,216.127609,-24.560499,,,,,,
1465826363.83,-2.541246,-0.027919,-0.060806,-0.002189,0.372015,0.005995,-0.564708,0.027916,0.824818,0.009548,0.041069,-0.024800,-42.733086,216.127609,-24.560499,,,,,,
1465826363.82,-2.544668,-0.027860,-0.060765,0.010420,0.248822,0.013167,-0.561883,0.027857,0.826747,0.001382,0.030554,-0.001461,-42.733086,216.127609,-24.560499,,,,,,
1465826363.84,-2.536965,-0.027713,-0.060900,-0.027637,0.437892,-0.006153,-0.568238,0.027709,0.822398,0.023774,0.066422,-0.059855,-42.402897,216.140015,-25.019203,,,,,,
1465826363.85,-2.532827,-0.027324,-0.061039,-0.044701,0.405002,-0.012350,-0.571642,0.027320,0.820049,0.034059,0.074120,-0.081432,-42.402897,216.140015,-25.019203,,,,,,
1465826363.86,-2.528955,-0.026783,-0.061158,-0.051097,0.383795,-0.021804,-0.574821,0.026780,0.817841,0.041115,0.065338,-0.031372,-42.402897,216.140015,-25.019203,,,,,,
1465826363.87,-2.525097,-0.026174,-0.061255,-0.056404,0.388060,-0.027158,-0.577981,0.026171,0.815630,0.045022,0.019483,-0.005007,-42.222980,216.149460,-25.241123,,,,,,
1465826363.89,-2.517775,-0.025076,-0.061440,-0.041591,0.322206,-0.021408,-0.583955,0.025073,0.811399,0.045380,-0.021503,0.033938,-42.222980,216.149460,-25.241123,,,,,,
1465826363.88,-2.521208,-0.025567,-0.061366,-0.053215,0.385932,-0.026077,-0.581158,0.025564,0.813389,0.045086,-0.017889,0.024792,-42.222980,216.149460,-25.241123,,,,,,
1465826363.90,-2.515494,-0.024759,-0.061505,-0.025804,0.192629,-0.009935,-0.585808,0.024756,0.810071,0.043328,-0.035254,0.020098,-42.051384,216.160843,-25.429276,,,,,,
1465826363.91,-2.514677,-0.024576,-0.061523,-0.012146,0.046093,-0.009002,-0.586472,0.024574,0.809596,0.045487,-0.025306,0.025273,-42.051384,216.160843,-25.429276,,,,,,
1465826363.92,-2.514769,-0.024550,-0.061540,0.000533,-0.016586,0.000983,-0.586398,0.024547,0.809651,0.037646,-0.039440,0.065532,-42.051384,216.160843,-25.429276,,,,,,
1465826363.93,-2.514256,-0.024652,-0.061552,0.009164,0.087443,0.008855,-0.586812,0.024649,0.809348,0.034719,-0.060202,0.131631,-42.021332,216.162872,-25.461596,,,,,,
1465826363.95,-2.507480,-0.024783,-0.061610,0.001125,0.467575,0.005399,-0.592281,0.024781,0.805350,0.059475,-0.031464,0.118020,-42.021332,216.162872,-25.461596,,,,,,
1465826363.94,-2.511815,-0.024742,-0.061571,0.005174,0.299808,0.006455,-0.588784,0.024739,0.807911,0.051355,-0.043645,0.140865,-42.021332,216.162872,-25.461596,,,,,,
1465826363.96,-2.502809,-0.024860,-0.061641,0.005351,0.444207,0.007678,-0.596035,0.024857,0.802574,0.060772,-0.022095,0.054009,-41.795181,216.167999,-25.788340,,,,,,
1465826363.97,-2.500574,-0.025091,-0.061608,0.026241,0.126709,0.012884,-0.597824,0.025089,0.801235,0.057678,-0.000446,-0.062572,-41.795181,216.167999,-25.788340,,,,,,
1465826363.98,-2.503319,-0.025625,-0.061502,0.056411,-0.420164,0.026988,-0.595614,0.025623,0.802862,0.033557,0.001874,-0.145879,-41.795181,216.167999,-25.788340,,,,,,
1465826363.99,-2.512073,-0.026496,-0.061312,0.088644,-1.022249,0.040376,-0.588550,0.026493,0.808027,-0.002087,0.010693,-0.192060,-41.576675,216.169113,-26.129910,,,,,,
1465826364.00,-2.524790,-0.027555,-0.061172,0.092533,-1.308952,0.047501,-0.578211,0.027552,0.815422,-0.020727,0.023809,-0.141121,-41.576675,216.169113,-26.129910,,,,,,
1465826364.01,-2.536344,-0.028408,-0.060902,0.082236,-1.066791,0.022554,-0.568737,0.028405,0.822029,-0.005070,0.047386,0.014168,-41.576675,216.169113,-26.129910,,,,,,
1465826364.02,-2.543367,-0.028924,-0.060748,0.038072,-0.578299,0.014057,-0.562942,0.028920,0.825990,-0.000611,0.028468,0.034239,-42.202450,216.146362,-25.301920,,,,,,
1465826364.03,-2.546225,-0.029043,-0.060750,0.003417,-0.206630,0.004241,-0.560577,0.029039,0.827593,-0.002869,0.008833,0.025114,-42.202450,216.146362,-25.301920,,,,,,
1465826364.04,-2.547330,-0.029059,-0.060719,0.004622,-0.101501,-0.000675,-0.559662,0.029055,0.828211,-0.008621,0.006193,0.014013,-42.202450,216.146362,-25.301920,,,,,,
1465826364.05,-2.548930,-0.029073,-0.060745,0.000252,-0.186449,0.001982,-0.558336,0.029069,0.829106,-0.007262,-0.004929,-0.028767,-42.400764,216.140869,-25.015549,,,,,,
1465826364.07,-2.553449,-0.029244,-0.060697,0.006660,-0.172645,0.000837,-0.554580,0.029240,0.831616,-0.005479,-0.009281,0.029788,-42.400764,216.140869,-25.015549,,,,,,
1465826364.06,-2.551410,-0.029154,-0.060719,0.010804,-0.260783,0.003523,-0.556277,0.029150,0.830486,-0.004286,-0.008428,-0.016506,-42.400764,216.140869,-25.015549,,,,,,
1465826364.08,-2.553508,-0.029237,-0.060667,-0.001563,0.058838,-0.002752,-0.554532,0.029232,0.831649,0.001370,-0.027020,0.051499,-42.565964,216.138855,-24.751078,,,,,,
1465826364.09,-2.552726,-0.027438,-0.060740,-0.011886,0.324282,-0.004432,-0.555210,0.027435,0.831258,-0.010128,-0.037551,0.097209,-42.565964,216.138855,-24.751078,,,,,,
1465826364.10,-2.548060,-0.027258,-0.060758,-0.016978,0.503738,-0.008756,-0.559085,0.027255,0.828662,0.008014,-0.023333,0.053006,-42.565964,216.138855,-24.751078,,,,,,
1465826364.11,-2.542619,-0.027068,-0.060817,-0.019058,0.545146,-0.007954,-0.563588,0.027064,0.825612,-0.001048,-0.021815,0.043986,-42.757038,216.135162,-24.452139,,,,,,
1465826364.12,-2.537678,-0.026915,-0.060848,-0.013839,0.468682,-0.003211,-0.567664,0.026912,0.822821,0.005896,-0.009380,-0.000845,-42.757038,216.135162,-24.452139,,,,,,
1465826364.13,-2.533651,-0.027264,-0.060860,-0.011887,0.320040,-0.005469,-0.570967,0.027261,0.820521,0.026152,0.015311,-0.057657,-42.539066,216.137665,-24.807554,,,,,,
1465826364.14,-2.531549,-0.027166,-0.060864,-0.008866,0.174583,-0.008811,-0.572692,0.027162,0.819321,0.026289,0.021483,-0.055374,-42.539066,216.137665,-24.807554,,,,,,
1465826364.15,-2.530674,-0.027128,-0.060855,-0.000505,0.059887,-0.001697,-0.573409,0.027124,0.818820,0.013198,0.002493,-0.032535,-42.539066,216.137665,-24.807554,,,,,,
1465826364.16,-2.530904,-0.027174,-0.060867,0.002544,-0.052672,0.001141,-0.573220,0.027170,0.818951,0.007073,-0.007105,-0.035977,-42.539066,216.137665,-24.807554,,,,,,
1465826364.17,-2.531598,-0.027344,-0.060829,0.011971,-0.163123,0.010359,-0.572649,0.027341,0.819345,0.018770,-0.000394,-0.053231,-42.225510,216.139755,-25.319870,,,,,,
1465826364.19,-2.535516,-0.027527,-0.060796,0.003380,-0.175369,0.001842,-0.569431,0.027523,0.821578,0.012882,0.008381,-0.002883,-42.225510,216.139755,-25.319870,,,,,,
1465826364.18,-2.533641,-0.027456,-0.060809,0.012923,-0.211466,-0.001115,-0.570972,0.027452,0.820510,0.008915,0.024412,-0.016067,-42.225510,216.139755,-25.319870,,,,,,
1465826364.20,-2.536702,-0.027503,-0.060804,-0.006107,-0.096793,0.002405,-0.568457,0.027500,0.822253,0.017004,0.009289,-0.007816,-42.309040,216.138199,-25.193226,,,,,,
1465826364.21,-2.537959,-0.028746,-0.060783,-0.013419,-0.019234,-0.016180,-0.567403,0.028742,0.822939,0.030095,0.031301,-0.008653,-42.309040,216.138199,-25.193226,,,,,,
1465826364.22,-2.538228,-0.028621,-0.060848,-0.014535,-0.034143,-0.000121,-0.567183,0.028617,0.823094,-0.003160,-0.014945,-0.005009,-42.309040,216.138199,-25.193226,,,,,,
1465826364.23,-2.538819,-0.028429,-0.060825,-0.011349,-0.070196,-0.017987,-0.566701,0.028425,0.823433,0.016332,0.007372,-0.009590,-42.223171,216.141541,-25.308380,,,,,,
1465826364.25,-2.540668,-0.024863,-0.060864,0.003440,-0.108499,0.007803,-0.565230,0.024860,0.824558,-0.017854,-0.085529,0.024837,-42.223171,216.141541,-25.308380,,,,,,
1465826364.24,-2.539626,-0.028386,-0.060786,0.002432,-0.083006,0.004461,-0.566036,0.028383,0.823892,-0.016132,-0.026094,0.035163,-42.223171,216.141541,-25.308380,,,,,,
1465826364.26,-2.541752,-0.025124,-0.060780,0.033237,-0.102175,0.019502,-0.564333,0.025122,0.825165,0.012362,-0.038519,-0.010193,-42.751549,216.131775,-24.491758,,,,,,
1465826364.27,-2.542560,-0.025466,-0.060756,0.027970,-0.077716,0.006569,-0.563661,0.025463,0.825614,-0.029159,-0.057690,0.085671,-42.751549,216.131775,-24.491758,,,,,,
1465826364.28,-2.543379,-0.025762,-0.060704,0.025803,-0.090486,0.017292,-0.562980,0.025760,0.826069,0.011070,0.015988,-0.028797,-42.751549,216.131775,-24.491758,,,,,,
1465826364.29,-2.544099,-0.026977,-0.060768,0.005583,-0.102127,0.007768,-0.562368,0.026974,0.826447,0.010137,0.022373,-0.030961,-42.743805,216.128784,-24.531528,,,,,,
1465826364.30,-2.544798,-0.027006,-0.060634,0.013105,-0.062817,-0.002051,-0.561789,0.027003,0.826839,0.058997,0.063986,-0.028088,-42.743805,216.128784,-24.531528,,,,,,
1465826364.31,-2.545146,-0.027090,-0.060685,0.001426,-0.025666,0.004091,-0.561500,0.027087,0.827033,-0.014107,-0.036440,0.021828,-42.743805,216.128784,-24.531528,,,,,,
1465826364.32,-2.545498,-0.027232,-0.060652,0.017375,-0.038425,0.007380,-0.561207,0.027229,0.827227,0.003376,-0.016273,0.006650,-42.622540,216.131271,-24.719793,,,,,,
1465826364.33,-2.546311,-0.026172,-0.060689,0.017288,-0.084115,0.019371,-0.560550,0.026169,0.827707,-0.002378,-0.031159,0.005423,-42.622540,216.131271,-24.719793,,,,,,
1465826364.34,-2.546924,-0.026402,-0.060682,0.019491,-0.043735,0.007411,-0.560039,0.026399,0.828045,0.015331,-0.018144,0.002521,-42.761936,216.128159,-24.505486,,,,,,
1465826364.35,-2.546720,-0.026537,-0.060617,0.012097,0.041694,0.003615,-0.560206,0.026534,0.827928,0.026652,0.039247,0.014540,-42.761936,216.128159,-24.505486,,,,,,
1465826364.36,-2.545773,-0.026494,-0.060660,-0.010172,0.105428,-0.002129,-0.560990,0.026491,0.827398,0.024629,0.019331,-0.011847,-42.761936,216.128159,-24.505486,,,,,,
1465826364.37,-2.544757,-0.026360,-0.060719,-0.013377,0.096935,-0.002079,-0.561833,0.026357,0.826831,0.031056,0.039241,-0.027637,-42.761936,216.128159,-24.505486,,,,,,
1465826364.38,-2.544128,-0.026210,-0.060747,-0.014493,0.049166,-0.006038,-0.562355,0.026207,0.826481,0.022987,0.022743,-0.012302,-42.695583,216.130325,-24.601837,,,,,,
1465826364.40,-2.543342,-0.025975,-0.060775,-0.012374,0.042791,-0.004932,-0.563008,0.025972,0.826043,0.017247,-0.001207,0.005469,-42.695583,216.130325,-24.601837,,,,,,
1465826364.39,-2.543743,-0.026099,-0.060756,-0.008121,0.037480,-0.004894,-0.562675,0.026096,0.826266,0.021797,0.005230,-0.011905,-42.695583,216.130325,-24.601837,,,,,,
1465826364.41,-2.542851,-0.025855,-0.060809,-0.010235,0.050223,-0.004976,-0.563415,0.025852,0.825769,0.014984,-0.009098,0.005758,-42.695595,216.131210,-24.594044,,,,,,
1465826364.43,-2.541342,-0.025496,-0.060815,-0.020818,0.089535,-0.012685,-0.564666,0.025493,0.824926,0.029113,0.021733,-0.005391,-42.695595,216.131210,-24.594044,,,,,,
1465826364.42,-2.542200,-0.025720,-0.060802,-0.012332,0.070407,-0.008298,-0.563955,0.025717,0.825405,0.019231,0.005533,0.012516,-42.695595,216.131210,-24.594044,,,,,,
1465826364.44,-2.540335,-0.025166,-0.060834,-0.030368,0.105484,-0.019181,-0.565501,0.025164,0.824364,0.032313,0.030470,-0.003441,-42.699677,216.131805,-24.581799,,,,,,
1465826364.46,-2.537674,-0.024263,-0.060882,-0.042033,0.140533,-0.020477,-0.567706,0.024260,0.822874,0.028658,0.004792,-0.004271,-42.699677,216.131805,-24.581799,,,,,,
1465826364.45,-2.539083,-0.024736,-0.060837,-0.036708,0.133112,-0.025747,-0.566538,0.024733,0.823664,0.031504,0.024476,-0.006419,-42.699677,216.131805,-24.581799,,,,,,
1465826364.47,-2.537569,-0.023873,-0.060940,-0.039886,0.140547,-0.028990,-0.567797,0.023871,0.822822,0.028979,0.002328,0.009468,-42.733086,216.129929,-24.540138,,,,,,
1465826364.48,-2.536083,-0.023423,-0.060924,-0.035622,0.150093,-0.025852,-0.569025,0.023420,0.821987,0.022379,-0.012755,0.012486,-42.733086,216.129929,-24.540138,,,,,,
1465826364.49,-2.534599,-0.022974,-0.060959,-0.040956,0.146901,-0.022644,-0.570251,0.022972,0.821150,0.029739,0.005851,0.000216,-42.783497,216.131424,-24.438927,,,,,,
1465826364.50,-2.533958,-0.022299,-0.060974,-0.036719,0.124606,-0.025694,-0.570785,0.022297,0.820797,0.022186,-0.005009,-0.004116,-42.783497,216.131424,-24.438927,,,,,,
1465826364.51,-2.534063,-0.021604,-0.061040,-0.035735,0.071492,-0.018974,-0.570707,0.021602,0.820869,0.023771,-0.006572,0.005638,-42.783497,216.131424,-24.438927,,,,,,
1465826364.52,-2.535043,-0.020685,-0.061069,-0.029369,0.052373,-0.020978,-0.569914,0.020683,0.821444,0.019956,-0.013160,0.037397,-42.783497,216.131424,-24.438927,,,,,,
1465826364.53,-2.534163,-0.020343,-0.061054,-0.026113,0.103335,-0.020230,-0.570640,0.020342,0.820948,0.010704,-0.036623,0.055212,-42.959709,216.126282,-24.173752,,,,,,
1465826364.54,-2.532536,-0.020045,-0.061082,-0.026025,0.184014,-0.014349,-0.571979,0.020044,0.820023,0.012363,-0.036615,0.057220,-42.959709,216.126282,-24.173752,,,,,,
1465826364.55,-2.530149,-0.019795,-0.061103,-0.020616,0.255147,-0.012661,-0.573938,0.019794,0.818660,0.020013,-0.032215,0.054631,-42.959709,216.126282,-24.173752,,,,,,
1465826364.56,-2.528755,-0.018694,-0.061162,-0.018440,0.300785,-0.009755,-0.575091,0.018693,0.817876,0.021685,-0.022431,0.039042,-43.077896,216.120575,-24.013887,,,,,,
1465826364.57,-2.525699,-0.018537,-0.061205,-0.014188,0.303954,-0.004448,-0.577589,0.018536,0.816117,0.022077,-0.019696,0.021499,-43.077896,216.120575,-24.013887,,,,,,
1465826364.58,-2.522957,-0.018451,-0.061227,-0.006791,0.260413,-0.003103,-0.579826,0.018450,0.814532,0.025825,-0.003694,0.000425,-43.077896,216.120575,-24.013887,,,,,,
1465826364.59,-2.521079,-0.018413,-0.061202,0.000530,0.155291,-0.002437,-0.581354,0.018412,0.813442,0.023127,-0.000071,-0.035168,-43.109653,216.119034,-23.970844,,,,,,
1465826364.60,-2.520145,-0.018741,-0.061171,0.008794,-0.037974,0.005171,-0.582110,0.018740,0.812894,0.023273,0.004606,-0.064710,-43.109653,216.119034,-23.970844,,,,,,
1465826364.61,-2.522377,-0.018925,-0.061117,0.021258,-0.287504,0.006748,-0.580293,0.018924,0.814188,0.020158,0.014508,-0.081248,-43.109653,216.119034,-23.970844,,,,,,
1465826364.62,-2.526867,-0.019243,-0.061091,0.028437,-0.489280,0.018666,-0.576628,0.019242,0.816780,0.018690,0.012176,-0.025093,-42.996609,216.116806,-24.193066,,,,,,
1465826364.63,-2.531923,-0.019549,-0.060976,0.032716,-0.493494,0.005923,-0.572487,0.019548,0.819680,0.020333,0.006728,0.020224,-42.996609,216.116806,-24.193066,,,,,,
1465826364.64,-2.536626,-0.019505,-0.060871,0.025465,-0.331040,0.004896,-0.568626,0.019503,0.822365,0.009300,-0.008960,0.031563,-42.996609,216.116806,-24.193066,,,,,,
1465826364.65,-2.538816,-0.019650,-0.060827,0.010737,-0.188751,0.003989,-0.566823,0.019649,0.823605,0.007741,-0.003032,0.010486,-43.173485,216.113098,-23.909389,,,,,,
1465826364.66,-2.540363,-0.019765,-0.060795,0.011845,-0.154774,0.003777,-0.565546,0.019763,0.824480,0.007532,-0.000049,-0.004274,-43.173485,216.113098,-23.909389,,,,,,
1465826364.67,-2.542309,-0.019903,-0.060768,0.012839,-0.208929,0.005182,-0.563939,0.019901,0.825576,0.010961,0.005077,-0.012451,-43.173485,216.113098,-23.909389,,,,,,
1465826364.69,-2.547486,-0.020053,-0.060658,0.018079,-0.271584,0.007708,-0.559656,0.020051,0.828482,0.005457,-0.009782,-0.005011,-43.413517,216.104691,-23.547989,,,,,,
1465826364.68,-2.544786,-0.019858,-0.060703,0.018109,-0.254584,0.003344,-0.561893,0.019857,0.826972,0.002933,-0.004781,-0.005316,-43.413517,216.104691,-23.547989,,,,,,
1465826364.70,-2.549994,-0.020241,-0.060603,0.021315,-0.241850,0.005396,-0.557574,0.020239,0.829880,0.002093,-0.011710,0.012451,-43.413517,216.104691,-23.547989,,,,,,
1465826364.71,-2.552083,-0.020449,-0.060559,0.017105,-0.198322,0.008312,-0.555837,0.020447,0.831040,0.005117,-0.003357,-0.006760,-43.536472,216.100021,-23.363056,,,,,,
1465826364.72,-2.553797,-0.020871,-0.060532,0.012904,-0.154784,0.006971,-0.554407,0.020869,0.831984,0.004602,0.006764,-0.005522,-43.536472,216.100021,-23.363056,,,,,,
1465826364.73,-2.554877,-0.020954,-0.060480,0.008743,-0.089988,-0.001955,-0.553508,0.020952,0.832581,0.011714,0.017530,0.000427,-43.536472,216.100021,-23.363056,,,,,,
1465826364.74,-2.555181,-0.020961,-0.060428,0.000332,-0.008219,-0.004605,-0.553254,0.020960,0.832749,0.009629,0.005850,0.002273,-43.632221,216.095718,-23.223904,,,,,,
1465826364.75,-2.554504,-0.020889,-0.060428,-0.006997,0.095832,-0.002071,-0.553819,0.020888,0.832375,0.002748,-0.012328,0.032646,-43.632221,216.095718,-23.223904,,,,,,
1465826364.76,-2.554025,-0.020213,-0.060472,-0.012113,0.258289,-0.006290,-0.554225,0.020212,0.832121,0.012187,-0.014352,0.064653,-43.632221,216.095718,-23.223904,,,,,,
1465826364.77,-2.549435,-0.019971,-0.060505,-0.025598,0.535438,-0.012300,-0.558042,0.019969,0.829573,0.029325,-0.011562,0.115679,-43.640766,216.092819,-23.234810,,,,,,
1465826364.78,-2.541499,-0.019529,-0.060559,-0.044311,0.882681,-0.023012,-0.564612,0.019527,0.825126,0.047125,-0.002361,0.118539,-43.640766,216.092819,-23.234810,,,,,,
1465826364.79,-2.530384,-0.018875,-0.060669,-0.065225,1.177887,-0.030206,-0.573755,0.018874,0.818809,0.056666,0.007829,0.101372,-43.619408,216.092072,-23.281837,,,,,,
1465826364.80,-2.517843,-0.018125,-0.060797,-0.071491,1.268155,-0.035037,-0.583987,0.018124,0.811561,0.064364,0.019504,0.020577,-43.619408,216.092072,-23.281837,,,,,,
1465826364.82,-2.498432,-0.016857,-0.061005,-0.042434,0.677757,-0.023854,-0.599642,0.016856,0.800090,0.046054,0.014852,-0.104503,-43.274742,216.094513,-23.894363,,,,,,
1465826364.81,-2.506351,-0.017396,-0.060923,-0.063206,1.087635,-0.030703,-0.593282,0.017396,0.804807,0.056554,0.017105,-0.047559,-43.274742,216.094513,-23.894363,,,,,,
1465826364.83,-2.495695,-0.016643,-0.061019,-0.009074,0.130877,-0.007617,-0.601833,0.016642,0.798449,0.035152,0.002095,-0.139208,-43.274742,216.094513,-23.894363,,,,,,
1465826364.84,-2.498856,-0.016825,-0.060943,0.026354,-0.464848,0.008928,-0.599304,0.016824,0.800345,0.026290,-0.002145,-0.164343,-43.274742,216.094513,-23.894363,,,,,,
1465826364.85,-2.507281,-0.017379,-0.060917,0.049139,-0.937426,0.035332,-0.592534,0.017379,0.805358,0.022984,-0.009154,-0.067382,-42.649704,216.099411,-24.950468,,,,,,
1465826364.86,-2.517470,-0.018018,-0.060698,0.071434,-1.018084,0.017765,-0.584290,0.018017,0.811345,0.027283,0.000721,0.025340,-42.649704,216.099411,-24.950468,,,,,,
1465826364.87,-2.526223,-0.018665,-0.060481,0.059986,-0.803600,0.018537,-0.577159,0.018664,0.816418,0.019893,-0.014590,0.062091,-42.649704,216.099411,-24.950468,,,,,,
1465826364.88,-2.532309,-0.019113,-0.060320,0.042215,-0.547685,0.012656,-0.572176,0.019112,0.819908,0.012849,-0.006309,0.030616,-43.234238,216.084183,-24.060497,,,,,,
1465826364.89,-2.536856,-0.019542,-0.060214,0.041270,-0.443643,0.017325,-0.568437,0.019541,0.822495,-0.004576,-0.008188,0.010010,-43.234238,216.084183,-24.060497,,,,,,
1465826364.90,-2.541627,-0.019946,-0.060168,0.033760,-0.489297,0.017604,-0.564502,0.019945,0.825191,0.009219,0.005446,-0.016154,-43.234238,216.084183,-24.060497,,,,,,
1465826364.91,-2.547314,-0.020573,-0.060058,0.045422,-0.531774,0.016818,-0.559793,0.020572,0.828377,0.012918,0.004666,-0.002785,-43.234238,216.084183,-24.060497,,,,,,
1465826364.93,-2.555517,-0.021272,-0.059932,0.026602,-0.265238,0.009806,-0.552971,0.021270,0.832929,0.027153,-0.007431,0.077517,-43.577164,216.073105,-23.535774,,,,,,
1465826364.92,-2.552270,-0.020984,-0.060007,0.031657,-0.469124,0.017476,-0.555675,0.020983,0.831135,0.023281,0.001112,0.033962,-43.577164,216.073105,-23.535774,,,,,,
1465826364.94,-2.556134,-0.021423,-0.059876,0.010984,0.004488,0.000647,-0.552455,0.021422,0.833268,0.039347,0.006578,0.077331,-43.708080,216.070221,-23.318312,,,,,,
1465826364.95,-2.557077,-0.022078,-0.059921,-0.008925,0.248710,-0.006224,-0.551661,0.022076,0.833776,0.045832,0.018650,0.061442,-43.708080,216.070221,-23.318312,,,,,,
1465826364.96,-2.553128,-0.021822,-0.059896,-0.022512,0.433503,-0.019105,-0.554952,0.021821,0.831596,0.049398,0.023956,0.049187,-43.708080,216.070221,-23.318312,,,,,,
1465826364.97,-2.548304,-0.021454,-0.059903,-0.034158,0.485537,-0.019443,-0.558962,0.021452,0.828916,0.039492,0.009340,0.002688,-43.650215,216.073456,-23.396563,,,,,,
1465826364.99,-2.541742,-0.020013,-0.059917,-0.005751,0.231726,-0.009311,-0.564406,0.020011,0.825255,0.021544,-0.024559,-0.009489,-43.650215,216.073456,-23.396563,,,,,,
1465826364.98,-2.544038,-0.021126,-0.059934,-0.025760,0.397392,-0.014624,-0.562497,0.021124,0.826529,0.027768,-0.009833,-0.006522,-43.650215,216.073456,-23.396563,,,,,,
1465826365.00,-2.540868,-0.020065,-0.059883,0.011017,0.036314,0.003640,-0.565126,0.020064,0.824760,0.011888,-0.023680,-0.029594,-43.538895,216.063370,-23.695282,,,,,,
1465826365.01,-2.541900,-0.020245,-0.059783,0.022505,-0.147375,0.001611,-0.564273,0.020243,0.825340,0.014606,0.006841,-0.036643,-43.538895,216.063370,-23.695282,,,,,,
1465826365.02,-2.544651,-0.020503,-0.059661,0.028675,-0.318335,0.004818,-0.561997,0.020502,0.826885,0.010865,0.026907,-0.068752,-43.538895,216.063370,-23.695282,,,,,,
1465826365.03,-2.547508,-0.021897,-0.059506,0.029530,-0.491396,0.004843,-0.559616,0.021896,0.828463,0.002075,0.028352,-0.083727,-43.538433,216.057907,-23.746063,,,,,,
1465826365.05,-2.561278,-0.022668,-0.059242,0.048280,-0.805728,0.017478,-0.548146,0.022666,0.836075,-0.035380,-0.021811,-0.059601,-43.538433,216.057907,-23.746063,,,,,,
1465826365.04,-2.553610,-0.022214,-0.059374,0.035716,-0.647493,0.009022,-0.554547,0.022212,0.831856,-0.012958,0.006780,-0.072701,-43.538433,216.057907,-23.746063,,,,,,
1465826365.06,-2.569835,-0.023257,-0.059186,0.055653,-0.857781,0.025263,-0.540965,0.023255,0.840724,-0.029760,-0.034318,-0.000956,-43.538433,216.057907,-23.746063,,,,,,
1465826365.07,-2.577557,-0.023812,-0.059030,0.060075,-0.734602,0.020237,-0.534449,0.023809,0.844865,-0.014943,-0.014669,0.014617,-43.801228,216.042603,-23.399317,,,,,,
1465826365.08,-2.583426,-0.024281,-0.058944,0.037973,-0.533902,0.015762,-0.529476,0.024279,0.847978,-0.006795,0.003492,0.007979,-43.801228,216.042603,-23.399317,,,,,,
1465826365.09,-2.587369,-0.024561,-0.058913,0.021177,-0.348069,0.011387,-0.526125,0.024558,0.850053,-0.003600,0.015847,-0.002336,-44.083153,216.037033,-22.916340,,,,,,
1465826365.11,-2.591029,-0.024125,-0.058955,-0.010301,0.015092,0.003754,-0.523016,0.024123,0.851982,-0.009333,-0.012160,0.060341,-44.083153,216.037033,-22.916340,,,,,,
1465826365.10,-2.589643,-0.024655,-0.058861,0.008622,-0.191943,-0.002378,-0.524189,0.024652,0.851245,0.011615,0.029379,-0.020679,-44.083153,216.037033,-22.916340,,,,,,
1465826365.12,-2.587701,-0.023940,-0.059108,-0.034238,0.465291,0.007293,-0.525850,0.023938,0.850240,0.020388,-0.027631,0.144480,-44.366249,216.034622,-22.386454,,,,,,
1465826365.14,-2.563068,-0.022033,-0.059436,-0.129534,1.713334,-0.043279,-0.546657,0.022032,0.837067,0.066325,0.035570,0.230957,-44.366249,216.034622,-22.386454,,,,,,
1465826365.13,-2.578594,-0.023058,-0.058933,-0.069610,1.061427,-0.064677,-0.533583,0.023056,0.845433,0.068464,0.033844,0.080882,-44.366249,216.034622,-22.386454,,,,,,
1465826365.15,-2.541629,-0.020333,-0.059450,-0.147933,2.266642,-0.082958,-0.564496,0.020331,0.825185,0.109159,0.013726,0.155253,-44.211559,216.028992,-22.744022,,,,,,
1465826365.16,-2.516943,-0.018479,-0.059891,-0.181717,2.510847,-0.074944,-0.584713,0.018478,0.811030,0.067242,0.021164,0.123541,-44.211559,216.028992,-22.744022,,,,,,
1465826365.17,-2.492297,-0.016550,-0.060224,-0.169026,2.421685,-0.087145,-0.604543,0.016549,0.796401,0.107808,0.028876,0.025468,-43.580734,216.041870,-23.813860,,,,,,
1465826365.18,-2.471543,-0.014912,-0.060547,-0.140934,1.925762,-0.066976,-0.620956,0.014911,0.783704,0.089599,0.004574,-0.059445,-43.580734,216.041870,-23.813860,,,,,,
1465826365.19,-2.458413,-0.013796,-0.060784,-0.085582,1.093233,-0.044668,-0.631202,0.013796,0.775496,0.084357,-0.010286,-0.129485,-43.580734,216.041870,-23.813860,,,,,,
1465826365.20,-2.454096,-0.013340,-0.060793,-0.020694,0.222476,-0.022111,-0.634548,0.013339,0.772768,0.076305,-0.012607,-0.128741,-43.580734,216.041870,-23.813860,,,,,,
1465826365.21,-2.456840,-0.013362,-0.060653,0.020004,-0.417844,-0.006346,-0.632425,0.013362,0.774506,0.078074,-0.015040,-0.083390,-43.580734,216.041870,-23.813860,,,,,,
1465826365.22,-2.463618,-0.013726,-0.060435,0.047263,-0.735372,0.008446,-0.627158,0.013726,0.778771,0.074133,-0.016137,-0.017663,-42.158054,216.061417,-26.089045,,,,,,
1465826365.23,-2.471299,-0.014169,-0.060164,0.051501,-0.757663,0.005397,-0.621154,0.014169,0.783561,0.072509,-0.008355,0.052133,-42.158054,216.061417,-26.089045,,,,,,
1465826365.24,-2.477434,-0.014571,-0.059898,0.045373,-0.548488,0.005144,-0.616331,0.014570,0.787352,0.064146,-0.015348,0.091646,-42.158054,216.061417,-26.089045,,,,,,
1465826365.25,-2.480299,-0.014755,-0.059677,0.023489,-0.192732,-0.012012,-0.614072,0.014755,0.789112,0.075452,0.006303,0.108272,-42.505486,216.042511,-25.678715,,,,,,
1465826365.26,-2.479670,-0.014716,-0.059508,0.002610,0.135381,-0.016219,-0.614568,0.014716,0.788726,0.069051,-0.004263,0.110550,-42.505486,216.042511,-25.678715,,,,,,
1465826365.27,-2.476922,-0.014553,-0.059384,-0.005686,0.308465,-0.019442,-0.616734,0.014553,0.787037,0.069310,-0.000789,0.065121,-42.505486,216.042511,-25.678715,,,,,,
1465826365.28,-2.473251,-0.014356,-0.059267,-0.007720,0.379616,-0.023084,-0.619621,0.014356,0.784770,0.076210,0.000842,0.071783,-42.730957,216.006424,-25.608047,,,,,,
1465826365.29,-2.469080,-0.014148,-0.059094,-0.005533,0.422093,-0.025477,-0.622891,0.014147,0.782181,0.079022,-0.013369,0.070496,-42.730957,216.006424,-25.608047,,,,,,
1465826365.30,-2.464840,-0.013944,-0.058944,-0.007670,0.415723,-0.025439,-0.626204,0.013943,0.779535,0.080229,0.004810,0.033148,-42.730957,216.006424,-25.608047,,,,,,
1465826365.31,-2.461296,-0.013729,-0.058802,-0.006726,0.323340,-0.022730,-0.628964,0.013729,0.777313,0.077237,0.020527,0.003845,-42.632580,215.989502,-25.912754,,,,,,
1465826365.32,-2.459387,-0.013596,-0.058594,0.006881,0.134335,-0.022595,-0.630448,0.013595,0.776112,0.063005,0.005280,-0.008275,-42.632580,215.989502,-25.912754,,,,,,
1465826365.33,-2.460037,-0.013642,-0.058343,0.023565,-0.134330,-0.013442,-0.629944,0.013642,0.776521,0.029632,-0.005188,-0.056474,-42.535538,215.972412,-26.213032,,,,,,
1465826365.34,-2.463421,-0.013919,-0.058052,0.044511,-0.400874,-0.004299,-0.627310,0.013918,0.778645,0.008779,-0.008669,-0.066365,-42.535538,215.972412,-26.213032,,,,,,
1465826365.36,-2.476890,-0.015033,-0.057393,0.076910,-0.862812,0.012468,-0.616756,0.015032,0.787011,0.006099,-0.009692,-0.072152,-42.535538,215.972412,-26.213032,,,,,,
1465826365.35,-2.468977,-0.014392,-0.057747,0.059139,-0.605838,0.007646,-0.622970,0.014391,0.782114,-0.000092,-0.017840,-0.049295,-42.535538,215.972412,-26.213032,,,,,,
1465826365.37,-2.488901,-0.015964,-0.056972,0.108236,-1.332183,0.029281,-0.607249,0.015963,0.794351,-0.026631,-0.011324,-0.101617,-42.825066,215.924194,-26.138725,,,,,,
1465826365.38,-2.506488,-0.017301,-0.056534,0.141560,-1.899252,0.050967,-0.593173,0.017300,0.804889,-0.073209,-0.008313,-0.145786,-42.825066,215.924194,-26.138725,,,,,,
1465826365.39,-2.529507,-0.019015,-0.056072,0.173872,-2.430211,0.069231,-0.574472,0.019014,0.818304,-0.088278,-0.012269,-0.137777,-43.264381,215.895111,-25.650997,,,,,,
1465826365.40,-2.557317,-0.021138,-0.055703,0.201988,-2.887941,0.100870,-0.551472,0.021136,0.833926,-0.100094,-0.025699,-0.102633,-43.264381,215.895111,-25.650997,,,,,,
1465826365.42,-2.614429,-0.025518,-0.054848,0.201327,-2.614973,0.068288,-0.502920,0.025516,0.863956,-0.039957,0.006284,0.018338,-44.050884,215.867081,-24.523514,,,,,,
1465826365.41,-2.587149,-0.023395,-0.055324,0.211508,-2.974950,0.078007,-0.526326,0.023393,0.849961,-0.053722,-0.013978,-0.039964,-44.050884,215.867081,-24.523514,,,,,,
1465826365.43,-2.636762,-0.027214,-0.054502,0.150878,-2.112677,0.051250,-0.483480,0.027211,0.874932,-0.059870,0.008556,0.037284,-44.050884,215.867081,-24.523514,,,,,,
1465826365.44,-2.654878,-0.028518,-0.054370,0.113036,-1.725097,0.047717,-0.467534,0.028514,0.883515,-0.092936,0.039037,-0.000702,-44.050884,215.867081,-24.523514,,,,,,
1465826365.45,-2.670560,-0.029530,-0.054347,0.084544,-1.527575,0.042192,-0.453609,0.029526,0.890712,-0.080998,0.044205,-0.037455,-45.864315,215.823792,-21.378317,,,,,,
1465826365.46,-2.684890,-0.030279,-0.054235,0.071966,-1.403279,0.020111,-0.440789,0.030274,0.897100,-0.074393,0.026977,-0.042669,-45.864315,215.823792,-21.378317,,,,,,
1465826365.47,-2.697760,-0.030947,-0.054156,0.059385,-1.241888,0.022279,-0.429198,0.030942,0.902680,-0.105195,0.008273,-0.049866,-45.864315,215.823792,-21.378317,,,,,,
1465826365.48,-2.708111,-0.031369,-0.054166,0.031009,-0.951990,0.016175,-0.419827,0.031364,0.907062,-0.129993,0.004265,-0.041156,-46.803841,215.817795,-19.301720,,,,,,
1465826365.49,-2.714473,-0.031469,-0.054165,-0.000368,-0.520850,0.001731,-0.414046,0.031464,0.909712,-0.125672,0.008560,-0.032042,-46.803841,215.817795,-19.301720,,,,,,
1465826365.51,-2.712542,-0.030014,-0.053954,-0.146896,0.439460,-0.137494,-0.415820,0.030009,0.908952,-0.111111,-0.009822,-0.002442,-47.071507,215.819611,-18.618584,,,,,,
1465826365.50,-2.715952,-0.031230,-0.054255,-0.032745,-0.021780,-0.003560,-0.412703,0.031225,0.910330,-0.134050,-0.009283,-0.005881,-47.071507,215.819611,-18.618584,,,,,,
1465826365.52,-2.703549,-0.027339,-0.053666,-0.233489,1.190946,-0.028397,-0.424010,0.027335,0.905245,-0.138978,0.193581,-0.512758,-47.071507,215.819611,-18.618584,,,,,,
1465826365.53,-2.681898,-0.025239,-0.054423,-0.211627,2.411087,-0.087121,-0.443533,0.025236,0.895903,-0.072916,-0.139174,0.437777,-47.071507,215.819611,-18.618584,,,,,,
1465826365.54,-2.656920,-0.023524,-0.054332,-0.134973,2.451318,-0.058557,-0.465790,0.023522,0.884583,0.104110,-0.024514,0.160019,-46.986748,215.812515,-18.912483,,,,,,
1465826365.55,-2.634159,-0.022114,-0.054726,-0.148061,2.230423,-0.040154,-0.485817,0.022112,0.873781,0.075234,-0.032351,0.013716,-46.986748,215.812515,-18.912483,,,,,,
1465826365.56,-2.614762,-0.020751,-0.055073,-0.127325,1.803535,-0.025747,-0.502688,0.020750,0.864219,0.379931,0.035021,0.119179,-46.300964,215.814606,-20.512352,,,,,,
1465826365.57,-2.604879,-0.019993,-0.055299,-0.052119,0.641888,-0.019451,-0.511212,0.019992,0.859222,0.406155,0.011395,0.142777,-46.300964,215.814606,-20.512352,,,,,,
1465826365.58,-2.610565,-0.020308,-0.055180,0.056537,-0.970059,0.018443,-0.506316,0.020306,0.862109,0.239684,-0.003659,-0.114535,-46.300964,215.814606,-20.512352,,,,,,
1465826365.59,-2.630780,-0.021514,-0.054845,0.143187,-2.339834,0.029249,-0.488773,0.021512,0.872146,0.101047,-0.006986,-0.141478,-46.300964,215.814606,-20.512352,,,,,,
1465826365.60,-2.661134,-0.023548,-0.054328,0.218702,-3.211686,0.061403,-0.462058,0.023545,0.886537,-0.103310,-0.036607,-0.163576,-46.272331,215.817810,-20.543236,,,,,,
1465826365.61,-2.691545,-0.025795,-0.054421,0.184895,-2.903910,0.120113,-0.434863,0.025792,0.900127,-0.304730,-0.041493,-0.191097,-46.272331,215.817810,-20.543236,,,,,,
1465826365.62,-2.709314,-0.027082,-0.054562,0.085833,-1.351312,0.040023,-0.418787,0.027079,0.907680,-0.089864,-0.017694,0.086613,-47.115192,215.814545,-18.566563,,,,,,
1465826365.63,-2.712938,-0.027237,-0.054277,0.009779,-0.113047,-0.027428,-0.415493,0.027234,0.909188,0.024655,0.008518,0.227668,-47.115192,215.814545,-18.566563,,,,,,
1465826365.64,-2.710467,-0.026969,-0.054213,-0.030164,0.327571,-0.012136,-0.417742,0.026965,0.908166,-0.183302,-0.026660,0.015418,-47.115192,215.814545,-18.566563,,,,,,
1465826365.65,-2.704799,-0.026415,-0.054337,-0.065950,0.659930,-0.013191,-0.422889,0.026412,0.905797,-0.216729,-0.014876,-0.094563,-47.115192,215.814545,-18.566563,,,,,,
1465826365.66,-2.694741,-0.025379,-0.054551,-0.115387,1.118695,-0.031020,-0.431989,0.025376,0.901522,-0.053591,0.011947,-0.011873,-47.316910,215.812622,-18.069305,,,,,,
1465826365.67,-2.682263,-0.024022,-0.054638,-0.123700,1.239818,-0.058399,-0.443219,0.024019,0.896091,0.117871,0.012953,0.098766,-47.316910,215.812622,-18.069305,,,,,,
1465826365.68,-2.672846,-0.022828,-0.054598,-0.096567,0.809760,-0.050353,-0.451651,0.022826,0.891903,0.137838,0.017671,0.015827,-47.068306,215.818497,-18.639469,,,,,,
1465826365.69,-2.669390,-0.022192,-0.054658,-0.047364,0.189557,-0.015545,-0.454737,0.022190,0.890349,0.101679,-0.005116,-0.031966,-47.068306,215.818497,-18.639469,,,,,,
1465826365.70,-2.672453,-0.022052,-0.054620,0.001847,-0.471974,-0.010283,-0.452009,0.022051,0.891741,0.114103,-0.010927,-0.008867,-47.068306,215.818497,-18.639469,,,,,,
1465826365.71,-2.680146,-0.022401,-0.054536,0.041827,-0.815024,0.016391,-0.445132,0.022399,0.895185,0.007296,-0.014022,-0.086576,-47.068306,215.818497,-18.639469,,,,,,
1465826365.72,-2.687541,-0.022779,-0.054426,0.036683,-0.693937,0.001789,-0.438496,0.022777,0.898444,0.004643,-0.017116,0.008446,-47.204262,215.806320,-18.435709,,,,,,
1465826365.73,-2.692001,-0.023088,-0.054374,0.026449,-0.345693,0.011303,-0.434482,0.023086,0.900385,-0.025769,-0.010970,0.024969,-47.204262,215.806320,-18.435709,,,,,,
1465826365.74,-2.692400,-0.023110,-0.054378,-0.006035,0.053590,-0.001878,-0.434122,0.023108,0.900557,-0.021429,-0.008307,0.047975,-47.386688,215.801163,-18.023315,,,,,,
1465826365.75,-2.690388,-0.022927,-0.054377,-0.018583,0.222447,-0.011465,-0.435936,0.022925,0.899686,-0.013787,0.004694,0.038989,-47.386688,215.801163,-18.023315,,,,,,
1465826365.76,-2.688708,-0.022689,-0.054510,-0.031498,0.148065,0.011342,-0.437449,0.022687,0.898957,-0.020727,0.017489,-0.047669,-47.386688,215.801163,-18.023315,,,,,,
1465826365.77,-2.687236,-0.022347,-0.054916,-0.052799,0.156547,0.019783,-0.438775,0.022345,0.898319,0.123513,0.023828,0.035809,-47.386688,215.801163,-18.023315,,,,,,
1465826365.78,-2.686161,-0.021884,-0.055052,-0.041129,0.065326,-0.015824,-0.439745,0.021883,0.897856,0.075807,0.000029,0.004381,-47.265152,215.825211,-18.054371,,,,,,
1465826365.79,-2.688090,-0.021766,-0.055088,-0.002212,-0.284083,0.006631,-0.438013,0.021764,0.898705,-0.026083,-0.027685,-0.049019,-47.265152,215.825211,-18.054371,,,,,,
1465826365.80,-2.692537,-0.022030,-0.055164,0.025216,-0.469941,0.018468,-0.434010,0.022028,0.900639,-0.007885,-0.012949,-0.005100,-47.301975,215.831238,-17.885330,,,,,,
1465826365.81,-2.696572,-0.022348,-0.055117,0.030699,-0.360549,0.007143,-0.430369,0.022346,0.902376,-0.008291,-0.001869,0.023954,-47.301975,215.831238,-17.885330,,,,,,
1465826365.82,-2.698318,-0.022605,-0.055037,0.024631,-0.107831,0.003423,-0.428790,0.022603,0.903121,-0.012372,-0.007573,0.031480,-47.301975,215.831238,-17.885330,,,,,,
1465826365.83,-2.697606,-0.022667,-0.054998,-0.000622,0.122607,-0.003370,-0.429433,0.022665,0.902814,0.007634,0.001138,0.006716,-47.301975,215.831238,-17.885330,,,,,,
1465826365.84,-2.695468,-0.022427,-0.055074,-0.030300,0.229864,-0.004072,-0.431364,0.022425,0.901899,0.025328,0.007971,-0.007902,-47.404121,215.830780,-17.618294,,,,,,
1465826365.85,-2.693483,-0.022145,-0.055102,-0.023967,0.175727,-0.010113,-0.433157,0.022143,0.901047,0.014288,-0.003726,-0.008224,-47.404121,215.830780,-17.618294,,,,,,
1465826365.86,-2.692877,-0.022018,-0.055076,-0.006069,0.019624,-0.005923,-0.433704,0.022017,0.900787,-0.012753,-0.013457,-0.022552,-47.404121,215.830780,-17.618294,,,,,,
1465826365.87,-2.693419,-0.022120,-0.055085,0.011898,-0.066426,0.007408,-0.433214,0.022118,0.901020,0.006121,-0.009072,0.002820,-47.359657,215.833664,-17.702370,,,,,,
1465826365.88,-2.693881,-0.022278,-0.055066,0.015143,-0.031380,0.003998,-0.432796,0.022276,0.901217,0.022320,-0.003783,0.019804,-47.359657,215.833664,-17.702370,,,,,,
1465826365.89,-2.693865,-0.022422,-0.055027,0.014132,0.007914,0.001622,-0.432809,0.022420,0.901207,0.003549,0.000849,-0.009452,-47.364113,215.832703,-17.702007,,,,,,
1465826365.90,-2.693595,-0.022527,-0.055041,0.005635,0.033386,0.006776,-0.433052,0.022525,0.901088,-0.005227,0.003568,-0.009730,-47.364113,215.832703,-17.702007,,,,,,
1465826365.91,-2.692985,-0.022526,-0.055067,-0.003886,0.071634,0.000140,-0.433601,0.022524,0.900823,0.009223,0.006575,-0.009664,-47.364113,215.832703,-17.702007,,,,,,
