timestamp,attitude_roll,attitude_pitch,attitude_yaw,rotation_rate_x,rotation_rate_y,rotation_rate_z,gravity_x,gravity_y,gravity_z,user_acc_x,user_acc_y,user_acc_z,magnetic_field_x,magnetic_field_y,magnetic_field_z,latitude(degree),longitude(degree),altitude(meter),speed(m/s),course(degree),timestamp
1465825506.41,-0.264567,0.007639,-0.490217,-0.007978,0.163625,-0.007119,-0.261484,-0.007639,-0.965178,-0.054846,-0.004874,-0.038225,16.406963,-2.895919,-36.235329,,,,,,
1465825506.42,-0.262425,0.007621,-0.490325,-0.004572,0.326087,-0.012392,-0.259415,-0.007621,-0.965736,-0.029708,-0.000924,0.011711,16.406963,-2.895919,-36.235329,,,,,,
1465825506.43,-0.257255,0.007558,-0.490483,-0.012784,0.569244,-0.013926,-0.254420,-0.007557,-0.967064,-0.029180,-0.002407,0.014290,16.406963,-2.895919,-36.235329,,,,,,
1465825506.44,-0.250844,0.007477,-0.490658,-0.011616,0.652064,-0.014444,-0.248214,-0.007477,-0.968676,-0.011841,-0.000106,-0.002836,16.546722,-2.889823,-36.172207,,,,,,
1465825506.45,-0.244522,0.007394,-0.490826,-0.012724,0.617025,-0.014225,-0.242086,-0.007394,-0.970227,0.009329,-0.000220,0.002056,16.546722,-2.889823,-36.172207,,,,,,
1465825506.46,-0.238686,0.007287,-0.490977,-0.011788,0.518274,-0.011476,-0.236420,-0.007287,-0.971624,0.025192,0.001153,0.001607,16.546722,-2.889823,-36.172207,,,,,,
1465825506.47,-0.234436,0.007214,-0.491090,-0.009820,0.392974,-0.008559,-0.232288,-0.007214,-0.972620,0.026340,-0.003986,0.001444,16.546722,-2.889823,-36.172207,,,,,,
,,,,,,,,,,,,,,,,29.719984,-95.399046,10.137723,-1.000000,-1.000000,1465825416.83
1465825506.48,-0.231381,0.007126,-0.491171,-0.009967,0.280414,-0.004660,-0.229316,-0.007126,-0.973326,0.024421,-0.001786,0.003279,17.402082,-2.863063,-35.770718,,,,,,
1465825506.49,-0.229091,0.007059,-0.491232,-0.007921,0.215640,-0.003187,-0.227087,-0.007058,-0.973849,0.026571,0.001581,0.012515,17.402082,-2.863063,-35.770718,,,,,,
1465825506.50,-0.226617,0.006908,-0.491277,-0.003721,0.168923,-0.002890,-0.224677,-0.006908,-0.974409,0.037650,0.005534,0.023237,17.402082,-2.863063,-35.770718,,,,,,
1465825506.51,-0.225830,0.006892,-0.491283,-0.000693,0.041496,0.001105,-0.223910,-0.006891,-0.974585,0.031100,0.005961,0.004584,17.833044,-2.843816,-35.559372,,,,,,
1465825506.52,-0.226631,0.006895,-0.491263,0.001235,-0.117778,0.003171,-0.224691,-0.006895,-0.974406,0.022557,0.003446,-0.006948,17.833044,-2.843816,-35.559372,,,,,,
1465825506.53,-0.228489,0.006920,-0.491204,0.004323,-0.198483,0.005809,-0.226501,-0.006920,-0.973986,0.018050,0.002922,0.002551,17.833044,-2.843816,-35.559372,,,,,,
1465825506.54,-0.230287,0.006989,-0.491127,0.005386,-0.198485,0.006874,-0.228252,-0.006989,-0.973577,0.015346,-0.001693,0.012930,17.832493,-2.843775,-35.559654,,,,,,
1465825506.55,-0.232294,0.007015,-0.491050,0.004313,-0.204855,0.006913,-0.230205,-0.007015,-0.973117,0.016658,-0.001316,0.008471,17.832493,-2.843775,-35.559654,,,,,,
1465825506.56,-0.234721,0.007053,-0.490957,0.006374,-0.257949,0.008313,-0.232566,-0.007053,-0.972555,0.020682,0.000278,0.002767,17.832493,-2.843775,-35.559654,,,,,,
,,,,,,,,,,,,,,,,29.719986,-95.399048,10.137723,-1.000000,-1.000000,1465825506.57
,,,,,,,,,,,,,,,,29.719984,-95.399046,10.137723,-1.000000,-1.000000,1465825416.83
1465825506.57,-0.237928,0.007107,-0.490843,0.008396,-0.341836,0.009905,-0.235684,-0.007107,-0.971804,0.020123,0.001080,0.002123,17.543568,-2.856402,-35.702072,,,,,,
,,,,,,,,,,,,,,,,29.719987,-95.399050,10.137723,-1.000000,-1.000000,1465825506.58
1465825506.58,-0.241757,0.007142,-0.490712,0.009360,-0.420411,0.011463,-0.239403,-0.007142,-0.970894,0.012368,0.001466,0.002007,17.543568,-2.856402,-35.702072,,,,,,
1465825506.59,-0.246319,0.007215,-0.490573,0.010372,-0.462884,0.011731,-0.243830,-0.007214,-0.969791,0.005670,0.001309,-0.002545,17.291361,-2.865333,-35.824188,,,,,,
1465825506.60,-0.250913,0.007291,-0.490433,0.011449,-0.453328,0.011672,-0.248282,-0.007291,-0.968660,-0.000025,-0.000338,0.003817,17.291361,-2.865333,-35.824188,,,,,,
1465825506.61,-0.255151,0.007348,-0.490300,0.008303,-0.415102,0.011429,-0.252384,-0.007348,-0.967599,-0.002987,0.000604,0.004419,17.291361,-2.865333,-35.824188,,,,,,
1465825506.62,-0.259180,0.007368,-0.490165,0.009396,-0.390684,0.012342,-0.256281,-0.007367,-0.966574,-0.000586,0.002271,0.002448,16.962063,-2.876986,-35.980343,,,,,,
1465825506.63,-0.263039,0.007416,-0.490037,0.009401,-0.389617,0.010206,-0.260009,-0.007416,-0.965578,0.003845,0.000733,0.002763,16.962063,-2.876986,-35.980343,,,,,,
1465825506.64,-0.267051,0.007466,-0.489906,0.010441,-0.407671,0.011385,-0.263881,-0.007466,-0.964526,0.002620,0.000874,0.000324,16.962063,-2.876986,-35.980343,,,,,,
1465825506.65,-0.271321,0.007529,-0.489764,0.009346,-0.429971,0.012588,-0.267996,-0.007529,-0.963391,-0.003046,-0.001779,-0.002704,16.962063,-2.876986,-35.980343,,,,,,
1465825506.66,-0.275537,0.007592,-0.489622,0.009365,-0.415106,0.012495,-0.272056,-0.007592,-0.962251,-0.005974,-0.002662,-0.004729,16.378033,-2.895689,-36.248428,,,,,,
1465825506.67,-0.279356,0.007648,-0.489495,0.008364,-0.369439,0.009014,-0.275728,-0.007648,-0.961205,-0.007979,-0.003659,0.001626,16.378033,-2.895689,-36.248428,,,,,,
1465825506.68,-0.282818,0.007694,-0.489387,0.007358,-0.322720,0.008720,-0.279054,-0.007694,-0.960244,-0.003981,0.000263,0.000467,16.378033,-2.895689,-36.248428,,,,,,
1465825506.69,-0.285882,0.007741,-0.489284,0.007385,-0.301484,0.008587,-0.281995,-0.007741,-0.959385,-0.000826,0.002080,0.004673,15.803371,-2.915843,-36.501026,,,,,,
1465825506.70,-0.288882,0.007796,-0.489173,0.009511,-0.302549,0.009660,-0.284872,-0.007796,-0.958534,0.010397,0.004119,0.005683,15.803371,-2.915843,-36.501026,,,,,,
1465825506.71,-0.292212,0.007876,-0.489035,0.012647,-0.347150,0.011007,-0.288062,-0.007876,-0.957579,0.016135,0.002169,0.005217,15.803371,-2.915843,-36.501026,,,,,,
1465825506.72,-0.295730,0.007919,-0.488888,0.012567,-0.408735,0.012458,-0.291429,-0.007919,-0.956560,0.024294,0.002090,0.009386,15.803371,-2.915843,-36.501026,,,,,,
1465825506.73,-0.300441,0.008008,-0.488716,0.014587,-0.495856,0.015134,-0.295932,-0.008008,-0.955175,0.034168,-0.000567,0.011206,15.329691,-2.935402,-36.700920,,,,,,
1465825506.74,-0.306295,0.008106,-0.488509,0.015495,-0.619028,0.016972,-0.301518,-0.008106,-0.953426,0.039265,0.000568,0.011226,15.329691,-2.935402,-36.700920,,,,,,
1465825506.75,-0.313200,0.008202,-0.488265,0.017453,-0.750700,0.020993,-0.308094,-0.008202,-0.951321,0.039204,0.001274,0.009869,15.329691,-2.935402,-36.700920,,,,,,
1465825506.76,-0.321477,0.008319,-0.487960,0.021562,-0.862206,0.027019,-0.315957,-0.008318,-0.948737,0.047082,0.002307,0.017539,14.940333,-2.950746,-36.859913,,,,,,
1465825506.77,-0.330991,0.008465,-0.487625,0.025663,-0.987500,0.027809,-0.324969,-0.008465,-0.945687,0.052080,0.001140,0.019265,14.940333,-2.950746,-36.859913,,,,,,
,,,,,,,,,,,,,,,,29.720013,-95.399057,10.116499,-1.000000,-1.000000,1465825506.78
1465825506.78,-0.342044,0.008623,-0.487227,0.027581,-1.147848,0.034138,-0.335401,-0.008623,-0.942036,0.058622,0.001665,0.016575,14.940333,-2.950746,-36.859913,,,,,,
1465825506.80,-0.369745,0.009001,-0.486252,0.038761,-1.560915,0.044191,-0.361363,-0.009001,-0.932382,0.081898,0.001967,0.022287,13.610657,-2.999089,-37.367485,,,,,,
1465825506.79,-0.354789,0.008801,-0.486774,0.033746,-1.320934,0.038423,-0.347379,-0.008801,-0.937684,0.074551,0.001736,0.029145,13.610657,-2.999089,-37.367485,,,,,,
1465825506.81,-0.387334,0.009220,-0.485647,0.043744,-1.825318,0.050112,-0.377705,-0.009220,-0.925880,0.083241,0.002644,0.029121,13.610657,-2.999089,-37.367485,,,,,,
1465825506.82,-0.407610,0.009445,-0.484961,0.047660,-2.091845,0.056046,-0.396398,-0.009444,-0.918030,0.076391,0.001968,0.018036,12.568470,-3.035383,-37.727890,,,,,,
1465825506.83,-0.430122,0.009691,-0.484192,0.053787,-2.293602,0.061575,-0.416962,-0.009691,-0.908872,0.055649,0.000582,0.019208,12.568470,-3.035383,-37.727890,,,,,,
1465825506.84,-0.453819,0.009924,-0.483390,0.055803,-2.382797,0.063201,-0.438380,-0.009923,-0.898735,0.036326,-0.002573,0.020637,12.568470,-3.035383,-37.727890,,,,,,
1465825506.86,-0.501315,0.010301,-0.481755,0.052699,-2.307414,0.064854,-0.480554,-0.010301,-0.876905,-0.019904,-0.003371,0.005597,12.568470,-3.035383,-37.727890,,,,,,
1465825506.85,-0.477872,0.010135,-0.482575,0.055774,-2.406157,0.063347,-0.459867,-0.010135,-0.887930,0.003706,-0.001309,0.007192,12.568470,-3.035383,-37.727890,,,,,,
1465825506.87,-0.522889,0.010423,-0.480936,0.048686,-2.107799,0.065727,-0.499358,-0.010423,-0.866333,0.011138,0.002457,0.048721,7.501635,-3.189187,-39.040085,,,,,,
1465825506.88,-0.543878,0.010531,-0.480171,0.049754,-2.115214,0.059388,-0.517430,-0.010531,-0.855661,0.021046,0.006838,0.013299,7.501635,-3.189187,-39.040085,,,,,,
1465825506.89,-0.566090,0.010670,-0.479376,0.055966,-2.256437,0.060279,-0.536305,-0.010669,-0.843957,0.008122,0.001194,-0.012412,7.501635,-3.189187,-39.040085,,,,,,
1465825506.90,-0.588832,0.010772,-0.478557,0.052745,-2.272371,0.063569,-0.555358,-0.010772,-0.831542,0.023528,0.003554,0.030852,7.501635,-3.189187,-39.040085,,,,,,
1465825506.91,-0.611802,0.010835,-0.477754,0.049504,-2.311653,0.062748,-0.574310,-0.010835,-0.818566,0.013611,-0.000212,0.012627,4.054199,-3.284627,-39.539200,,,,,,
1465825506.92,-0.635384,0.010865,-0.476957,0.047319,-2.356248,0.063026,-0.593451,-0.010864,-0.804797,-0.047540,-0.005051,-0.032667,4.054199,-3.284627,-39.539200,,,,,,
1465825506.93,-0.657330,0.010885,-0.476211,0.046576,-2.107771,0.056144,-0.610969,-0.010885,-0.791579,-0.079582,-0.002375,-0.014664,4.054199,-3.284627,-39.539200,,,,,,
1465825506.95,-0.687467,0.010836,-0.475143,0.025468,-1.131926,0.036165,-0.634544,-0.010836,-0.772811,-0.111702,-0.002211,-0.006730,2.206467,-3.327998,-39.681602,,,,,,
1465825506.94,-0.674908,0.010858,-0.475614,0.033341,-1.634183,0.046774,-0.624789,-0.010858,-0.780718,-0.107267,-0.003058,-0.004758,2.206467,-3.327998,-39.681602,,,,,,
1465825506.96,-0.695866,0.010801,-0.474788,0.017433,-0.756029,0.028477,-0.641013,-0.010801,-0.767454,-0.081124,-0.004168,-0.001635,2.206467,-3.327998,-39.681602,,,,,,
1465825506.97,-0.702185,0.010812,-0.474477,0.019796,-0.574454,0.024148,-0.645850,-0.010812,-0.763388,-0.007211,-0.002372,0.020224,-0.200943,-3.380993,-39.737923,,,,,,
1465825506.98,-0.708975,0.010777,-0.474182,0.015334,-0.733729,0.027271,-0.651018,-0.010776,-0.758985,0.010409,0.000233,-0.001085,-0.200943,-3.380993,-39.737923,,,,,,
1465825506.99,-0.718256,0.010728,-0.473854,0.019280,-0.984313,0.027782,-0.658034,-0.010728,-0.752912,0.011947,0.002015,-0.036151,-0.200943,-3.380993,-39.737923,,,,,,
1465825507.00,-0.728423,0.010703,-0.473503,0.020324,-1.001302,0.027890,-0.665656,-0.010703,-0.746182,-0.010812,0.000861,-0.006625,-0.723179,-3.395571,-39.730602,,,,,,
1465825507.01,-0.736906,0.010692,-0.473189,0.021665,-0.787869,0.022295,-0.671962,-0.010692,-0.740509,0.004771,0.004329,0.028900,-0.723179,-3.395571,-39.730602,,,,,,
1465825507.02,-0.743860,0.010648,-0.472928,0.014344,-0.682747,0.021628,-0.677095,-0.010648,-0.735819,-0.009993,0.003247,0.015756,-0.723179,-3.395571,-39.730602,,,,,,
1465825507.03,-0.750915,0.010628,-0.472672,0.017496,-0.717785,0.020786,-0.682269,-0.010628,-0.731024,-0.001233,0.000969,-0.009272,-2.111368,-3.423377,-39.678665,,,,,,
1465825507.04,-0.758474,0.010596,-0.472384,0.017439,-0.760263,0.023182,-0.687776,-0.010596,-0.725846,-0.004790,-0.000375,-0.006088,-2.111368,-3.423377,-39.678665,,,,,,
1465825507.05,-0.765964,0.010543,-0.472095,0.017472,-0.731598,0.024066,-0.693193,-0.010543,-0.720674,0.004320,0.002669,0.012697,-2.111368,-3.423377,-39.678665,,,,,,
1465825507.06,-0.773104,0.010513,-0.471820,0.017505,-0.709294,0.021798,-0.698321,-0.010513,-0.715707,0.005450,0.004516,0.014749,-2.692232,-3.435567,-39.642433,,,,,,
1465825507.07,-0.780238,0.010455,-0.471572,0.010048,-0.712476,0.021810,-0.703410,-0.010454,-0.710707,0.004298,0.001345,0.001540,-2.692232,-3.435567,-39.642433,,,,,,
1465825507.08,-0.787383,0.010394,-0.471301,0.016430,-0.715667,0.022901,-0.708470,-0.010394,-0.705664,0.016164,0.003695,0.011755,-2.692232,-3.435567,-39.642433,,,,,,
1465825507.09,-0.794792,0.010348,-0.471004,0.018509,-0.756017,0.023156,-0.713680,-0.010347,-0.700396,0.026378,0.001848,0.015398,-3.839636,-3.456769,-39.545944,,,,,,
1465825507.10,-0.803122,0.010303,-0.470688,0.021564,-0.863266,0.025961,-0.719489,-0.010302,-0.694427,0.032111,0.000689,0.006790,-3.839636,-3.456769,-39.545944,,,,,,
1465825507.11,-0.812678,0.010244,-0.470335,0.023536,-0.984322,0.029915,-0.726093,-0.010243,-0.687520,0.033802,-0.001033,0.002065,-3.839636,-3.456769,-39.545944,,,,,,
1465825507.12,-0.823165,0.010179,-0.469945,0.025557,-1.067149,0.032566,-0.733263,-0.010178,-0.679869,0.031115,0.001893,0.009092,-4.462988,-3.469486,-39.479336,,,,,,
1465825507.13,-0.834230,0.010114,-0.469535,0.027629,-1.114928,0.031803,-0.740742,-0.010114,-0.671714,0.029560,0.003568,0.012122,-4.462988,-3.469486,-39.479336,,,,,,
1465825507.14,-0.845646,0.010045,-0.469117,0.026518,-1.149970,0.033086,-0.748362,-0.010045,-0.663215,0.035029,0.004140,0.020484,-4.462988,-3.469486,-39.479336,,,,,,
1465825507.15,-0.857800,0.009964,-0.468652,0.029592,-1.239175,0.037906,-0.756368,-0.009964,-0.654070,0.039464,0.000366,0.017138,-6.140959,-3.501363,-39.250511,,,,,,
1465825507.16,-0.871065,0.009852,-0.468183,0.029441,-1.358100,0.039716,-0.764978,-0.009852,-0.643981,0.048578,-0.000646,0.014541,-6.140959,-3.501363,-39.250511,,,,,,
1465825507.17,-0.885840,0.009753,-0.467651,0.034566,-1.514190,0.041765,-0.774410,-0.009753,-0.632609,0.047573,0.000598,0.011729,-6.140959,-3.501363,-39.250511,,,,,,
1465825507.18,-0.901957,0.009617,-0.467093,0.034412,-1.632059,0.045697,-0.784506,-0.009617,-0.620047,0.027365,-0.002575,-0.005106,-7.138844,-3.519080,-39.079746,,,,,,
1465825507.19,-0.918249,0.009460,-0.466508,0.035488,-1.618265,0.048805,-0.794504,-0.009460,-0.607185,0.024149,0.001327,0.015647,-7.138844,-3.519080,-39.079746,,,,,,
1465825507.20,-0.934287,0.009291,-0.465930,0.037639,-1.601277,0.048701,-0.804141,-0.009291,-0.594366,0.027636,0.002913,0.024008,-7.138844,-3.519080,-39.079746,,,,,,
1465825507.21,-0.950703,0.009114,-0.465311,0.040754,-1.660746,0.051206,-0.813790,-0.009114,-0.581087,0.033791,0.003026,0.020403,-9.599135,-3.558877,-38.545620,,,,,,
1465825507.22,-0.968339,0.008915,-0.464682,0.040583,-1.795597,0.053116,-0.823913,-0.008915,-0.566647,0.021072,0.002476,-0.004139,-9.599135,-3.558877,-38.545620,,,,,,
1465825507.23,-0.986511,0.008718,-0.464041,0.041638,-1.805151,0.052112,-0.834075,-0.008718,-0.551582,0.011489,0.005270,-0.000038,-9.599135,-3.558877,-38.545620,,,,,,
1465825507.24,-1.003982,0.008519,-0.463427,0.038539,-1.730821,0.050579,-0.843585,-0.008519,-0.536928,0.020236,0.007344,0.030306,-10.909063,-3.578916,-38.193680,,,,,,
1465825507.25,-1.021314,0.008286,-0.462819,0.039617,-1.720204,0.050513,-0.852766,-0.008286,-0.522228,0.001661,0.001541,0.003139,-10.909063,-3.578916,-38.193680,,,,,,
1465825507.26,-1.038375,0.008081,-0.462222,0.040714,-1.697901,0.048245,-0.861553,-0.008081,-0.507604,-0.003377,0.002466,0.000265,-10.909063,-3.578916,-38.193680,,,,,,
1465825507.27,-1.054837,0.007874,-0.461655,0.038684,-1.622506,0.045642,-0.869793,-0.007874,-0.493355,-0.015644,-0.000275,-0.005394,-13.561394,-3.615575,-37.330818,,,,,,
1465825507.28,-1.070028,0.007674,-0.461111,0.036736,-1.481279,0.042625,-0.877188,-0.007674,-0.480085,-0.013116,-0.000536,0.009138,-13.561394,-3.615575,-37.330818,,,,,,
1465825507.29,-1.084268,0.007457,-0.460605,0.035773,-1.399520,0.042111,-0.883937,-0.007457,-0.467547,-0.002233,0.002483,0.016375,-13.561394,-3.615575,-37.330818,,,,,,
1465825507.30,-1.098371,0.007250,-0.460088,0.035750,-1.418633,0.042231,-0.890444,-0.007250,-0.455036,0.011812,0.001711,0.004047,-14.738934,-3.631155,-36.880241,,,,,,
1465825507.31,-1.113084,0.007018,-0.459578,0.035654,-1.492962,0.043762,-0.897044,-0.007018,-0.441886,0.020197,0.000640,0.004142,-14.738934,-3.631155,-36.880241,,,,,,
1465825507.32,-1.128525,0.006766,-0.459038,0.037702,-1.554553,0.046279,-0.903761,-0.006766,-0.427984,0.023726,-0.000909,0.002966,-14.738934,-3.631155,-36.880241,,,,,,
1465825507.33,-1.144315,0.006497,-0.458474,0.040852,-1.586415,0.048611,-0.910408,-0.006497,-0.413661,0.037697,0.002011,0.021724,-16.875538,-3.655749,-35.950317,,,,,,
1465825507.34,-1.160781,0.006200,-0.457884,0.041800,-1.674554,0.052358,-0.917097,-0.006199,-0.398616,0.048063,0.004384,0.029399,-16.875538,-3.655749,-35.950317,,,,,,
1465825507.35,-1.178861,0.005845,-0.457276,0.043697,-1.852949,0.057736,-0.924156,-0.005845,-0.381971,0.050972,-0.000549,0.008741,-16.875538,-3.655749,-35.950317,,,,,,
1465825507.36,-1.198476,0.005446,-0.456600,0.049900,-1.994184,0.062886,-0.931472,-0.005446,-0.363772,0.061050,0.000640,0.021105,-18.029510,-3.667534,-35.384453,,,,,,
1465825507.37,-1.219615,0.004997,-0.455899,0.050750,-2.158776,0.068177,-0.938955,-0.004997,-0.344003,0.083608,0.001045,0.028345,-18.029510,-3.667534,-35.384453,,,,,,
1465825507.38,-1.243191,0.004468,-0.455120,0.057842,-2.431689,0.079476,-0.946806,-0.004468,-0.321773,0.098295,0.003140,0.031658,-19.354244,-3.676893,-34.676613,,,,,,
1465825507.39,-1.269907,0.003861,-0.454211,0.069136,-2.753441,0.088956,-0.955066,-0.003861,-0.296368,0.130557,0.004945,0.046521,-19.354244,-3.676893,-34.676613,,,,,,
1465825507.40,-1.300955,0.003151,-0.453204,0.079163,-3.237646,0.098389,-0.963808,-0.003151,-0.266577,0.166979,0.011589,0.068793,-19.354244,-3.676893,-34.676613,,,,,,
1465825507.41,-1.337828,0.002301,-0.452080,0.090106,-3.834414,0.112788,-0.972983,-0.002301,-0.230866,0.155570,0.008710,0.035935,-22.811104,-3.692339,-32.505287,,,,,,
1465825507.42,-1.379894,0.001314,-0.450842,0.103333,-4.309073,0.125358,-0.981833,-0.001314,-0.189745,0.136099,0.013948,0.037218,-22.811104,-3.692339,-32.505287,,,,,,
1465825507.43,-1.425251,0.000183,-0.449545,0.110413,-4.592601,0.135659,-0.989427,-0.000183,-0.145032,0.114381,0.009857,0.059857,-22.811104,-3.692339,-32.505287,,,,,,
1465825507.44,-1.472726,-0.001028,-0.448281,0.110144,-4.809206,0.135952,-0.995194,0.001028,-0.097913,0.106919,0.011927,0.083265,-25.311510,-3.695631,-30.598097,,,,,,
1465825507.45,-1.522212,-0.002365,-0.447016,0.117390,-4.967431,0.141210,-0.998817,0.002365,-0.048565,0.037468,0.006805,0.031017,-25.311510,-3.695631,-30.598097,,,,,,
1465825507.46,-1.572275,-0.003747,-0.445794,0.120543,-5.000349,0.141419,-0.999992,0.003747,0.001479,0.030921,0.012763,0.054338,-25.311510,-3.695631,-30.598097,,,,,,
1465825507.47,-1.622103,-0.005159,-0.444652,0.116325,-4.974851,0.136997,-0.998671,0.005159,0.051283,0.003294,0.012282,0.057588,-25.311510,-3.695631,-30.598097,,,,,,
1465825507.48,-1.671574,-0.006632,-0.443608,0.115303,-4.938753,0.137834,-0.994904,0.006632,0.100605,-0.015884,0.001837,0.042614,-30.713566,-3.667780,-25.175346,,,,,,
1465825507.49,-1.720438,-0.008115,-0.442626,0.115402,-4.863358,0.135233,-0.988792,0.008115,0.149079,-0.049828,0.002811,0.027160,-30.713566,-3.667780,-25.175346,,,,,,
1465825507.50,-1.767444,-0.009593,-0.441781,0.106123,-4.632923,0.126327,-0.980682,0.009592,0.195373,-0.089325,-0.007319,0.008209,-30.713566,-3.667780,-25.175346,,,,,,
1465825507.51,-1.810976,-0.011006,-0.441041,0.101298,-4.245344,0.117505,-0.971236,0.011005,0.237863,-0.127610,-0.002628,0.003684,-35.031231,-3.589593,-18.721684,,,,,,
1465825507.52,-1.849825,-0.012294,-0.440452,0.089148,-3.754771,0.109094,-0.961251,0.012294,0.275402,-0.153007,-0.004924,-0.005504,-35.031231,-3.589593,-18.721684,,,,,,
1465825507.53,-1.883020,-0.013492,-0.439951,0.080303,-3.183487,0.094858,-0.951566,0.013492,0.307147,-0.149462,-0.006610,-0.001819,-35.031231,-3.589593,-18.721684,,,,,,
1465825507.54,-1.911781,-0.014521,-0.439594,0.063779,-2.790585,0.082797,-0.942326,0.014521,0.334380,-0.143169,0.000189,-0.005767,-36.461189,-3.540123,-15.767785,,,,,,
1465825507.55,-1.937113,-0.015374,-0.439304,0.055744,-2.429527,0.065622,-0.933543,0.015374,0.358136,-0.181524,-0.001183,-0.072705,-36.461189,-3.540123,-15.767785,,,,,,
1465825507.56,-1.956147,-0.016055,-0.439075,0.040716,-1.697902,0.048245,-0.926547,0.016054,0.375835,-0.212048,-0.007662,-0.069454,-36.461189,-3.540123,-15.767785,,,,,,
1465825507.57,-1.966919,-0.016490,-0.438932,0.026854,-0.883460,0.031415,-0.922439,0.016489,0.385792,-0.178117,0.003820,-0.000141,-37.939209,-3.459318,-11.799301,,,,,,
1465825507.58,-1.971559,-0.016694,-0.438859,0.013711,-0.350387,0.013156,-0.920636,0.016693,0.390066,-0.149204,0.004379,-0.017156,-37.939209,-3.459318,-11.799301,,,,,,
1465825507.59,-1.972657,-0.016796,-0.438808,0.003463,-0.040321,0.005879,-0.920205,0.016795,0.391076,-0.122443,-0.002071,-0.030068,-38.118324,-3.445114,-11.211520,,,,,,
1465825507.60,-1.971434,-0.016811,-0.438774,0.003739,0.170992,-0.000768,-0.920682,0.016810,0.389951,-0.068606,0.005742,-0.020581,-38.118324,-3.445114,-11.211520,,,,,,
1465825507.61,-1.968790,-0.016778,-0.438805,-0.006760,0.285678,-0.003627,-0.921711,0.016777,0.387515,-0.032711,-0.004005,0.004651,-38.118324,-3.445114,-11.211520,,,,,,
1465825507.62,-1.965859,-0.016750,-0.438832,-0.003569,0.286733,-0.001502,-0.922843,0.016749,0.384812,-0.001519,-0.004420,0.013351,-38.118324,-3.445114,-11.211520,,,,,,
1465825507.63,-1.963581,-0.016752,-0.438866,-0.001552,0.203899,0.003278,-0.923717,0.016751,0.382709,0.020900,-0.001431,0.013013,-38.053947,-3.444093,-11.428422,,,,,,
1465825507.64,-1.962450,-0.016802,-0.438859,0.004680,0.080724,0.005121,-0.924149,0.016801,0.381663,0.032898,-0.006471,0.012578,-38.053947,-3.444093,-11.428422,,,,,,
1465825507.65,-1.962401,-0.016921,-0.438830,0.008802,-0.016984,0.013189,-0.924165,0.016920,0.381618,0.037218,-0.002409,0.010747,-38.053947,-3.444093,-11.428422,,,,,,
1465825507.66,-1.962948,-0.017079,-0.438812,0.008735,-0.070075,0.013522,-0.923954,0.017078,0.382122,0.050099,-0.004917,0.029789,-38.014961,-3.441788,-11.558129,,,,,,
1465825507.67,-1.964716,-0.017324,-0.438786,0.012779,-0.228309,0.023034,-0.923273,0.017324,0.383753,0.085352,0.002360,0.049917,-38.014961,-3.441788,-11.558129,,,,,,
1465825507.68,-1.969388,-0.017678,-0.438729,0.020866,-0.558557,0.033629,-0.921465,0.017677,0.388060,0.114534,0.001778,0.042451,-38.014961,-3.441788,-11.558129,,,,,,
1465825507.69,-1.978313,-0.018186,-0.438625,0.033056,-1.010917,0.046058,-0.917956,0.018185,0.396265,0.133029,0.002811,0.030157,-38.096863,-3.418155,-11.292429,,,,,,
1465825507.70,-1.991868,-0.018862,-0.438485,0.044171,-1.468592,0.060648,-0.912489,0.018861,0.408666,0.143278,0.001205,0.030497,-38.096863,-3.418155,-11.292429,,,,,,
1465825507.71,-2.009952,-0.019716,-0.438296,0.056356,-1.923079,0.074155,-0.904935,0.019714,0.425093,0.162625,0.005432,0.048418,-38.096863,-3.418155,-11.292429,,,,,,
1465825507.72,-2.033208,-0.020730,-0.438107,0.063105,-2.473117,0.085063,-0.894787,0.020728,0.446012,0.175228,0.002724,0.059390,-38.344456,-3.387928,-10.430645,,,,,,
1465825507.73,-2.062130,-0.021964,-0.437885,0.081555,-3.017875,0.104465,-0.881492,0.021962,0.471688,0.141609,0.009639,0.021171,-38.344456,-3.387928,-10.430645,,,,,,
1465825507.74,-2.095506,-0.023350,-0.437672,0.086342,-3.437304,0.112422,-0.865233,0.023348,0.500825,0.140181,0.005171,0.036131,-38.747898,-3.340032,-8.832796,,,,,,
1465825507.75,-2.132665,-0.024841,-0.437493,0.093312,-3.812142,0.121166,-0.846000,0.024839,0.532604,0.121116,0.011126,0.065388,-38.747898,-3.340032,-8.832796,,,,,,
1465825507.76,-2.173245,-0.026459,-0.437375,0.101425,-4.125454,0.131654,-0.823662,0.026456,0.566463,0.085579,0.009631,0.020924,-38.747898,-3.340032,-8.832796,,,,,,
1465825507.77,-2.215955,-0.028126,-0.437300,0.101191,-4.313391,0.131768,-0.798688,0.028122,0.601087,0.058530,0.010529,0.044481,-38.747898,-3.340032,-8.832796,,,,,,
1465825507.78,-2.259889,-0.029880,-0.437314,0.107447,-4.411094,0.137709,-0.771479,0.029876,0.635554,0.021509,0.010286,0.038000,-39.615562,-3.182323,-3.324692,,,,,,
1465825507.79,-2.304330,-0.031607,-0.437391,0.107404,-4.450372,0.134762,-0.742442,0.031601,0.669164,0.010966,0.010925,0.071146,-39.615562,-3.182323,-3.324692,,,,,,
1465825507.80,-2.349129,-0.033332,-0.437527,0.107357,-4.487535,0.134995,-0.711690,0.033326,0.701703,-0.041499,0.009963,0.026767,-39.615562,-3.182323,-3.324692,,,,,,
1465825507.81,-2.393133,-0.035018,-0.437736,0.107536,-4.350554,0.130943,-0.680094,0.035011,0.732289,-0.026465,0.012246,0.071605,-39.601532,-2.966992,3.672796,,,,,,
1465825507.82,-2.435297,-0.036540,-0.438009,0.091810,-4.173193,0.118106,-0.648587,0.036531,0.760264,-0.081943,0.009749,0.011816,-39.601532,-2.966992,3.672796,,,,,,
1465825507.83,-2.475339,-0.037981,-0.438307,0.093186,-3.932153,0.112338,-0.617599,0.037972,0.785576,-0.106934,0.004234,0.007210,-39.601532,-2.966992,3.672796,,,,,,
1465825507.84,-2.511638,-0.039282,-0.438634,0.080954,-3.511649,0.101173,-0.588654,0.039272,0.807431,-0.097183,0.002034,0.030856,-39.145752,-2.856145,7.072908,,,,,,
1465825507.85,-2.543430,-0.040407,-0.438975,0.070871,-3.073099,0.090961,-0.562666,0.040396,0.825697,-0.129305,0.000131,-0.003401,-39.145752,-2.856145,7.072908,,,,,,
1465825507.86,-2.571338,-0.041383,-0.439285,0.059649,-2.702489,0.075852,-0.539384,0.041371,0.841043,-0.180297,-0.004933,-0.064432,-39.145752,-2.856145,7.072908,,,,,,
1465825507.88,-2.611155,-0.042727,-0.439761,0.033631,-1.419742,0.040105,-0.505449,0.042714,0.861798,-0.182402,0.000422,-0.020200,-37.835648,-2.674886,12.324057,,,,,,
1465825507.87,-2.594865,-0.042158,-0.439562,0.050713,-2.207649,0.059966,-0.519433,0.042146,0.853471,-0.201575,-0.001008,-0.057145,-37.835648,-2.674886,12.324057,,,,,,
1465825507.89,-2.619217,-0.042973,-0.439890,0.012314,-0.613779,0.019063,-0.498480,0.042960,0.865836,-0.189920,0.000070,-0.039878,-37.318253,-2.621484,13.822071,,,,,,
1465825507.90,-2.620317,-0.043004,-0.439920,-0.002800,0.044591,-0.001048,-0.497526,0.042991,0.866383,-0.172304,-0.000526,-0.056416,-37.318253,-2.621484,13.822071,,,,,,
1465825507.91,-2.606811,-0.042485,-0.439463,-0.014858,0.592579,-0.020464,-0.509194,0.042473,0.859603,-0.163231,-0.005226,-0.058059,-37.318253,-2.621484,13.822071,,,,,,
1465825507.93,-2.581359,-0.041548,-0.439149,-0.041097,1.706488,-0.050894,-0.530925,0.041537,0.846400,-0.127949,-0.002016,-0.011760,-37.190865,-2.608948,14.163571,,,,,,
1465825507.92,-2.596965,-0.042111,-0.439345,-0.029084,1.119267,-0.033362,-0.517640,0.042099,0.854562,-0.154113,-0.004699,-0.045449,-37.190865,-2.608948,14.163571,,,,,,
1465825507.94,-2.560261,-0.040792,-0.438898,-0.053190,2.233180,-0.065919,-0.548681,0.040780,0.835037,-0.119105,0.005118,-0.015869,-37.190865,-2.608948,14.163571,,,,,,
1465825507.95,-2.534467,-0.039855,-0.438625,-0.065373,2.692971,-0.077330,-0.570056,0.039845,0.820639,-0.067578,0.010891,0.014993,-37.190865,-2.608948,14.163571,,,,,,
1465825507.96,-2.504786,-0.038768,-0.438353,-0.076639,3.034900,-0.088001,-0.594184,0.038759,0.803395,-0.027871,0.013335,0.028163,-37.967911,-2.702824,11.904032,,,,,,
1465825507.97,-2.473450,-0.037596,-0.438106,-0.077550,3.153829,-0.090877,-0.619091,0.037588,0.784419,-0.009647,0.007365,0.021413,-37.967911,-2.702824,11.904032,,,,,,
1465825507.98,-2.441950,-0.036374,-0.437876,-0.082879,3.141104,-0.096125,-0.643518,0.036366,0.764566,-0.018316,0.001613,0.007727,-37.967911,-2.702824,11.904032,,,,,,
1465825507.99,-2.410223,-0.035145,-0.437667,-0.077488,3.196312,-0.095401,-0.667478,0.035137,0.743800,-0.006274,-0.000027,0.046895,-39.097206,-2.864602,7.333237,,,,,,
1465825508.00,-2.376998,-0.033875,-0.437467,-0.081523,3.365159,-0.102851,-0.691847,0.033869,0.721249,0.033919,0.007757,0.084903,-39.097206,-2.864602,7.333237,,,,,,
1465825508.01,-2.342480,-0.032569,-0.437330,-0.082470,3.461777,-0.101329,-0.716357,0.032563,0.696973,0.081424,0.012969,0.097506,-39.097206,-2.864602,7.333237,,,,,,
1465825508.02,-2.309148,-0.031240,-0.437229,-0.082712,3.264291,-0.103284,-0.739218,0.031235,0.672741,0.065543,0.018616,0.035831,-39.484779,-2.951790,4.776266,,,,,,
1465825508.03,-2.278558,-0.029988,-0.437202,-0.079861,3.002004,-0.094185,-0.759477,0.029983,0.649843,0.094453,0.021653,0.054290,-39.484779,-2.951790,4.776266,,,,,,
1465825508.04,-2.249795,-0.028741,-0.437158,-0.076875,2.825760,-0.099463,-0.777881,0.028737,0.627754,0.122089,0.020107,0.093895,-39.484779,-2.951790,4.776266,,,,,,
1465825508.05,-2.223571,-0.027568,-0.437191,-0.072983,2.548601,-0.088141,-0.794099,0.027564,0.607163,0.122819,0.011712,0.062988,-39.758972,-3.117575,-0.280064,,,,,,
1465825508.06,-2.200327,-0.026508,-0.437188,-0.060593,2.244911,-0.083031,-0.808020,0.026504,0.588558,0.137168,0.010056,0.081898,-39.758972,-3.117575,-0.280064,,,,,,
1465825508.07,-2.180509,-0.025556,-0.437258,-0.058928,1.888121,-0.072276,-0.819545,0.025553,0.572445,0.138271,0.007345,0.057743,-39.758972,-3.117575,-0.280064,,,,,,
1465825508.08,-2.164269,-0.024747,-0.437293,-0.045538,1.539822,-0.062627,-0.828750,0.024744,0.559072,0.144515,0.010290,0.069544,-39.690853,-3.185519,-2.249968,,,,,,
1465825508.09,-2.151318,-0.024049,-0.437354,-0.042770,1.211703,-0.053115,-0.835935,0.024047,0.548301,0.164976,0.012208,0.075524,-39.690853,-3.185519,-2.249968,,,,,,
1465825508.10,-2.142019,-0.023480,-0.437385,-0.031556,0.828363,-0.042184,-0.841009,0.023478,0.540512,0.171346,0.006734,0.074295,-39.690853,-3.185519,-2.249968,,,,,,
1465825508.11,-2.137314,-0.023090,-0.437421,-0.020468,0.349452,-0.027461,-0.843550,0.023088,0.536554,0.166762,0.005507,0.059745,-39.484379,-3.273669,-4.565134,,,,,,
1465825508.12,-2.137541,-0.022886,-0.437413,-0.007270,-0.146446,-0.013693,-0.843432,0.022884,0.536748,0.155002,-0.005596,0.057246,-39.484379,-3.273669,-4.565134,,,,,,
1465825508.13,-2.142553,-0.022895,-0.437403,0.003832,-0.611559,0.003073,-0.840731,0.022893,0.540968,0.154559,-0.005544,0.055940,-39.484379,-3.273669,-4.565134,,,,,,
1465825508.14,-2.151738,-0.023087,-0.437366,0.016072,-1.019333,0.018416,-0.835723,0.023085,0.548665,0.139373,-0.007963,0.058726,-39.461945,-3.291224,-4.743048,,,,,,
1465825508.15,-2.164763,-0.023451,-0.437318,0.026235,-1.389933,0.030330,-0.828499,0.023449,0.559499,0.119927,-0.011334,0.054011,-39.461945,-3.291224,-4.743048,,,,,,
1465825508.16,-2.181016,-0.023966,-0.437254,0.036477,-1.697888,0.041852,-0.819287,0.023963,0.572883,0.100476,-0.003440,0.038643,-39.461945,-3.291224,-4.743048,,,,,,
1465825508.17,-2.199617,-0.024621,-0.437210,0.043652,-1.902848,0.053789,-0.808476,0.024619,0.588013,0.085591,-0.008017,0.051315,-39.633408,-3.262040,-3.020880,,,,,,
1465825508.18,-2.219631,-0.025347,-0.437181,0.046673,-2.034525,0.058876,-0.796532,0.025345,0.604064,0.085183,-0.004013,0.059449,-39.633408,-3.262040,-3.020880,,,,,,
1465825508.19,-2.241245,-0.026176,-0.437182,0.051767,-2.205499,0.067404,-0.783275,0.026174,0.621124,0.070079,-0.004018,0.044113,-39.633408,-3.262040,-3.020880,,,,,,
1465825508.20,-2.264744,-0.027084,-0.437207,0.056843,-2.394517,0.073917,-0.768445,0.027081,0.639342,0.054838,-0.000989,0.028489,-39.723915,-3.221374,-1.485596,,,,,,
1465825508.21,-2.289614,-0.028042,-0.437249,0.058826,-2.511316,0.074651,-0.752289,0.028038,0.658236,0.057602,0.005257,0.044584,-39.723915,-3.221374,-1.485596,,,,,,
1465825508.22,-2.315583,-0.029012,-0.437302,0.061877,-2.623872,0.076425,-0.734923,0.029008,0.677530,0.008376,0.002715,0.001914,-39.723915,-3.221374,-1.485596,,,,,,
1465825508.23,-2.341750,-0.029988,-0.437382,0.059791,-2.590952,0.075152,-0.716924,0.029984,0.696506,0.003759,0.015213,0.012082,-39.692307,-3.105609,2.334414,,,,,,
1465825508.24,-2.366202,-0.030881,-0.437499,0.051523,-2.396629,0.070732,-0.699661,0.030876,0.713807,0.020950,0.012566,0.054152,-39.692307,-3.105609,2.334414,,,,,,
1465825508.25,-2.389498,-0.031684,-0.437653,0.046309,-2.321218,0.062802,-0.682827,0.031678,0.729893,-0.003330,0.021544,0.014400,-39.692307,-3.105609,2.334414,,,,,,
1465825508.26,-2.412708,-0.032425,-0.437769,0.046329,-2.313771,0.057433,-0.665688,0.032419,0.745526,-0.045341,0.008566,-0.030636,-39.527832,-3.043133,4.343208,,,,,,
1465825508.27,-2.434676,-0.033103,-0.437909,0.041225,-2.143871,0.053169,-0.649136,0.033097,0.759952,-0.059177,-0.004533,-0.004443,-39.527832,-3.043133,4.343208,,,,,,
1465825508.28,-2.453745,-0.033716,-0.438035,0.037377,-1.817892,0.050057,-0.634515,0.033710,0.772175,-0.084250,-0.015491,0.001553,-39.527832,-3.043133,4.343208,,,,,,
1465825508.29,-2.468905,-0.034257,-0.438163,0.032576,-1.411202,0.041114,-0.622725,0.034250,0.781691,-0.077501,-0.019785,0.015169,-39.003498,-2.942389,7.787377,,,,,,
1465825508.30,-2.480134,-0.034722,-0.438263,0.028796,-1.034251,0.035553,-0.613898,0.034715,0.788621,-0.064401,-0.008363,0.011031,-39.003498,-2.942389,7.787377,,,,,,
1465825508.31,-2.488446,-0.035090,-0.438345,0.020606,-0.786823,0.025478,-0.607315,0.035083,0.793686,-0.049485,0.002042,-0.008439,-39.003498,-2.942389,7.787377,,,,,,
1465825508.32,-2.495256,-0.035356,-0.438414,0.015467,-0.646650,0.020336,-0.601890,0.035349,0.797796,-0.063454,0.012243,-0.046637,-38.786835,-2.905701,8.815439,,,,,,
1465825508.33,-2.500233,-0.035505,-0.438458,0.007230,-0.437445,0.009435,-0.597909,0.035498,0.800778,-0.067710,0.007746,-0.034817,-38.786835,-2.905701,8.815439,,,,,,
1465825508.34,-2.502161,-0.035552,-0.438475,0.001273,-0.101897,0.002003,-0.596363,0.035545,0.801928,-0.071087,0.003670,-0.015963,-38.786835,-2.905701,8.815439,,,,,,
1465825508.35,-2.497267,-0.035066,-0.438350,-0.005676,0.287825,-0.007901,-0.600290,0.035059,0.799014,-0.062628,-0.005442,0.005262,-38.585266,-2.874800,9.668846,,,,,,
1465825508.36,-2.491801,-0.034874,-0.438309,-0.014821,0.626562,-0.016421,-0.604653,0.034867,0.795726,-0.056175,-0.002153,-0.002192,-38.585266,-2.874800,9.668846,,,,,,
1465825508.37,-2.483487,-0.034604,-0.438239,-0.018731,0.894156,-0.024490,-0.611253,0.034597,0.790679,-0.035124,0.000330,0.001161,-38.585266,-2.874800,9.668846,,,,,,
1465825508.38,-2.473123,-0.034262,-0.438171,-0.024886,1.076795,-0.027770,-0.619422,0.034255,0.784311,-0.016137,0.006852,0.003211,-38.681740,-2.899851,9.267555,,,,,,
1465825508.39,-2.461527,-0.033850,-0.438070,-0.025808,1.180870,-0.034811,-0.628484,0.033843,0.777086,-0.004588,0.004990,0.002486,-38.681740,-2.899851,9.267555,,,,,,
1465825508.40,-2.449245,-0.033386,-0.437968,-0.029979,1.245650,-0.038415,-0.637990,0.033380,0.769320,-0.018946,0.002402,-0.008380,-38.681740,-2.899851,9.267555,,,,,,
1465825508.41,-2.435736,-0.032884,-0.437852,-0.030851,1.394312,-0.042541,-0.648335,0.032878,0.760645,-0.022655,0.001744,0.005240,-39.037350,-2.954244,7.611259,,,,,,
1465825508.42,-2.420061,-0.032319,-0.437749,-0.038006,1.630039,-0.045091,-0.660191,0.032314,0.750403,-0.015652,-0.000133,0.026499,-39.037350,-2.954244,7.611259,,,,,,
1465825508.43,-2.402102,-0.031679,-0.437625,-0.040918,1.843483,-0.053884,-0.673574,0.031674,0.738441,0.007284,0.006794,0.038628,-39.037350,-2.954244,7.611259,,,,,,
1465825508.44,-2.382847,-0.031005,-0.437523,-0.042925,1.941170,-0.054499,-0.687681,0.031000,0.725351,0.016370,0.003561,0.034369,-39.240196,-2.992577,6.467245,,,,,,
1465825508.45,-2.363338,-0.030302,-0.437421,-0.043973,1.950733,-0.056688,-0.701715,0.030298,0.711813,0.042779,0.009848,0.036127,-39.240196,-2.992577,6.467245,,,,,,
1465825508.46,-2.344543,-0.029641,-0.437338,-0.041920,1.891266,-0.055249,-0.714983,0.029637,0.698513,0.072985,0.006587,0.056080,-39.240196,-2.992577,6.467245,,,,,,
1465825508.47,-2.326883,-0.028984,-0.437282,-0.040023,1.712870,-0.049870,-0.727221,0.028980,0.685792,0.080919,0.010998,0.041381,-39.609543,-3.085349,3.484007,,,,,,
1465825508.48,-2.311465,-0.028397,-0.437221,-0.034984,1.488822,-0.046331,-0.737720,0.028393,0.674509,0.065433,0.008991,0.019781,-39.609543,-3.085349,3.484007,,,,,,
1465825508.49,-2.297518,-0.027818,-0.437179,-0.036192,1.375209,-0.045620,-0.747068,0.027815,0.664166,0.052808,0.007342,0.026813,-39.609543,-3.085349,3.484007,,,,,,
1465825508.50,-2.283890,-0.027280,-0.437163,-0.037212,1.410247,-0.045841,-0.756060,0.027277,0.653933,0.069537,0.011786,0.059873,-39.699993,-3.126584,2.169922,,,,,,
1465825508.51,-2.269689,-0.026727,-0.437138,-0.034024,1.410237,-0.042644,-0.765282,0.026723,0.643140,0.106667,0.010356,0.087069,-39.699993,-3.126584,2.169922,,,,,,
1465825508.52,-2.257235,-0.026219,-0.437148,-0.032206,1.169195,-0.036873,-0.773242,0.026216,0.633569,0.115329,0.006545,0.056403,-39.699993,-3.126584,2.169922,,,,,,
1465825508.53,-2.248472,-0.025837,-0.437147,-0.021000,0.777364,-0.026953,-0.778772,0.025834,0.626775,0.103876,0.002548,0.023127,-39.753777,-3.195408,0.010769,,,,,,
1465825508.54,-2.243333,-0.025583,-0.437150,-0.015033,0.453490,-0.017465,-0.781988,0.025581,0.622769,0.101263,0.000848,0.028782,-39.753777,-3.195408,0.010769,,,,,,
1465825508.55,-2.240407,-0.025434,-0.437159,-0.007853,0.245355,-0.009765,-0.783810,0.025432,0.620480,0.101345,-0.000056,0.042499,-39.753777,-3.195408,0.010769,,,,,,
1465825508.56,-2.239174,-0.025372,-0.437144,-0.001677,0.082884,-0.004483,-0.784576,0.025370,0.619514,0.098342,0.001898,0.049416,-39.748497,-3.214899,-0.543156,,,,,,
1465825508.57,-2.239694,-0.025410,-0.437149,0.002336,-0.099771,0.005183,-0.784253,0.025407,0.619921,0.093808,-0.000443,0.044889,-39.748497,-3.214899,-0.543156,,,,,,
1465825508.58,-2.242237,-0.025525,-0.437146,0.009522,-0.307897,0.009688,-0.782671,0.025522,0.621912,0.090990,0.000845,0.035940,-39.748497,-3.214899,-0.543156,,,,,,
1465825508.59,-2.246893,-0.025715,-0.437130,0.014575,-0.517086,0.015263,-0.779763,0.025712,0.625546,0.086495,0.001250,0.033221,-39.747719,-3.216799,-0.586828,,,,,,
1465825508.60,-2.253510,-0.025998,-0.437140,0.019644,-0.708234,0.023918,-0.775601,0.025995,0.630688,0.082089,0.000998,0.032475,-39.747719,-3.216799,-0.586828,,,,,,
1465825508.61,-2.261799,-0.026361,-0.437144,0.023694,-0.866459,0.030237,-0.770339,0.026358,0.637089,0.076141,0.001321,0.029690,-39.747719,-3.216799,-0.586828,,,,,,
1465825508.62,-2.271780,-0.026801,-0.437164,0.026724,-0.991764,0.034219,-0.763934,0.026798,0.644738,0.074648,0.003049,0.036857,-39.752979,-3.202423,-0.137745,,,,,,
1465825508.63,-2.282751,-0.027279,-0.437166,0.030799,-1.135116,0.037251,-0.756804,0.027275,0.653072,0.068755,0.003929,0.034764,-39.752979,-3.202423,-0.137745,,,,,,
1465825508.64,-2.295300,-0.027789,-0.437184,0.033792,-1.292270,0.040369,-0.748539,0.027786,0.662508,0.041279,0.001786,0.008161,-39.752979,-3.202423,-0.137745,,,,,,
1465825508.65,-2.308741,-0.028358,-0.437199,0.036911,-1.347494,0.043911,-0.739555,0.028355,0.672498,0.014305,-0.004719,-0.003553,-39.728378,-3.146202,1.526793,,,,,,
1465825508.66,-2.321630,-0.028909,-0.437219,0.037031,-1.249812,0.044363,-0.730815,0.028905,0.681964,-0.000676,-0.010686,0.024961,-39.728378,-3.146202,1.526793,,,,,,
1465825508.67,-2.332905,-0.029478,-0.437260,0.035108,-1.085231,0.043329,-0.723067,0.029473,0.690149,0.007750,-0.008966,0.037879,-39.728378,-3.146202,1.526793,,,,,,
1465825508.68,-2.343023,-0.030027,-0.437293,0.035222,-0.996037,0.041705,-0.716036,0.030022,0.697417,0.018542,-0.000573,0.038651,-39.677048,-3.110866,2.574465,,,,,,
1465825508.69,-2.353221,-0.030557,-0.437351,0.033042,-1.036384,0.041956,-0.708875,0.030552,0.704672,0.034086,0.012630,0.008661,-39.677048,-3.110866,2.574465,,,,,,
1465825508.70,-2.364461,-0.031106,-0.437406,0.030782,-1.147861,0.038395,-0.700898,0.031101,0.712583,0.036500,0.024136,-0.004499,-39.677048,-3.110866,2.574465,,,,,,
1465825508.71,-2.376517,-0.031566,-0.437462,0.028578,-1.213680,0.034548,-0.692247,0.031561,0.720970,0.020540,0.024347,-0.019142,-39.535599,-3.038574,4.275160,,,,,,
1465825508.72,-2.388116,-0.031956,-0.437526,0.021239,-1.127661,0.030808,-0.683829,0.031951,0.728942,0.006232,0.023515,-0.015060,-39.535599,-3.038574,4.275160,,,,,,
1465825508.73,-2.397825,-0.032260,-0.437593,0.017263,-0.911037,0.024123,-0.676713,0.032255,0.735540,-0.014999,0.014407,0.000376,-39.535599,-3.038574,4.275160,,,,,,
1465825508.74,-2.405016,-0.032491,-0.437648,0.009077,-0.656183,0.016130,-0.671402,0.032486,0.740381,-0.022843,0.009812,0.010183,-39.425461,-3.009362,5.210590,,,,,,
1465825508.75,-2.409970,-0.032606,-0.437676,0.006160,-0.445927,0.008422,-0.667722,0.032600,0.743696,-0.024203,0.008827,-0.003889,-39.425461,-3.009362,5.210590,,,,,,
1465825508.76,-2.413125,-0.032663,-0.437692,0.003192,-0.275028,0.004153,-0.665372,0.032657,0.745798,-0.032062,-0.000476,-0.002664,-39.333153,-2.989837,5.876867,,,,,,
1465825508.77,-2.414644,-0.032672,-0.437701,-0.000858,-0.111502,0.000994,-0.664238,0.032666,0.746807,-0.033318,-0.005124,-0.003857,-39.333153,-2.989837,5.876867,,,,,,
1465825508.78,-2.412968,-0.032539,-0.437641,-0.003829,0.059469,-0.004339,-0.665491,0.032533,0.745696,-0.031881,-0.000642,0.003465,-39.333153,-2.989837,5.876867,,,,,,
1465825508.79,-2.411019,-0.032450,-0.437629,-0.005728,0.241041,-0.006544,-0.666946,0.032445,0.744400,-0.025803,-0.003194,0.001404,-39.333153,-2.989837,5.876867,,,,,,
1465825508.80,-2.407306,-0.032300,-0.437608,-0.009760,0.415191,-0.011898,-0.669708,0.032294,0.741922,-0.013306,0.004113,-0.000620,-39.285248,-2.988568,6.189623,,,,,,
1465825508.81,-2.402006,-0.032098,-0.437584,-0.013820,0.567043,-0.017112,-0.673636,0.032093,0.738367,-0.011499,0.000454,0.002295,-39.285248,-2.988568,6.189623,,,,,,
1465825508.83,-2.387607,-0.031517,-0.437494,-0.014591,0.794281,-0.022796,-0.684210,0.031512,0.728604,0.008108,-0.000323,0.016528,-39.319107,-2.996753,5.966665,,,,,,
1465825508.82,-2.395341,-0.031783,-0.437549,-0.015784,0.695528,-0.020049,-0.678549,0.031778,0.733868,-0.004725,-0.000696,0.014774,-39.319107,-2.996753,5.966665,,,,,,
1465825508.84,-2.379257,-0.031264,-0.437438,-0.014532,0.845241,-0.020987,-0.690275,0.031259,0.722872,0.006727,-0.008783,0.021498,-39.319107,-2.996753,5.966665,,,,,,
1465825508.85,-2.370568,-0.031024,-0.437390,-0.013432,0.874968,-0.020108,-0.696535,0.031019,0.716852,0.023409,-0.005903,0.027258,-39.468426,-3.032887,4.859911,,,,,,
1465825508.86,-2.362196,-0.030778,-0.437367,-0.013440,0.871775,-0.017959,-0.702517,0.030773,0.711001,0.046267,-0.002148,0.029401,-39.468426,-3.032887,4.859911,,,,,,
1465825508.87,-2.353936,-0.030577,-0.437342,-0.015614,0.831435,-0.020902,-0.708371,0.030572,0.705178,0.071164,0.016028,0.025321,-39.468426,-3.032887,4.859911,,,,,,
1465825508.89,-2.340245,-0.030108,-0.437302,-0.014880,0.567046,-0.019243,-0.717969,0.030104,0.695424,0.079907,0.031145,0.019466,-39.544388,-3.049625,4.185055,,,,,,
1465825508.88,-2.346347,-0.030351,-0.437325,-0.015749,0.728432,-0.017062,-0.713707,0.030347,0.699787,0.072120,0.014804,0.035107,-39.544388,-3.049625,4.185055,,,,,,
1465825508.90,-2.335747,-0.029878,-0.437304,-0.015076,0.414141,-0.016155,-0.721095,0.029874,0.692192,0.076045,0.023196,0.013084,-39.544388,-3.049625,4.185055,,,,,,
1465825508.91,-2.335880,-0.030098,-0.437402,-0.013081,0.309000,-0.014428,-0.720997,0.030093,0.692284,0.069462,0.006772,0.022071,-39.639114,-3.078889,3.136082,,,,,,
1465825508.92,-2.333358,-0.029961,-0.437395,-0.007857,0.235722,-0.009705,-0.722744,0.029957,0.690466,0.056408,-0.003864,0.030939,-39.639114,-3.078889,3.136082,,,,,,
1465825508.93,-2.331462,-0.029876,-0.437386,-0.003682,0.174126,-0.006121,-0.724054,0.029872,0.689096,0.049722,-0.009562,0.036749,-39.639114,-3.078889,3.136082,,,,,,
1465825508.95,-2.332844,-0.029732,-0.437462,0.001481,0.056228,0.001009,-0.723104,0.029727,0.690099,0.049993,-0.002643,0.025706,-39.646873,-3.074067,3.041248,,,,,,
1465825508.94,-2.330156,-0.029853,-0.437372,-0.000566,0.116778,-0.002565,-0.724954,0.029849,0.688150,0.049036,-0.008914,0.034674,-39.646873,-3.074067,3.041248,,,,,,
1465825508.96,-2.332834,-0.029774,-0.437460,0.002452,-0.017040,0.002534,-0.723110,0.029769,0.690091,0.042553,0.003358,0.020282,-39.646873,-3.074067,3.041248,,,,,,
1465825508.97,-2.333583,-0.029826,-0.437455,0.004484,-0.093493,0.004080,-0.722592,0.029822,0.690631,0.049176,0.009241,0.016369,-39.648193,-3.078193,3.019848,,,,,,
1465825508.98,-2.334953,-0.029888,-0.437453,0.004411,-0.149772,0.005498,-0.721643,0.029884,0.691620,0.051249,0.013665,0.009873,-39.648193,-3.078193,3.019848,,,,,,
1465825508.99,-2.339545,-0.030392,-0.437551,0.003279,-0.201817,0.006889,-0.718449,0.030387,0.694915,0.043217,0.006341,0.015671,-39.648193,-3.078193,3.019848,,,,,,
1465825509.01,-2.347197,-0.031065,-0.437653,0.005300,-0.286778,0.008490,-0.713096,0.031060,0.700378,0.043708,0.008140,0.013398,-39.641937,-3.074850,3.104143,,,,,,
1465825509.00,-2.341898,-0.030461,-0.437558,0.004294,-0.245345,0.005034,-0.716810,0.030456,0.696603,0.049940,0.014618,0.005195,-39.641937,-3.074850,3.104143,,,,,,
1465825509.02,-2.352692,-0.031332,-0.437750,0.005255,-0.326071,0.006608,-0.709231,0.031327,0.704280,0.038241,0.002761,0.016942,-39.641937,-3.074850,3.104143,,,,,,
1465825509.03,-2.358079,-0.031416,-0.437827,0.009431,-0.382375,0.013352,-0.705425,0.031411,0.708089,0.032604,-0.001809,0.008251,-39.584435,-3.022938,3.808926,,,,,,
1465825509.04,-2.363843,-0.031399,-0.437895,0.011497,-0.434409,0.012615,-0.701332,0.031394,0.712143,0.024727,-0.003974,0.012787,-39.584435,-3.022938,3.808926,,,,,,
1465825509.05,-2.369826,-0.031448,-0.437969,0.012491,-0.484333,0.017186,-0.697058,0.031443,0.716325,0.023367,-0.003840,0.007613,-39.584435,-3.022938,3.808926,,,,,,
1465825509.06,-2.376059,-0.031618,-0.438034,0.011382,-0.521498,0.016354,-0.692576,0.031612,0.720652,0.024179,-0.001614,0.004583,-39.539978,-3.017229,4.249720,,,,,,
1465825509.07,-2.382064,-0.032114,-0.438086,0.013477,-0.549109,0.016530,-0.688225,0.032109,0.724787,0.019752,0.007198,-0.006327,-39.539978,-3.017229,4.249720,,,,,,
1465825509.08,-2.387854,-0.032558,-0.438122,0.012441,-0.531051,0.013223,-0.684007,0.032552,0.728749,0.012620,0.006449,-0.005009,-39.539978,-3.017229,4.249720,,,,,,
1465825509.09,-2.392882,-0.032834,-0.438152,0.010392,-0.467343,0.012822,-0.680328,0.032829,0.732172,0.001953,0.002145,-0.002909,-39.429459,-2.975867,5.199572,,,,,,
1465825509.10,-2.396887,-0.033164,-0.438174,0.008377,-0.379206,0.010139,-0.677383,0.033158,0.734883,-0.000748,0.004638,-0.005086,-39.429459,-2.975867,5.199572,,,,,,
1465825509.11,-2.399640,-0.033382,-0.438178,0.006357,-0.295315,0.007482,-0.675352,0.033376,0.736740,-0.010790,0.002680,-0.008331,-39.429459,-2.975867,5.199572,,,,,,
1465825509.12,-2.401449,-0.033561,-0.438176,0.002212,-0.208237,0.004803,-0.674014,0.033555,0.737956,-0.012097,0.002959,-0.009089,-39.382225,-2.955884,5.556696,,,,,,
1465825509.13,-2.402134,-0.033736,-0.438166,0.001278,-0.109476,0.000990,-0.673504,0.033729,0.738413,-0.016361,0.004021,-0.010462,-39.382225,-2.955884,5.556696,,,,,,
1465825509.14,-2.401796,-0.033661,-0.438162,-0.000718,0.002008,0.003482,-0.673756,0.033654,0.738188,-0.016720,-0.002237,-0.006635,-39.382225,-2.955884,5.556696,,,,,,
1465825509.15,-2.400407,-0.033235,-0.438242,-0.005984,0.055095,0.007400,-0.674790,0.033229,0.737261,-0.013427,-0.011974,-0.027498,-39.355431,-2.940897,5.751089,,,,,,
1465825509.16,-2.399414,-0.032889,-0.438194,-0.001541,0.197380,0.003318,-0.675530,0.032883,0.736599,-0.010414,-0.009339,0.042515,-39.355431,-2.940897,5.751089,,,,,,
1465825509.17,-2.396727,-0.032557,-0.438222,-0.007749,0.349203,0.007681,-0.677514,0.032551,0.734789,-0.009910,-0.007237,0.041090,-39.355431,-2.940897,5.751089,,,,,,
1465825509.18,-2.392073,-0.033496,-0.438098,0.006257,0.451180,-0.011037,-0.680905,0.033490,0.731606,0.024655,0.030200,-0.033974,-39.367554,-2.963863,5.655519,,,,,,
1465825509.19,-2.388183,-0.033361,-0.438150,-0.020433,0.399155,-0.007544,-0.683749,0.033355,0.728955,-0.015302,0.003312,0.045429,-39.367554,-2.963863,5.655519,,,,,,
1465825509.20,-2.383764,-0.033079,-0.438088,-0.011918,0.366291,-0.026490,-0.686970,0.033073,0.725933,0.001698,-0.004829,-0.028362,-39.367554,-2.963863,5.655519,,,,,,
1465825509.21,-2.380259,-0.032898,-0.438072,-0.010914,0.341828,-0.011433,-0.689514,0.032892,0.723525,0.069870,0.032247,-0.036559,-39.451382,-2.960666,5.039505,,,,,,
1465825509.22,-2.376845,-0.032684,-0.438052,-0.009823,0.341862,-0.024206,-0.691985,0.032678,0.721172,0.032439,-0.027262,0.025883,-39.451382,-2.960666,5.039505,,,,,,
1465825509.23,-2.374529,-0.032495,-0.438096,-0.009952,0.271724,-0.003542,-0.693658,0.032489,0.719572,0.029244,-0.003925,0.000399,-39.451382,-2.960666,5.039505,,,,,,
1465825509.24,-2.372437,-0.032429,-0.438065,0.002741,0.193165,-0.010488,-0.695163,0.032423,0.718120,0.052768,-0.009306,0.031483,-39.484413,-2.973724,4.765699,,,,,,
1465825509.25,-2.371158,-0.032433,-0.438069,-0.001660,0.101814,0.003919,-0.696081,0.032427,0.717231,0.037252,0.014509,-0.007361,-39.484413,-2.973724,4.765699,,,,,,
1465825509.26,-2.370819,-0.032425,-0.438048,0.005710,0.017957,-0.006192,-0.696324,0.032419,0.716995,0.038793,-0.004359,0.032929,-39.484413,-2.973724,4.765699,,,,,,
1465825509.27,-2.372283,-0.032859,-0.438120,-0.004031,-0.093558,0.004079,-0.695264,0.032853,0.718003,0.049192,0.010878,-0.016145,-39.511864,-2.981807,4.527140,,,,,,
1465825509.28,-2.373739,-0.032922,-0.438113,0.006547,-0.155136,0.000218,-0.694217,0.032916,0.719013,0.051333,0.014096,0.018078,-39.511864,-2.981807,4.527140,,,,,,
1465825509.29,-2.375780,-0.032990,-0.438136,0.005388,-0.216743,0.009118,-0.692746,0.032984,0.720427,0.026685,-0.004251,0.011339,-39.511864,-2.981807,4.527140,,,,,,
1465825509.31,-2.381422,-0.033665,-0.438188,0.003180,-0.278333,0.010569,-0.688655,0.033659,0.724308,0.029094,0.014178,-0.009555,-39.499653,-2.964880,4.643335,,,,,,
1465825509.30,-2.378181,-0.033086,-0.438128,0.005366,-0.244333,0.002905,-0.691012,0.033080,0.722086,0.032763,0.007509,0.012747,-39.499653,-2.964880,4.643335,,,,,,
1465825509.32,-2.384173,-0.033733,-0.438174,0.005332,-0.268763,0.005188,-0.686658,0.033726,0.726198,0.014035,0.007717,0.013258,-39.499653,-2.964880,4.643335,,,,,,
1465825509.33,-2.386756,-0.033783,-0.438204,0.001086,-0.253904,0.008284,-0.684779,0.033777,0.727968,0.003993,-0.008249,-0.001009,-39.450836,-2.938389,5.056772,,,,,,
1465825509.34,-2.389014,-0.033860,-0.438200,0.006462,-0.216735,0.004863,-0.683131,0.033853,0.729510,-0.004506,-0.021265,0.011762,-39.450836,-2.938389,5.056772,,,,,,
1465825509.35,-2.390934,-0.033538,-0.438228,0.005450,-0.167904,0.008812,-0.681737,0.033532,0.730829,0.002309,-0.013619,0.001380,-39.450836,-2.938389,5.056772,,,,,,
1465825509.36,-2.392135,-0.033683,-0.438209,0.014047,-0.103141,0.009479,-0.680855,0.033677,0.731643,-0.009208,-0.012574,0.011628,-39.426208,-2.933829,5.247875,,,,,,
1465825509.37,-2.392699,-0.033814,-0.438205,0.008799,-0.042616,0.009094,-0.680439,0.033808,0.732024,-0.002590,-0.002543,-0.005401,-39.426208,-2.933829,5.247875,,,,,,
1465825509.38,-2.392738,-0.033932,-0.438195,0.007804,0.009419,0.006638,-0.680409,0.033926,0.732047,0.004734,0.010111,-0.003882,-39.426208,-2.933829,5.247875,,,,,,
1465825509.39,-2.392193,-0.034549,-0.438194,0.003612,0.057212,0.003143,-0.680793,0.034542,0.731661,0.007621,0.016834,-0.012224,-39.406532,-2.931723,5.394814,,,,,,
1465825509.40,-2.391275,-0.034919,-0.438186,0.002601,0.099684,0.002877,-0.681455,0.034912,0.731026,0.003706,0.010636,-0.003960,-39.406532,-2.931723,5.394814,,,,,,
1465825509.41,-2.390061,-0.035450,-0.438181,-0.004778,0.144306,-0.005924,-0.682330,0.035443,0.730185,0.018176,0.017673,-0.012656,-39.406532,-2.931723,5.394814,,,,,,
1465825509.43,-2.387027,-0.036376,-0.438186,-0.009988,0.223957,-0.012812,-0.684519,0.036368,0.728087,0.025507,0.014444,-0.003386,-39.416321,-2.901578,5.339314,,,,,,
1465825509.42,-2.388726,-0.036082,-0.438191,-0.006857,0.182533,-0.007228,-0.683288,0.036074,0.729257,0.024948,0.022413,-0.006509,-39.416321,-2.901578,5.339314,,,,,,
1465825509.44,-2.385218,-0.036309,-0.438196,-0.012103,0.236694,-0.011829,-0.685836,0.036301,0.726850,0.025909,0.003006,0.001086,-39.416321,-2.901578,5.339314,,,,,,
1465825509.45,-2.383459,-0.036155,-0.438212,-0.013182,0.221832,-0.013866,-0.687118,0.036148,0.725646,0.024383,0.000962,0.002672,-39.450703,-2.858554,5.103367,,,,,,
1465825509.46,-2.382238,-0.035590,-0.438237,-0.008994,0.176152,-0.007190,-0.688017,0.035582,0.724821,0.016432,-0.015395,0.017900,-39.450703,-2.858554,5.103367,,,,,,
1465825509.47,-2.381457,-0.034934,-0.438243,-0.005871,0.121992,-0.005784,-0.688599,0.034927,0.724300,0.015839,-0.020263,0.014088,-39.450703,-2.858554,5.103367,,,,,,
1465825509.48,-2.381411,-0.034584,-0.438273,0.000420,0.052954,-0.000024,-0.688641,0.034577,0.724277,0.021390,-0.012635,0.012798,-39.464409,-2.879658,4.984137,,,,,,
1465825509.49,-2.381964,-0.034422,-0.438286,0.004591,-0.011830,0.003579,-0.688244,0.034415,0.724662,0.024823,-0.007956,0.005913,-39.464409,-2.879658,4.984137,,,,,,
1465825509.50,-2.383204,-0.034574,-0.438315,0.005589,-0.064925,0.003913,-0.687342,0.034567,0.725511,0.032480,0.002527,0.003844,-39.464409,-2.879658,4.984137,,,,,,
1465825509.51,-2.384644,-0.034879,-0.438336,0.004481,-0.099966,0.004133,-0.686289,0.034872,0.726493,0.030374,0.007945,-0.003959,-39.457737,-2.908945,5.019829,,,,,,
1465825509.52,-2.386329,-0.035380,-0.438368,0.003383,-0.127575,0.004306,-0.685052,0.035373,0.727635,0.029427,0.015897,-0.006062,-39.457737,-2.908945,5.019829,,,,,,
1465825509.53,-2.388097,-0.035660,-0.438398,0.000180,-0.136067,0.003293,-0.683758,0.035653,0.728838,0.022518,0.009712,-0.001116,-39.457737,-2.908945,5.019829,,,,,,
1465825509.54,-2.389815,-0.035912,-0.438417,-0.000877,-0.137119,-0.000958,-0.682498,0.035904,0.730005,0.020419,0.009277,-0.003595,-39.443581,-2.882789,5.144648,,,,,,
1465825509.55,-2.391241,-0.035944,-0.438419,-0.000875,-0.133937,0.000086,-0.681456,0.035936,0.730977,0.005308,0.001036,-0.002171,-39.443581,-2.882789,5.144648,,,,,,
1465825509.56,-2.392650,-0.035928,-0.438424,-0.000869,-0.132869,-0.002049,-0.680425,0.035920,0.731936,0.008810,-0.000001,-0.005649,-39.443581,-2.882789,5.144648,,,,,,
1465825509.57,-2.393891,-0.035596,-0.438424,0.001278,-0.114826,-0.000033,-0.679525,0.035589,0.732789,0.001958,-0.014105,-0.000657,-39.411469,-2.864527,5.394827,,,,,,
1465825509.58,-2.394801,-0.035320,-0.438438,-0.000807,-0.077665,0.000796,-0.678864,0.035313,0.733414,0.000489,-0.011860,0.000793,-39.411469,-2.864527,5.394827,,,,,,
1465825509.59,-2.395258,-0.035061,-0.438452,0.003483,-0.043703,0.005908,-0.678535,0.035054,0.733731,-0.007577,-0.013478,0.003329,-39.411469,-2.864527,5.394827,,,,,,
1465825509.60,-2.395402,-0.035018,-0.438450,0.004597,-0.007597,0.003553,-0.678430,0.035011,0.733830,0.002771,-0.004371,-0.004460,-39.398621,-2.882887,5.478254,,,,,,
1465825509.61,-2.395167,-0.035200,-0.438442,0.002519,0.031694,0.002241,-0.678598,0.035192,0.733666,0.002786,0.005869,-0.002923,-39.398621,-2.882887,5.478254,,,,,,
1465825509.62,-2.394518,-0.035392,-0.438432,0.000434,0.061435,-0.001140,-0.679070,0.035384,0.733220,0.005700,0.007890,-0.011647,-39.398621,-2.882887,5.478254,,,,,,
1465825509.63,-2.393779,-0.035642,-0.438431,-0.002730,0.081616,-0.003398,-0.679606,0.035635,0.732712,0.012598,0.011729,-0.011032,-39.400299,-2.880836,5.467279,,,,,,
1465825509.64,-2.392946,-0.035761,-0.438432,-0.002707,0.099666,-0.003511,-0.680213,0.035753,0.732142,0.014731,0.006498,-0.006846,-39.400299,-2.880836,5.467279,,,,,,
1465825509.65,-2.392004,-0.035701,-0.438416,-0.003743,0.118784,-0.005760,-0.680904,0.035694,0.731503,0.012691,-0.000308,-0.000363,-39.400299,-2.880836,5.467279,,,,,,
1465825509.66,-2.390966,-0.035497,-0.438417,-0.004803,0.126210,-0.003680,-0.681668,0.035490,0.730801,0.012249,-0.006178,0.002323,-39.409561,-2.869447,5.406124,,,,,,
1465825509.67,-2.390102,-0.035393,-0.438432,-0.003749,0.117714,-0.003625,-0.682301,0.035385,0.730214,0.018727,-0.002853,0.002787,-39.409561,-2.869447,5.406124,,,,,,
1465825509.68,-2.389334,-0.035159,-0.438430,0.000473,0.094342,-0.000282,-0.682867,0.035152,0.729696,0.011343,-0.009700,0.005121,-39.409561,-2.869447,5.406124,,,,,,
1465825509.69,-2.388900,-0.035067,-0.438436,0.000437,0.063551,-0.001154,-0.683186,0.035060,0.729402,0.018498,-0.004741,-0.000612,-39.427647,-2.888035,5.262482,,,,,,
1465825509.70,-2.388789,-0.034986,-0.438455,0.001449,0.028498,0.003325,-0.683269,0.034978,0.729328,0.015606,-0.005483,0.001156,-39.427647,-2.888035,5.262482,,,,,,
1465825509.71,-2.389105,-0.035000,-0.438456,0.003537,-0.006542,0.002482,-0.683038,0.034993,0.729544,0.019021,-0.001912,0.001291,-39.427647,-2.888035,5.262482,,,,,,
1465825509.72,-2.389625,-0.035124,-0.438464,0.004567,-0.032030,0.003707,-0.682656,0.035117,0.729896,0.021310,0.002572,-0.005668,-39.430222,-2.892749,5.240536,,,,,,
1465825509.73,-2.390413,-0.035399,-0.438471,0.002421,-0.049013,0.001684,-0.682074,0.035391,0.730426,0.022848,0.010232,-0.002613,-39.430222,-2.892749,5.240536,,,,,,
1465825509.74,-2.391195,-0.035626,-0.438486,0.001339,-0.061758,0.002828,-0.681497,0.035618,0.730954,0.019083,0.008876,-0.007183,-39.430222,-2.892749,5.240536,,,,,,
1465825509.75,-2.392063,-0.035830,-0.438499,-0.002920,-0.069178,-0.001387,-0.680857,0.035822,0.731540,0.019373,0.009970,-0.007724,-39.418831,-2.872261,5.336634,,,,,,
1465825509.76,-2.392942,-0.035938,-0.438514,-0.002923,-0.077731,-0.001335,-0.680211,0.035930,0.732135,0.014837,0.005727,-0.008197,-39.418831,-2.872261,5.336634,,,,,,
1465825509.77,-2.393812,-0.035881,-0.438505,0.000266,-0.079860,-0.000254,-0.679575,0.035873,0.732728,0.008509,-0.003113,-0.005342,-39.418831,-2.872261,5.336634,,,,,,
1465825509.78,-2.394593,-0.035748,-0.438524,-0.002920,-0.071367,0.000754,-0.679006,0.035740,0.733262,0.005834,-0.005955,-0.003953,-39.410118,-2.861964,5.406052,,,,,,
1465825509.79,-2.395201,-0.035611,-0.438538,-0.000773,-0.057565,0.000669,-0.678563,0.035603,0.733678,0.000982,-0.006215,-0.001135,-39.410118,-2.861964,5.406052,,,,,,
1465825509.80,-2.395684,-0.035443,-0.438557,0.000311,-0.038459,0.002678,-0.678213,0.035436,0.734011,0.002752,-0.009069,-0.000780,-39.410118,-2.861964,5.406052,,,,,,
1465825509.81,-2.395902,-0.035325,-0.438562,0.002468,-0.016162,0.002540,-0.678056,0.035318,0.734161,0.003587,-0.006891,-0.003463,-39.394279,-2.876102,5.512932,,,,,,
1465825509.83,-2.395649,-0.035332,-0.438580,0.000390,0.023129,0.001227,-0.678241,0.035324,0.733990,0.002735,-0.000565,-0.005901,-39.394279,-2.876102,5.512932,,,,,,
1465825509.82,-2.395906,-0.035331,-0.438571,-0.000694,0.008264,0.001319,-0.678053,0.035324,0.734164,0.005888,-0.001312,-0.004626,-39.394279,-2.876102,5.512932,,,,,,
1465825509.84,-2.395354,-0.035428,-0.438576,-0.001713,0.039065,-0.002068,-0.678456,0.035420,0.733787,0.010502,0.004787,-0.006675,-39.392876,-2.879184,5.521372,,,,,,
1465825509.85,-2.394887,-0.035572,-0.438576,-0.001699,0.051804,-0.001083,-0.678795,0.035565,0.733466,0.010048,0.007633,-0.009025,-39.392876,-2.879184,5.521372,,,,,,
1465825509.86,-2.394391,-0.035627,-0.438579,-0.001682,0.063486,-0.002220,-0.679157,0.035619,0.733128,0.011493,0.004023,-0.003819,-39.396111,-2.876111,5.499826,,,,,,
1465825509.87,-2.393792,-0.035559,-0.438599,-0.004869,0.068796,-0.002257,-0.679598,0.035551,0.732723,0.011370,-0.000868,-0.005077,-39.396111,-2.876111,5.499826,,,,,,
1465825509.88,-2.393210,-0.035485,-0.438601,-0.002734,0.071983,-0.003339,-0.680026,0.035478,0.732329,0.013629,-0.001771,-0.004134,-39.396111,-2.876111,5.499826,,,,,,
1465825509.89,-2.392666,-0.035292,-0.438616,-0.002750,0.064541,-0.000100,-0.680429,0.035285,0.731964,0.009622,-0.008689,0.001053,-39.407982,-2.873693,5.415375,,,,,,
1465825509.90,-2.392355,-0.035166,-0.438627,-0.000638,0.048615,-0.001062,-0.680660,0.035159,0.731756,0.015849,-0.005847,-0.000036,-39.407982,-2.873693,5.415375,,,,,,
1465825509.91,-2.392174,-0.035153,-0.438653,-0.000673,0.024187,0.001220,-0.680793,0.035145,0.731632,0.012732,-0.001256,-0.003651,-39.407982,-2.873693,5.415375,,,,,,
1465825509.92,-2.392261,-0.035179,-0.438647,0.002494,0.000827,0.000305,-0.680728,0.035172,0.731691,0.014911,0.000076,-0.003725,-39.407982,-2.873693,5.415375,,,,,,
1465825509.93,-2.392518,-0.035232,-0.438633,0.002474,-0.015100,0.000405,-0.680538,0.035224,0.731865,0.015545,0.000893,-0.007393,-39.412605,-2.881974,5.377190,,,,,,
1465825509.94,-2.392893,-0.035326,-0.438644,0.000331,-0.024659,0.001527,-0.680262,0.035319,0.732118,0.017497,0.003896,-0.006684,-39.412605,-2.881974,5.377190,,,,,,
1465825509.95,-2.393343,-0.035367,-0.438658,0.000323,-0.031031,0.001568,-0.679931,0.035359,0.732423,0.013259,0.001079,-0.002885,-39.412605,-2.881974,5.377190,,,,,,
1465825509.96,-2.393831,-0.035416,-0.438654,0.001383,-0.036338,0.000538,-0.679573,0.035408,0.732753,0.015236,0.001533,-0.006328,-39.409485,-2.877516,5.402407,,,,,,
1465825509.97,-2.394335,-0.035458,-0.438663,0.000312,-0.041647,0.000570,-0.679202,0.035450,0.733095,0.011600,0.001293,-0.005311,-39.409485,-2.877516,5.402407,,,,,,
1465825509.98,-2.394843,-0.035423,-0.438667,-0.000762,-0.049079,0.000615,-0.678831,0.035415,0.733440,0.007780,-0.002136,-0.005672,-39.404602,-2.874504,5.439518,,,,,,
1465825509.99,-2.395340,-0.035360,-0.438666,0.001366,-0.050142,0.000624,-0.678467,0.035352,0.733779,0.003648,-0.004576,-0.004577,-39.404602,-2.874504,5.439518,,,,,,
1465825510.00,-2.395828,-0.035310,-0.438663,0.002438,-0.042713,0.001642,-0.678111,0.035303,0.734111,0.006373,-0.004144,-0.004436,-39.404602,-2.874504,5.439518,,,,,,
1465825510.01,-2.396170,-0.035263,-0.438670,0.001396,-0.025721,0.000470,-0.677861,0.035256,0.734345,0.005864,-0.003716,-0.003815,-39.393475,-2.877536,5.517939,,,,,,
1465825510.02,-2.396357,-0.035269,-0.438669,0.003542,-0.010860,0.001444,-0.677724,0.035261,0.734471,0.007161,-0.001311,-0.004261,-39.393475,-2.877536,5.517939,,,,,,
1465825510.03,-2.396370,-0.035370,-0.438666,-0.000686,0.008263,-0.001874,-0.677711,0.035363,0.734477,0.011268,0.005363,-0.008693,-39.393475,-2.877536,5.517939,,,,,,
1465825510.04,-2.396156,-0.035456,-0.438670,-0.002797,0.023129,-0.001969,-0.677867,0.035449,0.734330,0.006511,0.005323,-0.008408,-39.390480,-2.878653,5.538662,,,,,,
1465825510.05,-2.395892,-0.035529,-0.438663,-0.002786,0.029503,-0.003073,-0.678058,0.035521,0.734149,0.010303,0.005937,-0.009448,-39.390480,-2.878653,5.538662,,,,,,
1465825510.06,-2.395603,-0.035473,-0.438660,-0.002783,0.030568,-0.004144,-0.678272,0.035465,0.733955,0.007938,-0.000721,-0.007194,-39.390480,-2.878653,5.538662,,,,,,
1465825510.07,-2.395314,-0.035240,-0.438651,0.001475,0.034804,-0.000974,-0.678490,0.035233,0.733765,0.003059,-0.012711,0.000672,-39.390480,-2.878653,5.538662,,,,,,
1465825510.08,-2.394968,-0.035137,-0.438639,0.001475,0.036924,0.000077,-0.678746,0.035130,0.733532,0.007237,-0.006367,-0.004925,-39.395020,-2.872600,5.509457,,,,,,
1465825510.09,-2.394640,-0.035256,-0.438636,-0.002757,0.049682,-0.005329,-0.678984,0.035249,0.733307,0.019560,0.007461,-0.008911,-39.395020,-2.872600,5.509457,,,,,,
1465825510.10,-2.394218,-0.035338,-0.438638,-0.001735,0.025243,0.001213,-0.679291,0.035330,0.733018,0.005844,0.006006,-0.010911,-39.395020,-2.872600,5.509457,,,,,,
1465825510.11,-2.394308,-0.035400,-0.438652,-0.002823,-0.002350,-0.003937,-0.679224,0.035392,0.733077,0.013117,0.004204,-0.004882,-39.402302,-2.877302,5.454678,,,,,,
1465825510.13,-2.394351,-0.035328,-0.438650,-0.000658,0.026316,-0.004115,-0.679193,0.035320,0.733109,0.022882,0.015720,-0.014679,-39.402302,-2.877302,5.454678,,,,,,
1465825510.12,-2.394468,-0.035053,-0.438645,0.003566,0.011429,0.003432,-0.679114,0.035046,0.733195,0.007056,-0.020443,0.011296,-39.402302,-2.877302,5.454678,,,,,,
1465825510.14,-2.394294,-0.035133,-0.438661,0.001419,0.001864,0.006684,-0.679241,0.035125,0.733075,-0.009968,-0.014205,0.016086,-39.400394,-2.885899,5.463903,,,,,,
1465825510.15,-2.394529,-0.035654,-0.438658,0.001418,-0.020399,-0.005948,-0.679056,0.035647,0.733221,0.039026,0.029005,-0.037771,-39.400394,-2.885899,5.463903,,,,,,
1465825510.16,-2.394914,-0.035473,-0.438651,-0.003931,-0.032091,-0.000558,-0.678778,0.035465,0.733487,-0.001673,-0.011006,0.008472,-39.400394,-2.885899,5.463903,,,,,,
1465825510.17,-2.395234,-0.035430,-0.438654,0.005655,-0.025732,0.001540,-0.678544,0.035423,0.733705,0.011704,-0.002327,-0.008318,-39.398792,-2.872812,5.482315,,,,,,
1465825510.18,-2.395586,-0.035260,-0.438679,-0.000740,-0.026796,0.003669,-0.678290,0.035252,0.733948,-0.003763,-0.012471,0.010192,-39.398792,-2.872812,5.482315,,,,,,
1465825510.19,-2.395883,-0.035328,-0.438690,0.003550,-0.005558,0.001411,-0.678070,0.035321,0.734148,0.022537,0.002521,-0.008730,-39.394745,-2.878681,5.508253,,,,,,
1465825510.20,-2.395869,-0.035648,-0.438712,-0.006031,-0.005552,0.001403,-0.678073,0.035640,0.734130,0.006564,0.018132,-0.014312,-39.394745,-2.878681,5.508253,,,,,,
1465825510.21,-2.396082,-0.035607,-0.438707,-0.002834,-0.004491,0.000335,-0.677917,0.035599,0.734276,0.015762,-0.000992,0.001335,-39.394745,-2.878681,5.508253,,,,,,
1465825510.22,-2.396071,-0.036472,-0.438701,-0.007081,-0.020376,-0.013404,-0.677904,0.036464,0.734245,0.036257,0.051290,-0.058418,-39.394745,-2.878681,5.508253,,,,,,
1465825510.23,-2.396269,-0.036414,-0.438688,-0.007100,-0.023582,-0.005933,-0.677760,0.036406,0.734381,-0.021535,-0.034849,0.036752,-39.394470,-2.840806,5.529835,,,,,,
1465825510.24,-2.396784,-0.036538,-0.438748,0.014111,-0.059747,0.013475,-0.677379,0.036530,0.734727,-0.047536,-0.082368,0.017455,-39.394470,-2.840806,5.529835,,,,,,
1465825510.25,-2.397614,-0.036917,-0.438708,0.035341,-0.090585,0.026463,-0.676759,0.036909,0.735279,-0.029906,-0.091459,0.021435,-39.394470,-2.840806,5.529835,,,,,,
1465825510.26,-2.398340,-0.037361,-0.438708,0.031123,-0.059787,0.025201,-0.676214,0.037353,0.735757,-0.025766,-0.045821,0.031180,-39.390755,-2.837562,5.557903,,,,,,
1465825510.27,-2.398384,-0.037715,-0.438663,0.028038,0.015623,0.017274,-0.676173,0.037706,0.735777,0.039775,0.050856,-0.036467,-39.390755,-2.837562,5.557903,,,,,,
1465825510.28,-2.397702,-0.037807,-0.438671,0.000468,0.083630,0.002982,-0.676672,0.037798,0.735313,0.043265,0.070585,-0.041679,-39.383545,-2.813238,5.621023,,,,,,
1465825510.29,-2.396653,-0.037752,-0.438674,-0.006938,0.105958,-0.006745,-0.677445,0.037743,0.734605,0.033325,0.059059,-0.022782,-39.383545,-2.813238,5.621023,,,,,,
1465825510.30,-2.395677,-0.037712,-0.438663,0.000490,0.094260,-0.001342,-0.678162,0.037703,0.733945,0.014618,0.017595,-0.018689,-39.383545,-2.813238,5.621023,,,,,,
1465825510.31,-2.394957,-0.037745,-0.438652,0.004700,0.063451,0.004177,-0.678689,0.037736,0.733455,-0.007178,-0.035661,0.010761,-39.398933,-2.803586,5.517033,,,,,,
1465825510.32,-2.394503,-0.037892,-0.438640,0.012117,0.041137,0.008582,-0.679019,0.037883,0.733143,-0.011701,-0.039866,0.019024,-39.398933,-2.803586,5.517033,,,,,,
1465825510.33,-2.394059,-0.038035,-0.438624,0.009996,0.044330,0.006431,-0.679340,0.038026,0.732837,0.012974,-0.001298,0.006237,-39.398933,-2.803586,5.517033,,,,,,
1465825510.34,-2.393610,-0.038031,-0.438621,-0.002764,0.044360,-0.002097,-0.679669,0.038022,0.732532,0.043790,0.056385,-0.033771,-39.398933,-2.803586,5.517033,,,,,,
1465825510.35,-2.393219,-0.037827,-0.438622,-0.016593,0.033784,-0.014818,-0.679961,0.037818,0.732272,0.056594,0.072991,-0.043521,-39.410767,-2.794817,5.436363,,,,,,
1465825510.36,-2.393062,-0.037669,-0.438626,-0.011313,0.009342,-0.008273,-0.680080,0.037660,0.732170,0.016628,0.005217,-0.008766,-39.410767,-2.794817,5.436363,,,,,,
1465825510.37,-2.393166,-0.037618,-0.438636,-0.000719,-0.018297,0.001491,-0.680006,0.037609,0.732242,-0.005572,-0.049312,0.023236,-39.410767,-2.794817,5.436363,,,,,,
1465825510.38,-2.393715,-0.037757,-0.438617,0.013042,-0.067173,0.011391,-0.679600,0.037748,0.732611,-0.025188,-0.062330,0.024011,-39.413063,-2.805822,5.414005,,,,,,
1465825510.39,-2.394769,-0.037946,-0.438630,0.012972,-0.119207,0.013847,-0.678822,0.037937,0.733322,-0.013835,-0.039188,0.013855,-39.413063,-2.805822,5.414005,,,,,,
1465825510.40,-2.396200,-0.038217,-0.438606,0.023575,-0.150013,0.017244,-0.677765,0.038207,0.734285,0.000992,-0.011260,-0.010728,-39.413063,-2.805822,5.414005,,,,,,
1465825510.41,-2.397689,-0.038468,-0.438602,0.018256,-0.147884,0.016161,-0.676664,0.038458,0.735287,-0.003832,-0.013541,0.000462,-39.396877,-2.789466,5.538837,,,,,,
1465825510.42,-2.399051,-0.038784,-0.438581,0.025724,-0.130908,0.019255,-0.675654,0.038774,0.736198,-0.012655,-0.017488,-0.001579,-39.396877,-2.789466,5.538837,,,,,,
1465825510.43,-2.400178,-0.039103,-0.438533,0.025761,-0.103298,0.018017,-0.674816,0.039094,0.736950,-0.009083,-0.024048,-0.002545,-39.381931,-2.772646,5.652393,,,,,,
1465825510.44,-2.400906,-0.039445,-0.438477,0.030070,-0.061893,0.018826,-0.674270,0.039435,0.737431,-0.011598,-0.018698,-0.002416,-39.381931,-2.772646,5.652393,,,,,,
1465825510.45,-2.401081,-0.039752,-0.438397,0.026963,-0.002413,0.012064,-0.674132,0.039741,0.737541,-0.002396,-0.007835,-0.005637,-39.381931,-2.772646,5.652393,,,,,,
1465825510.46,-2.400693,-0.039982,-0.438303,0.020650,0.049633,0.006409,-0.674413,0.039971,0.737272,0.008214,0.013145,-0.015058,-39.381931,-2.772646,5.652393,,,,,,
1465825510.48,-2.399003,-0.040131,-0.438161,0.002617,0.087894,-0.003429,-0.675653,0.040121,0.736127,0.013651,0.050456,-0.025083,-39.374207,-2.742737,5.720425,,,,,,
1465825510.47,-2.399895,-0.040105,-0.438217,0.014321,0.086817,-0.000218,-0.674997,0.040094,0.736730,0.009577,0.032752,-0.020010,-39.374207,-2.742737,5.720425,,,,,,
1465825510.49,-2.398314,-0.040064,-0.438120,-0.003795,0.060305,-0.008585,-0.676163,0.040053,0.735663,0.011551,0.052598,-0.026450,-39.374207,-2.742737,5.720425,,,,,,
1465825510.50,-2.398098,-0.039959,-0.438110,-0.008124,0.006152,-0.007185,-0.676324,0.039949,0.735520,-0.002783,0.037719,-0.017975,-39.383766,-2.741722,5.654690,,,,,,
1465825510.51,-2.398605,-0.039860,-0.438130,-0.008227,-0.072427,-0.004564,-0.675954,0.039849,0.735866,-0.027339,0.022498,-0.006893,-39.383766,-2.741722,5.654690,,,,,,
1465825510.52,-2.400075,-0.039788,-0.438176,-0.008360,-0.173307,-0.000738,-0.674873,0.039778,0.736861,-0.039894,0.010271,0.000764,-39.383766,-2.741722,5.654690,,,,,,
1465825510.53,-2.402495,-0.039739,-0.438224,-0.006342,-0.260379,0.000875,-0.673089,0.039729,0.738493,-0.045691,0.001119,-0.010024,-39.377083,-2.751892,5.696144,,,,,,
1465825510.54,-2.405410,-0.039676,-0.438281,-0.008515,-0.295417,0.001092,-0.670936,0.039666,0.740454,-0.040048,0.003791,-0.012365,-39.377083,-2.751892,5.696144,,,,,,
1465825510.55,-2.408171,-0.039604,-0.438360,-0.011668,-0.262500,0.000883,-0.668890,0.039594,0.742306,-0.033456,0.003848,-0.012585,-39.377083,-2.751892,5.696144,,,,,,
1465825510.56,-2.409827,-0.039498,-0.438423,-0.013616,-0.124453,-0.004243,-0.667663,0.039488,0.743416,-0.010285,0.000292,-0.012642,-39.346165,-2.752693,5.905544,,,,,,
1465825510.57,-2.409714,-0.039309,-0.438445,-0.017633,0.058197,-0.011779,-0.667753,0.039299,0.743345,0.030790,-0.000191,-0.019300,-39.346165,-2.752693,5.905544,,,,,,
1465825510.58,-2.407715,-0.039083,-0.438479,-0.019528,0.245075,-0.012953,-0.669243,0.039073,0.742016,0.027199,0.009007,-0.017345,-39.319695,-2.754617,6.078457,,,,,,
1465825510.59,-2.403996,-0.038779,-0.438518,-0.025699,0.409672,-0.019314,-0.672006,0.038769,0.739531,0.041024,-0.000561,-0.003050,-39.319695,-2.754617,6.078457,,,,,,
1465825510.60,-2.398784,-0.038452,-0.438524,-0.024445,0.557268,-0.022367,-0.675860,0.038442,0.736027,0.074587,-0.008367,-0.022938,-39.319695,-2.754617,6.078457,,,,,,
1465825510.61,-2.393314,-0.037847,-0.438573,-0.025374,0.669808,-0.020946,-0.679891,0.037838,0.732336,0.079412,-0.016567,0.008020,-39.382690,-2.784293,5.641375,,,,,,
1465825510.62,-2.386098,-0.037567,-0.438551,-0.018903,0.733516,-0.022403,-0.685165,0.037558,0.727419,0.086471,-0.035071,0.013151,-39.382690,-2.784293,5.641375,,,,,,
1465825510.63,-2.378664,-0.037321,-0.438497,-0.012509,0.745181,-0.018212,-0.690560,0.037312,0.722312,0.112267,-0.030538,0.002419,-39.382690,-2.784293,5.641375,,,,,,
1465825510.64,-2.371219,-0.037073,-0.438430,-0.009288,0.764294,-0.019393,-0.695925,0.037064,0.717157,0.114581,-0.015366,0.000509,-39.449448,-2.810857,5.139458,,,,,,
1465825510.65,-2.363093,-0.036854,-0.438346,-0.009199,0.832255,-0.021948,-0.701735,0.036846,0.711485,0.123625,-0.005916,-0.007520,-39.449448,-2.810857,5.139458,,,,,,
1465825510.66,-2.353868,-0.036593,-0.438250,-0.011168,0.953313,-0.026967,-0.708275,0.036585,0.704987,0.123559,0.012273,-0.005830,-39.449448,-2.810857,5.139458,,,,,,
1465825510.67,-2.343209,-0.036240,-0.438154,-0.019484,1.104111,-0.034308,-0.715759,0.036232,0.697407,0.108642,0.021660,-0.006626,-39.591980,-2.848413,3.864643,,,,,,
1465825510.69,-2.321235,-0.034809,-0.437799,-0.050665,0.839776,-0.046519,-0.730947,0.034802,0.681547,-0.347438,0.127643,0.044375,-39.591980,-2.848413,3.864643,,,,,,
1465825510.68,-2.331170,-0.035630,-0.437953,-0.030969,1.225265,-0.072335,-0.724119,0.035622,0.688755,-0.011431,0.161414,0.048382,-39.591980,-2.848413,3.864643,,,,,,
1465825510.70,-2.319605,-0.034224,-0.438214,-0.079505,-0.043697,-0.016525,-0.732071,0.034217,0.680368,0.195282,0.016244,-0.294077,-39.591980,-2.848413,3.864643,,,,,,
1465825510.71,-2.325040,-0.033623,-0.438108,-0.007845,-0.674377,-0.036980,-0.728378,0.033617,0.684351,0.075607,0.010161,-0.205438,-39.696045,-2.922272,2.501577,,,,,,
1465825510.72,-2.331620,-0.033229,-0.437938,-0.003425,-0.539541,-0.033564,-0.723869,0.033223,0.689138,-0.138436,-0.145894,0.439296,-39.696045,-2.922272,2.501577,,,,,,
1465825510.73,-2.333478,-0.032149,-0.438088,-0.119818,-0.093295,-0.120570,-0.722612,0.032143,0.690506,0.189516,0.202720,-0.289062,-39.696045,-2.922272,2.501577,,,,,,
1465825510.74,-2.333798,-0.032090,-0.437887,0.016231,-0.059769,0.018798,-0.722393,0.032085,0.690738,-0.083988,-0.090236,0.082608,-39.660423,-2.959816,2.977266,,,,,,
1465825510.75,-2.335742,-0.031082,-0.438061,-0.065827,-0.222005,-0.045198,-0.721072,0.031077,0.692163,0.002413,-0.074381,0.065024,-39.660423,-2.959816,2.977266,,,,,,
1465825510.76,-2.338581,-0.030960,-0.437765,0.017113,-0.298593,-0.033992,-0.719106,0.030955,0.694210,-0.013987,-0.130885,0.027134,-39.660423,-2.959816,2.977266,,,,,,
1465825510.77,-2.341629,-0.030913,-0.437838,-0.010639,-0.305035,-0.003110,-0.716988,0.030908,0.696400,0.015450,-0.086084,0.089565,-39.633465,-3.034021,3.249149,,,,,,
1465825510.78,-2.345200,-0.031186,-0.437785,0.030755,-0.384732,0.012333,-0.714491,0.031181,0.698950,0.111235,-0.062660,0.028803,-39.633465,-3.034021,3.249149,,,,,,
1465825510.79,-2.350393,-0.031525,-0.437832,0.013446,-0.572715,0.032655,-0.710844,0.031520,0.702643,0.097318,-0.014964,0.061227,-39.611626,-3.026561,3.511799,,,,,,
1465825510.80,-2.357541,-0.032037,-0.437877,0.036613,-0.758574,0.045552,-0.705792,0.032032,0.707695,0.112072,0.020947,0.072670,-39.611626,-3.026561,3.511799,,,,,,
1465825510.81,-2.366749,-0.032511,-0.437944,0.033150,-0.975178,0.045843,-0.699234,0.032505,0.714153,0.073029,0.014873,0.023029,-39.611626,-3.026561,3.511799,,,,,,
1465825510.82,-2.378140,-0.032909,-0.438011,0.021192,-1.200224,0.029147,-0.691045,0.032903,0.722062,0.016393,0.048411,-0.076829,-39.567291,-2.998040,4.001875,,,,,,
1465825510.83,-2.391065,-0.033278,-0.438064,0.018933,-1.311698,0.024521,-0.681647,0.033272,0.730924,-0.051187,0.039985,-0.087477,-39.567291,-2.998040,4.001875,,,,,,
1465825510.84,-2.403512,-0.033570,-0.438116,0.018003,-1.204455,0.023848,-0.672490,0.033564,0.739345,-0.104717,0.021689,-0.076045,-39.567291,-2.998040,4.001875,,,,,,
1465825510.85,-2.413830,-0.033763,-0.438162,0.010856,-0.965537,0.019149,-0.664822,0.033757,0.746239,-0.149296,-0.005650,-0.078270,-39.567291,-2.998040,4.001875,,,,,,
1465825510.86,-2.421350,-0.033883,-0.438258,-0.000493,-0.675659,0.017320,-0.659188,0.033877,0.751214,-0.135794,-0.016360,-0.080438,-39.345211,-2.944871,5.818565,,,,,,
1465825510.87,-2.424774,-0.033894,-0.438295,-0.002009,-0.213727,-0.002610,-0.656612,0.033887,0.753467,-0.082005,-0.028791,0.030179,-39.345211,-2.944871,5.818565,,,,,,
1465825510.88,-2.423461,-0.033848,-0.438315,-0.006796,0.225841,0.002080,-0.657602,0.033841,0.752605,-0.084235,-0.040433,0.011875,-39.345211,-2.944871,5.818565,,,,,,
1465825510.90,-2.415142,-0.033694,-0.438339,-0.008639,0.445650,-0.004623,-0.663844,0.033688,0.747112,-0.036062,0.007404,-0.033382,-39.222340,-2.931311,6.602209,,,,,,
1465825510.89,-2.419621,-0.033776,-0.438357,-0.006536,0.419113,-0.007648,-0.660489,0.033769,0.750076,-0.022373,-0.010789,-0.020172,-39.222340,-2.931311,6.602209,,,,,,
1465825510.91,-2.410950,-0.033582,-0.438343,-0.005473,0.421230,-0.005531,-0.666972,0.033576,0.744326,-0.025777,0.007516,-0.023424,-39.222340,-2.931311,6.602209,,,,,,
1465825510.92,-2.406321,-0.033411,-0.438298,-0.013892,0.482848,-0.016571,-0.670414,0.033405,0.741235,-0.011257,-0.000858,-0.015389,-39.275665,-2.935430,6.275272,,,,,,
1465825510.93,-2.400854,-0.033219,-0.438293,-0.010597,0.568843,-0.013913,-0.674461,0.033213,0.737563,-0.019204,-0.017298,-0.002471,-39.275665,-2.935430,6.275272,,,,,,
1465825510.94,-2.394350,-0.033004,-0.438237,-0.013646,0.670802,-0.023071,-0.679248,0.032998,0.733166,0.015415,0.001884,0.000446,-39.328835,-2.945184,5.928102,,,,,,
1465825510.95,-2.387417,-0.032820,-0.438200,-0.010443,0.690951,-0.014679,-0.684319,0.032814,0.728444,0.005395,-0.015617,0.007564,-39.328835,-2.945184,5.928102,,,,,,
1465825510.96,-2.380877,-0.032640,-0.438171,-0.008382,0.634677,-0.015388,-0.689073,0.032635,0.723957,0.021501,-0.020702,0.006283,-39.328835,-2.945184,5.928102,,,,,,
1465825510.97,-2.375346,-0.032540,-0.438143,-0.004271,0.522115,-0.011485,-0.693069,0.032534,0.720137,0.029724,-0.019579,-0.006865,-39.465057,-2.972080,4.924370,,,,,,
1465825510.98,-2.370999,-0.032514,-0.438119,0.000901,0.403188,-0.009670,-0.696193,0.032509,0.717118,0.044917,-0.011619,0.007491,-39.465057,-2.972080,4.924370,,,,,,
1465825510.99,-2.367991,-0.032588,-0.438107,0.006041,0.266195,-0.002419,-0.698345,0.032582,0.715019,0.053402,-0.008366,-0.002373,-39.465057,-2.972080,4.924370,,,,,,
1465825511.00,-2.366327,-0.032752,-0.438100,0.012240,0.132375,0.009071,-0.699530,0.032747,0.713852,0.042227,-0.005662,0.011612,-39.465057,-2.972080,4.924370,,,,,,
1465825511.01,-2.366047,-0.032868,-0.438174,-0.003910,-0.003539,0.014165,-0.699728,0.032862,0.713653,0.058416,0.121450,-0.016906,-39.532600,-2.970431,4.350153,,,,,,
1465825511.02,-2.367661,-0.032699,-0.438113,0.023595,-0.182933,-0.008100,-0.698578,0.032693,0.714786,-0.002777,-0.044336,0.057415,-39.532600,-2.970431,4.350153,,,,,,
1465825511.03,-2.369935,-0.032782,-0.438189,-0.023310,-0.240226,-0.015239,-0.696950,0.032777,0.716371,0.103856,-0.048417,-0.037980,-39.532600,-2.970431,4.350153,,,,,,
1465825511.05,-2.376713,-0.033833,-0.438168,0.022187,-0.397519,0.030500,-0.692054,0.033826,0.721053,0.069785,-0.007200,-0.034667,-39.526680,-2.971744,4.402733,,,,,,
1465825511.04,-2.372943,-0.033360,-0.438143,0.065882,-0.322226,0.056683,-0.694778,0.033353,0.718450,-0.084076,-0.126508,0.095682,-39.526680,-2.971744,4.402733,,,,,,
1465825511.06,-2.381013,-0.034565,-0.438136,0.059376,-0.429442,0.048833,-0.688930,0.034558,0.724003,-0.003132,-0.002927,0.026195,-39.526680,-2.971744,4.402733,,,,,,
1465825511.07,-2.385240,-0.035081,-0.438181,0.034914,-0.416673,0.043406,-0.685851,0.035073,0.726896,0.008422,-0.001351,-0.017469,-39.468216,-2.913713,4.933947,,,,,,
1465825511.08,-2.389457,-0.035743,-0.438220,0.046609,-0.416702,0.051934,-0.682764,0.035735,0.729765,-0.022986,-0.019119,-0.008268,-39.468216,-2.913713,4.933947,,,,,,
1465825511.09,-2.393280,-0.036318,-0.438246,0.037112,-0.371002,0.037800,-0.679954,0.036310,0.732355,0.006462,0.001166,-0.020944,-39.427666,-2.875342,5.269257,,,,,,
1465825511.10,-2.396429,-0.036924,-0.438268,0.042528,-0.292440,0.040506,-0.677630,0.036916,0.734476,-0.010679,0.015849,-0.019968,-39.427666,-2.875342,5.269257,,,,,,
1465825511.11,-2.398696,-0.037377,-0.438287,0.028810,-0.207466,0.031444,-0.675952,0.037368,0.735998,-0.003537,0.036423,-0.033422,-39.427666,-2.875342,5.269257,,,,,,
1465825511.12,-2.400203,-0.037718,-0.438295,0.023603,-0.130984,0.020314,-0.674833,0.037709,0.737006,-0.004671,0.037944,-0.039969,-39.392372,-2.837781,5.546345,,,,,,
1465825511.13,-2.400758,-0.037881,-0.438271,0.007782,-0.035373,0.004797,-0.674420,0.037872,0.737376,0.006390,0.049149,-0.044703,-39.392372,-2.837781,5.546345,,,,,,
1465825511.14,-2.400437,-0.037971,-0.438269,0.005767,0.055943,0.004222,-0.674654,0.037962,0.737157,-0.018232,0.027956,-0.018712,-39.392372,-2.837781,5.546345,,,,,,
1465825511.15,-2.399245,-0.037897,-0.438259,-0.006889,0.138794,-0.004826,-0.675534,0.037888,0.736354,-0.008044,0.031860,-0.027706,-39.392372,-2.837781,5.546345,,,,,,
1465825511.16,-2.397331,-0.037775,-0.438258,-0.011045,0.208895,-0.012721,-0.676946,0.037766,0.735063,0.001225,0.018112,-0.019884,-39.371819,-2.805509,5.706366,,,,,,
1465825511.17,-2.394801,-0.037643,-0.438254,-0.010989,0.261971,-0.007732,-0.678807,0.037634,0.733352,-0.015072,-0.008901,0.001801,-39.371819,-2.805509,5.706366,,,,,,
1465825511.18,-2.391968,-0.037483,-0.438258,-0.009882,0.291707,-0.010046,-0.680885,0.037474,0.731431,-0.000633,-0.002593,-0.002900,-39.371819,-2.805509,5.706366,,,,,,
1465825511.19,-2.389018,-0.037323,-0.438248,-0.013074,0.293832,-0.010062,-0.683044,0.037315,0.729423,0.007553,0.002282,-0.007881,-39.417770,-2.820820,5.371759,,,,,,
1465825511.20,-2.386228,-0.037201,-0.438255,-0.007778,0.273652,-0.008866,-0.685080,0.037193,0.727518,0.010687,-0.010719,-0.001063,-39.417770,-2.820820,5.371759,,,,,,
1465825511.21,-2.383767,-0.037104,-0.438234,-0.005704,0.234356,-0.005424,-0.686871,0.037095,0.725832,0.008877,-0.013933,0.004728,-39.417770,-2.820820,5.371759,,,,,,
1465825511.22,-2.381752,-0.037022,-0.438247,-0.004688,0.191889,-0.007286,-0.688334,0.037014,0.724449,0.029337,0.002217,-0.005470,-39.447403,-2.829578,5.144854,,,,,,
1465825511.23,-2.380237,-0.036981,-0.438241,-0.005829,0.137726,-0.002689,-0.689432,0.036972,0.723406,0.020502,0.002655,-0.004382,-39.447403,-2.829578,5.144854,,,,,,
1465825511.24,-2.379370,-0.036918,-0.438261,-0.003783,0.070831,-0.002268,-0.690061,0.036909,0.722810,0.029798,0.006731,-0.003968,-39.469673,-2.835279,4.967894,,,,,,
1465825511.25,-2.379129,-0.036877,-0.438266,-0.003865,0.007120,-0.000804,-0.690236,0.036868,0.722645,0.025059,0.002377,-0.004856,-39.469673,-2.835279,4.967894,,,,,,
1465825511.26,-2.380284,-0.036808,-0.438300,0.000321,-0.050224,-0.000440,-0.689402,0.036800,0.723443,0.022914,-0.001766,-0.000406,-39.469673,-2.835279,4.967894,,,,,,
1465825511.27,-2.381621,-0.036596,-0.438324,0.000247,-0.103325,0.003085,-0.688440,0.036588,0.724370,0.018625,-0.005414,-0.006322,-39.476624,-2.840555,4.909302,,,,,,
1465825511.28,-2.383494,-0.036226,-0.438351,0.004445,-0.147932,0.005497,-0.687091,0.036218,0.725668,0.013187,-0.010110,0.001825,-39.476624,-2.840555,4.909302,,,,,,
1465825511.29,-2.385479,-0.035864,-0.438372,0.006532,-0.176609,0.007806,-0.685658,0.035856,0.727040,0.013051,-0.011168,-0.005193,-39.476624,-2.840555,4.909302,,,,,,
1465825511.30,-2.387634,-0.035859,-0.438400,0.006520,-0.186167,0.007865,-0.684090,0.035852,0.728516,0.010506,-0.003427,-0.001450,-39.476624,-2.840555,4.909302,,,,,,
1465825511.31,-2.389419,-0.036065,-0.438412,0.007591,-0.179799,0.008891,-0.682783,0.036057,0.729731,0.008787,0.001693,-0.011393,-39.437843,-2.867235,5.197029,,,,,,
1465825511.32,-2.391023,-0.035990,-0.438418,0.006547,-0.162810,0.008783,-0.681614,0.035982,0.730827,0.004123,-0.005297,-0.008598,-39.437843,-2.867235,5.197029,,,,,,
1465825511.33,-2.392119,-0.034907,-0.438422,0.012941,-0.142657,0.016109,-0.680838,0.034900,0.731602,-0.019525,-0.034366,0.004497,-39.420303,-2.862760,5.330866,,,,,,
1465825511.34,-2.392963,-0.034121,-0.438431,0.018283,-0.119306,0.019157,-0.680239,0.034114,0.732196,-0.015043,-0.028926,-0.001818,-39.420303,-2.862760,5.330866,,,,,,
1465825511.35,-2.393545,-0.033532,-0.438437,0.023642,-0.084373,0.026392,-0.679826,0.033526,0.732607,-0.021956,-0.027254,0.008162,-39.420303,-2.862760,5.330866,,,,,,
1465825511.36,-2.393767,-0.034745,-0.438413,0.024791,-0.038682,0.014401,-0.679636,0.034738,0.732727,0.014841,0.026282,-0.028198,-39.406239,-2.919991,5.403307,,,,,,
1465825511.37,-2.393534,-0.036499,-0.438443,-0.001742,0.013381,0.006602,-0.679764,0.036491,0.732522,0.002335,0.047173,-0.010568,-39.406239,-2.919991,5.403307,,,,,,
1465825511.38,-2.392738,-0.035705,-0.438395,0.029170,0.065357,0.020141,-0.680366,0.035698,0.732002,-0.020333,-0.031578,0.008156,-39.406239,-2.919991,5.403307,,,,,,
1465825511.39,-2.391989,-0.035767,-0.438416,0.004730,0.079217,0.004063,-0.680913,0.035759,0.731491,0.026936,0.026542,-0.051926,-39.406239,-2.919991,5.403307,,,,,,
1465825511.40,-2.390948,-0.036028,-0.438415,0.009007,0.103619,0.010301,-0.681668,0.036020,0.730775,-0.029422,-0.021509,0.039672,-39.410492,-2.872100,5.397940,,,,,,
1465825511.41,-2.389816,-0.036251,-0.438405,0.026039,0.119505,0.021928,-0.682489,0.036243,0.729996,-0.006903,-0.012394,-0.002381,-39.410492,-2.872100,5.397940,,,,,,
1465825511.42,-2.388503,-0.037045,-0.438405,0.007966,0.120609,0.010196,-0.683427,0.037037,0.729079,0.016008,0.017468,-0.019362,-39.420773,-2.861666,5.327972,,,,,,
1465825511.43,-2.387232,-0.037223,-0.438385,0.016491,0.128034,0.011222,-0.684348,0.037214,0.728205,0.014991,0.010317,-0.007334,-39.420773,-2.861666,5.327972,,,,,,
1465825511.44,-2.386015,-0.037325,-0.438392,0.003713,0.118499,0.005947,-0.685231,0.037316,0.727369,0.024602,0.030753,-0.018797,-39.420773,-2.861666,5.327972,,,,,,
1465825511.45,-2.384978,-0.037440,-0.438360,0.011140,0.097259,0.006088,-0.685983,0.037431,0.726654,0.019754,0.008543,-0.008042,-39.449047,-2.822310,5.136236,,,,,,
1465825511.46,-2.384483,-0.038357,-0.438385,-0.001659,0.070731,0.001987,-0.686318,0.038347,0.726290,0.028756,0.025541,-0.017092,-39.449047,-2.822310,5.136236,,,,,,
1465825511.47,-2.383983,-0.038435,-0.438384,0.005755,0.043077,0.006426,-0.686679,0.038426,0.725944,0.014148,-0.000065,0.003502,-39.449047,-2.822310,5.136236,,,,,,
1465825511.48,-2.383792,-0.038454,-0.438406,0.000399,0.012297,0.003421,-0.686818,0.038444,0.725812,0.026570,0.009514,-0.013990,-39.458843,-2.790726,5.077906,,,,,,
1465825511.49,-2.383871,-0.038519,-0.438415,0.001429,-0.015311,0.003595,-0.686759,0.038509,0.725865,0.021826,0.000660,0.000118,-39.458843,-2.790726,5.077906,,,,,,
1465825511.50,-2.384541,-0.039062,-0.438434,0.002471,-0.036546,0.002666,-0.686258,0.039052,0.726309,0.026681,0.014475,-0.013846,-39.458843,-2.790726,5.077906,,,,,,
1465825511.51,-2.385087,-0.039065,-0.438440,-0.001810,-0.059895,-0.000385,-0.685861,0.039055,0.726684,0.022729,0.014793,-0.015091,-39.460007,-2.767768,5.081448,,,,,,
1465825511.52,-2.385846,-0.039050,-0.438443,-0.000771,-0.082190,-0.001308,-0.685310,0.039040,0.727205,0.017371,0.009437,-0.010225,-39.460007,-2.767768,5.081448,,,,,,
1465825511.53,-2.386848,-0.039036,-0.438440,-0.001864,-0.104488,-0.001170,-0.684581,0.039026,0.727892,0.008265,0.002462,-0.007341,-39.460007,-2.767768,5.081448,,,,,,
1465825511.54,-2.387946,-0.039025,-0.438451,-0.002943,-0.114046,-0.000046,-0.683781,0.039015,0.728643,0.004460,-0.000258,-0.008062,-39.460007,-2.767768,5.081448,,,,,,
1465825511.55,-2.389066,-0.038973,-0.438469,-0.005059,-0.108727,-0.003275,-0.682966,0.038963,0.729410,0.013120,0.016457,-0.016077,-39.442440,-2.768500,5.215666,,,,,,
1465825511.56,-2.390063,-0.038914,-0.438449,-0.001847,-0.099164,-0.006525,-0.682240,0.038904,0.730092,0.003468,0.008123,-0.011998,-39.442440,-2.768500,5.215666,,,,,,
1465825511.57,-2.390722,-0.039101,-0.438431,-0.007146,-0.082168,-0.007701,-0.681754,0.039091,0.730536,0.002524,0.008227,-0.013083,-39.431099,-2.771935,5.298914,,,,,,
1465825511.58,-2.391110,-0.039213,-0.438416,-0.009260,-0.072606,-0.008826,-0.681467,0.039203,0.730798,-0.002172,0.007047,-0.015161,-39.431099,-2.771935,5.298914,,,,,,
1465825511.59,-2.391384,-0.039117,-0.438400,-0.008176,-0.057740,-0.008918,-0.681270,0.039107,0.730987,-0.003590,0.000886,-0.013030,-39.431099,-2.771935,5.298914,,,,,,
1465825511.60,-2.391384,-0.039267,-0.438377,-0.013454,-0.030114,-0.014418,-0.681266,0.039257,0.730983,-0.001794,0.010273,-0.016246,-39.426014,-2.763588,5.340939,,,,,,
1465825511.61,-2.391179,-0.039378,-0.438338,-0.014482,-0.003564,-0.015649,-0.681412,0.039368,0.730840,-0.000793,0.010483,-0.014547,-39.426014,-2.763588,5.340939,,,,,,
1465825511.62,-2.390753,-0.039689,-0.438324,-0.020824,0.023001,-0.021142,-0.681716,0.039678,0.730541,0.006209,0.019617,-0.019191,-39.426014,-2.763588,5.340939,,,,,,
1465825511.63,-2.390068,-0.040116,-0.438302,-0.027164,0.048506,-0.027692,-0.682204,0.040105,0.730061,0.005950,0.026637,-0.018635,-39.428612,-2.751248,5.328121,,,,,,
1465825511.64,-2.389244,-0.040572,-0.438278,-0.032446,0.068640,-0.033140,-0.682793,0.040561,0.729485,0.015526,0.031186,-0.024956,-39.428612,-2.751248,5.328121,,,,,,
1465825511.65,-2.388394,-0.040985,-0.438246,-0.041981,0.088845,-0.042853,-0.683401,0.040974,0.728893,0.021292,0.033825,-0.021861,-39.428612,-2.751248,5.328121,,,,,,
1465825511.66,-2.387339,-0.041370,-0.438232,-0.050461,0.106915,-0.048293,-0.684159,0.041358,0.728159,0.022935,0.037423,-0.023783,-39.438160,-2.725191,5.270548,,,,,,
1465825511.67,-2.386342,-0.041277,-0.438236,-0.054734,0.094175,-0.048215,-0.684887,0.041265,0.727480,0.017880,0.023463,-0.018236,-39.438160,-2.725191,5.270548,,,,,,
1465825511.68,-2.385806,-0.040969,-0.438254,-0.061097,0.097388,-0.057820,-0.685286,0.040957,0.727121,0.023909,0.018506,0.000036,-39.438160,-2.725191,5.270548,,,,,,
1465825511.69,-2.385019,-0.040376,-0.438210,-0.049413,0.086743,-0.050290,-0.685875,0.040365,0.726600,0.023643,0.005580,-0.018439,-39.456734,-2.713598,5.135782,,,,,,
1465825511.70,-2.384560,-0.038846,-0.438227,-0.052628,0.073999,-0.049152,-0.686249,0.038836,0.726329,-0.004730,-0.031878,0.024068,-39.456734,-2.713598,5.135782,,,,,,
1465825511.71,-2.384283,-0.037634,-0.438235,-0.042027,0.050612,-0.041545,-0.686483,0.037625,0.726172,0.011449,-0.022778,0.005639,-39.456734,-2.713598,5.135782,,,,,,
1465825511.72,-2.383856,-0.037168,-0.438222,-0.029278,0.045267,-0.030854,-0.686804,0.037159,0.725892,0.006751,-0.061390,0.014129,-39.459038,-2.779629,5.082485,,,,,,
1465825511.73,-2.383329,-0.036708,-0.438225,-0.033528,0.049522,-0.033014,-0.687199,0.036700,0.725542,0.015324,-0.038073,0.029371,-39.459038,-2.779629,5.082485,,,,,,
1465825511.74,-2.383121,-0.036374,-0.438228,-0.024007,0.010213,-0.026372,-0.687358,0.036366,0.725408,0.006663,-0.019199,-0.007482,-39.459038,-2.779629,5.082485,,,,,,
1465825511.75,-2.383801,-0.035327,-0.438262,-0.024089,-0.039717,-0.017545,-0.686890,0.035320,0.725903,0.004563,-0.028774,0.017933,-39.461525,-2.855722,5.020624,,,,,,
1465825511.76,-2.384827,-0.035150,-0.438318,-0.011443,-0.123641,-0.004233,-0.686149,0.035143,0.726612,0.002418,-0.024904,-0.018085,-39.461525,-2.855722,5.020624,,,,,,
1465825511.77,-2.386564,-0.035115,-0.438348,-0.001951,-0.185248,0.002549,-0.684887,0.035108,0.727803,-0.008900,-0.042203,0.003108,-39.461525,-2.855722,5.020624,,,,,,
1465825511.78,-2.388483,-0.035209,-0.438398,0.005488,-0.186331,0.008950,-0.683487,0.035201,0.729113,-0.015167,-0.079101,0.017163,-39.450687,-2.891137,5.085098,,,,,,
1465825511.79,-2.389953,-0.035401,-0.438375,0.018313,-0.133286,0.013949,-0.682410,0.035393,0.730113,0.000830,-0.042000,0.011541,-39.450687,-2.891137,5.085098,,,,,,
1465825511.80,-2.390958,-0.035570,-0.438397,0.008792,-0.089739,0.010473,-0.681672,0.035563,0.730793,-0.009200,-0.013636,0.000469,-39.450687,-2.891137,5.085098,,,,,,
1465825511.81,-2.391669,-0.035661,-0.438381,0.005637,-0.066363,0.005001,-0.681150,0.035654,0.731275,0.012265,0.032553,-0.017576,-39.419781,-2.876216,5.327469,,,,,,
1465825511.82,-2.392211,-0.035562,-0.438402,-0.011351,-0.049330,-0.007896,-0.680756,0.035555,0.731647,0.020691,0.049696,-0.041385,-39.419781,-2.876216,5.327469,,,,,,
1465825511.83,-2.392593,-0.035384,-0.438408,-0.015586,-0.036575,-0.012238,-0.680480,0.035377,0.731912,0.004272,0.039620,-0.019281,-39.419781,-2.876216,5.327469,,,,,,
1465825511.84,-2.392806,-0.035162,-0.438453,-0.019817,-0.014275,-0.012382,-0.680330,0.035155,0.732063,-0.007384,0.014573,-0.019172,-39.413071,-2.876335,5.376825,,,,,,
1465825511.85,-2.392668,-0.034944,-0.438470,-0.017640,0.025008,-0.011562,-0.680436,0.034937,0.731974,0.004777,-0.000269,-0.011958,-39.413071,-2.876335,5.376825,,,,,,
1465825511.86,-2.391940,-0.034588,-0.438493,-0.029240,0.088766,-0.027940,-0.680977,0.034581,0.731488,0.014580,0.004008,-0.017972,-39.413071,-2.876335,5.376825,,,,,,
1465825511.87,-2.390633,-0.034310,-0.438483,-0.018554,0.141812,-0.014424,-0.681939,0.034304,0.730604,0.017602,0.000715,-0.011107,-39.412811,-2.904023,5.363810,,,,,,
1465825511.88,-2.389024,-0.034023,-0.438509,-0.018515,0.169425,-0.016726,-0.683120,0.034016,0.729513,0.006530,-0.032628,-0.002875,-39.412811,-2.904023,5.363810,,,,,,
1465825511.89,-2.387106,-0.033867,-0.438489,-0.012104,0.195952,-0.011564,-0.684522,0.033861,0.728206,0.004895,-0.049410,0.023091,-39.412811,-2.904023,5.363810,,,,,,
1465825511.90,-2.384981,-0.033719,-0.438469,-0.005687,0.220368,-0.010646,-0.686071,0.033712,0.726753,0.032782,-0.013296,-0.013450,-39.427200,-2.921027,5.247595,,,,,,
1465825511.91,-2.383633,-0.032923,-0.438477,-0.006773,0.208679,-0.008447,-0.687068,0.032917,0.725847,0.020915,-0.023334,0.020522,-39.427200,-2.921027,5.247595,,,,,,
1465825511.92,-2.381880,-0.032896,-0.438440,0.002744,0.163005,-0.003894,-0.688341,0.032891,0.724641,0.017931,-0.020043,0.007490,-39.427200,-2.921027,5.247595,,,,,,
1465825511.93,-2.380823,-0.032928,-0.438427,0.002633,0.086534,0.004037,-0.689106,0.032922,0.723913,0.020008,-0.020578,0.004679,-39.461246,-2.957429,4.963602,,,,,,
1465825511.94,-2.380498,-0.032978,-0.438403,0.007875,0.016461,0.001288,-0.689340,0.032972,0.723688,0.026879,-0.008283,-0.006509,-39.461246,-2.957429,4.963602,,,,,,
1465825511.95,-2.381296,-0.032899,-0.438408,0.005644,-0.047272,0.003805,-0.688764,0.032894,0.724239,0.017240,-0.005672,0.004902,-39.461246,-2.957429,4.963602,,,,,,
1465825511.96,-2.382161,-0.033006,-0.438392,0.011961,-0.101433,0.006280,-0.688134,0.033000,0.724833,0.018853,0.010503,-0.001474,-39.468147,-2.955840,4.909365,,,,,,
1465825511.97,-2.383542,-0.033129,-0.438387,0.009763,-0.149225,0.010836,-0.687130,0.033123,0.725779,0.015911,0.008397,0.005453,-39.468147,-2.955840,4.909365,,,,,,
1465825511.98,-2.385363,-0.033317,-0.438375,0.018219,-0.188533,0.017477,-0.685803,0.033311,0.727025,0.011700,-0.008485,-0.000783,-39.468147,-2.955840,4.909365,,,,,,
1465825511.99,-2.387652,-0.033331,-0.438381,0.023499,-0.214035,0.022964,-0.684137,0.033324,0.728592,0.006891,-0.007751,-0.001801,-39.444420,-2.946101,5.102163,,,,,,
1465825512.00,-2.389845,-0.033589,-0.438359,0.023510,-0.220379,0.013424,-0.682531,0.033583,0.730084,-0.016840,-0.016722,0.016605,-39.444420,-2.946101,5.102163,,,,,,
1465825512.01,-2.391911,-0.033891,-0.438362,0.019275,-0.206565,0.010139,-0.681014,0.033884,0.731486,-0.034699,-0.020426,0.020239,-39.444420,-2.946101,5.102163,,,,,,
1465825512.02,-2.393713,-0.034255,-0.438392,0.019297,-0.173675,0.019513,-0.679687,0.034248,0.732703,-0.029740,-0.030190,0.002374,-39.421669,-2.938155,5.279512,,,,,,
1465825512.03,-2.394546,-0.034304,-0.438370,0.033169,-0.124878,0.034122,-0.679075,0.034298,0.733267,0.008345,-0.012981,-0.036779,-39.421669,-2.938155,5.279512,,,,,,
1465825512.04,-2.394978,-0.034113,-0.438355,0.033242,-0.071774,0.029529,-0.678763,0.034106,0.733565,-0.013452,-0.019885,-0.008483,-39.421669,-2.938155,5.279512,,,,,,
1465825512.05,-2.395223,-0.034544,-0.438362,0.029077,-0.009105,0.021681,-0.678573,0.034537,0.733721,-0.042252,-0.041403,0.021086,-39.395081,-2.922126,5.482925,,,,,,
1465825512.06,-2.394811,-0.035069,-0.438392,0.035516,0.058800,0.038293,-0.678863,0.035062,0.733428,-0.015794,-0.027967,-0.007262,-39.395081,-2.922126,5.482925,,,,,,
1465825512.07,-2.393761,-0.035583,-0.438376,0.041981,0.121441,0.038971,-0.679621,0.035576,0.732701,0.001718,-0.015297,-0.015812,-39.395081,-2.922126,5.482925,,,,,,
1465825512.08,-2.391812,-0.035413,-0.438364,0.032473,0.167131,0.029092,-0.681051,0.035406,0.731379,-0.023783,-0.022237,0.008504,-39.397964,-2.891758,5.478294,,,,,,
1465825512.09,-2.389939,-0.035916,-0.438364,0.034625,0.190481,0.032141,-0.682408,0.035908,0.730089,0.023548,0.033916,-0.037951,-39.397964,-2.891758,5.478294,,,,,,
1465825512.10,-2.387969,-0.036298,-0.438344,0.032526,0.201124,0.023557,-0.683835,0.036291,0.728733,0.009839,0.030802,-0.002507,-39.397964,-2.891758,5.478294,,,,,,
1465825512.11,-2.386052,-0.036556,-0.438338,0.014425,0.182052,0.011950,-0.685224,0.036548,0.727415,0.029020,0.054364,-0.039930,-39.436836,-2.855133,5.211321,,,,,,
1465825512.12,-2.384288,-0.036699,-0.438287,0.013349,0.171456,-0.001838,-0.686503,0.036691,0.726201,0.024851,0.041159,-0.011922,-39.436836,-2.855133,5.211321,,,,,,
1465825512.13,-2.382877,-0.036732,-0.438314,-0.004812,0.124742,-0.000499,-0.687526,0.036724,0.725230,0.035137,0.057988,-0.034084,-39.436836,-2.855133,5.211321,,,,,,
1465825512.14,-2.381887,-0.036663,-0.438257,0.002624,0.088675,-0.014103,-0.688245,0.036655,0.724551,-0.011492,-0.009509,0.019025,-39.456406,-2.844225,5.067146,,,,,,
1465825512.15,-2.381506,-0.036594,-0.438287,-0.015551,0.023923,-0.016909,-0.688523,0.036586,0.724291,0.044297,-0.006877,-0.033205,-39.456406,-2.844225,5.067146,,,,,,
1465825512.16,-2.381611,-0.036754,-0.438250,0.015212,-0.017587,0.014251,-0.688443,0.036746,0.724359,0.022778,0.014539,0.005560,-39.456406,-2.844225,5.067146,,,,,,
1465825512.17,-2.382344,-0.036780,-0.438242,0.015121,-0.088731,0.015762,-0.687911,0.036772,0.724863,-0.038453,-0.034758,0.034659,-39.469852,-2.843474,4.961758,,,,,,
1465825512.18,-2.383644,-0.036783,-0.438219,-0.002989,-0.147033,-0.015824,-0.686968,0.036774,0.725757,0.019121,-0.020051,-0.028750,-39.469852,-2.843474,4.961758,,,,,,
1465825512.19,-2.385352,-0.036991,-0.438275,0.000120,-0.172591,0.010951,-0.685723,0.036983,0.726923,0.067528,0.036549,-0.053446,-39.469852,-2.843474,4.961758,,,,,,
1465825512.20,-2.387110,-0.037179,-0.438279,0.025623,-0.172674,0.036523,-0.684439,0.037170,0.728122,-0.039072,-0.030075,0.033841,-39.459671,-2.843372,5.042154,,,,,,
1465825512.21,-2.388740,-0.037170,-0.438283,0.003357,-0.158754,-0.001906,-0.683251,0.037162,0.729238,-0.029732,-0.031821,0.017085,-39.459671,-2.843372,5.042154,,,,,,
1465825512.22,-2.390049,-0.037295,-0.438327,-0.010421,-0.120502,-0.009611,-0.682293,0.037286,0.730128,0.072231,0.061606,-0.081415,-39.459671,-2.843372,5.042154,,,,,,
1465825512.23,-2.391028,-0.037448,-0.438371,0.009779,-0.086634,0.026388,-0.681573,0.037439,0.730791,0.008142,0.042792,-0.013323,-39.427803,-2.824880,5.295467,,,,,,
1465825512.24,-2.391638,-0.037361,-0.438345,0.008787,-0.053674,0.010213,-0.681130,0.037353,0.731209,-0.076179,-0.036132,0.045738,-39.427803,-2.824880,5.295467,,,,,,
1465825512.25,-2.391887,-0.037168,-0.438335,-0.017692,-0.020610,-0.038985,-0.680953,0.037159,0.731384,0.004302,-0.008137,-0.032257,-39.427803,-2.824880,5.295467,,,,,,
1465825512.26,-2.391660,-0.037080,-0.438375,-0.024023,0.033531,-0.034009,-0.681121,0.037071,0.731232,0.074142,0.008339,-0.084213,-39.419510,-2.822385,5.358191,,,,,,
1465825512.27,-2.390999,-0.037030,-0.438441,-0.016612,0.076953,0.001904,-0.681605,0.037022,0.730783,0.063228,0.017238,-0.064508,-39.419510,-2.822385,5.358191,,,,,,
1465825512.28,-2.389965,-0.036958,-0.438466,-0.008090,0.117233,0.025077,-0.682363,0.036950,0.730079,0.016454,0.014060,-0.005302,-39.419510,-2.822385,5.358191,,,,,,
1465825512.29,-2.388718,-0.036860,-0.438486,-0.002733,0.145896,0.025968,-0.683275,0.036851,0.729230,-0.006010,0.013945,0.041399,-39.427914,-2.831732,5.290981,,,,,,
1465825512.30,-2.387342,-0.036780,-0.438487,-0.002710,0.153346,0.019534,-0.684279,0.036772,0.728292,0.004348,0.013445,0.023920,-39.427914,-2.831732,5.290981,,,,,,
1465825512.31,-2.385920,-0.036700,-0.438487,-0.006961,0.150181,0.013163,-0.685317,0.036692,0.727320,0.022216,0.007284,0.001089,-39.427914,-2.831732,5.290981,,,,,,
1465825512.32,-2.384581,-0.036632,-0.438478,-0.008044,0.132137,0.011146,-0.686291,0.036624,0.726404,0.031201,-0.000232,-0.019190,-39.441353,-2.836707,5.187138,,,,,,
1465825512.33,-2.383514,-0.036561,-0.438488,-0.009142,0.098171,0.007100,-0.687068,0.036553,0.725673,0.045939,0.013679,-0.033519,-39.441353,-2.836707,5.187138,,,,,,
1465825512.34,-2.382834,-0.036515,-0.438472,-0.003870,0.055699,0.006307,-0.687562,0.036506,0.725207,0.034334,-0.001823,-0.025775,-39.441353,-2.836707,5.187138,,,,,,
1465825512.35,-2.382542,-0.036431,-0.438464,-0.003908,0.015368,0.000174,-0.687776,0.036423,0.725008,0.018678,-0.019730,-0.012652,-39.463783,-2.845259,5.008781,,,,,,
1465825512.36,-2.382632,-0.036368,-0.438462,-0.005013,-0.023906,-0.003839,-0.687712,0.036360,0.725072,0.013945,-0.013426,-0.008977,-39.463783,-2.845259,5.008781,,,,,,
1465825512.37,-2.383052,-0.036355,-0.438467,-0.001865,-0.053650,0.000609,-0.687408,0.036347,0.725361,0.006317,0.000961,-0.003041,-39.463783,-2.845259,5.008781,,,,,,
1465825512.38,-2.383764,-0.036358,-0.438475,0.001288,-0.077029,0.007145,-0.686891,0.036350,0.725850,-0.004728,0.003918,0.009638,-39.464485,-2.850005,5.000544,,,,,,
1465825512.40,-2.385822,-0.036354,-0.438526,0.000167,-0.115265,0.011641,-0.685397,0.036346,0.727262,-0.018293,0.005067,0.016344,-39.464485,-2.850005,5.000544,,,,,,
1465825512.39,-2.384689,-0.036357,-0.438494,0.001255,-0.096153,0.011523,-0.686220,0.036349,0.726486,-0.014922,0.000378,0.017045,-39.464485,-2.850005,5.000544,,,,,,
1465825512.41,-2.387070,-0.036336,-0.438528,0.002287,-0.129058,0.007472,-0.684489,0.036328,0.728118,-0.024755,-0.003125,0.007158,-39.448452,-2.848852,5.126144,,,,,,
1465825512.42,-2.388275,-0.036266,-0.438513,0.001260,-0.121586,-0.006413,-0.683613,0.036258,0.728944,-0.009487,-0.009540,-0.011735,-39.448452,-2.848852,5.126144,,,,,,
1465825512.43,-2.389419,-0.036193,-0.438565,-0.016838,-0.117314,-0.012849,-0.682780,0.036185,0.729727,0.032863,0.038873,-0.057577,-39.448452,-2.848852,5.126144,,,,,,
1465825512.44,-2.390364,-0.036179,-0.438554,0.000207,-0.086571,0.001877,-0.682091,0.036171,0.730372,-0.029701,-0.005928,0.025792,-39.435558,-2.851883,5.222763,,,,,,
1465825512.45,-2.391071,-0.036003,-0.438589,-0.010390,-0.059998,-0.006816,-0.681578,0.035996,0.730859,0.001982,0.006577,-0.013544,-39.435558,-2.851883,5.222763,,,,,,
1465825512.46,-2.391289,-0.035971,-0.438581,-0.006087,-0.011180,0.001398,-0.681420,0.035963,0.731009,-0.027015,-0.011244,0.018106,-39.435558,-2.851883,5.222763,,,,,,
1465825512.47,-2.391199,-0.035862,-0.438584,0.004610,0.021742,-0.003056,-0.681488,0.035854,0.730950,-0.022323,-0.037822,0.014823,-39.419220,-2.859247,5.340748,,,,,,
1465825512.48,-2.390700,-0.035758,-0.438592,-0.020877,0.052585,-0.017112,-0.681855,0.035751,0.730613,0.031068,0.034211,-0.049888,-39.419220,-2.859247,5.340748,,,,,,
1465825512.49,-2.389947,-0.035703,-0.438605,-0.002760,0.082277,-0.006636,-0.682407,0.035695,0.730100,-0.002316,-0.006078,0.007921,-39.419220,-2.859247,5.340748,,,,,,
1465825512.50,-2.388888,-0.035904,-0.438619,-0.011275,0.092886,-0.001388,-0.683174,0.035896,0.729373,-0.002113,0.007668,-0.003329,-39.421967,-2.865512,5.317051,,,,,,
1465825512.51,-2.387846,-0.035842,-0.438578,0.003658,0.115173,-0.000448,-0.683936,0.035834,0.728662,-0.014520,0.034448,0.033362,-39.421967,-2.865512,5.317051,,,,,,
1465825512.52,-2.386817,-0.035620,-0.438466,-0.001671,0.093969,-0.010965,-0.684691,0.035613,0.727963,-0.001009,-0.023177,-0.030591,-39.421967,-2.865512,5.317051,,,,,,
1465825512.53,-2.385990,-0.035503,-0.438639,-0.034695,0.082303,-0.009860,-0.685295,0.035495,0.727400,0.039086,0.013287,-0.012281,-39.441757,-2.872927,5.164076,,,,,,
1465825512.55,-2.384355,-0.035524,-0.438634,-0.012359,0.073780,-0.003398,-0.686483,0.035517,0.726278,0.041433,-0.015848,-0.024526,-39.441757,-2.872927,5.164076,,,,,,
1465825512.54,-2.385127,-0.035491,-0.438566,0.025955,0.087517,0.013585,-0.685923,0.035484,0.726809,-0.063162,-0.109962,0.077238,-39.441757,-2.872927,5.164076,,,,,,
1465825512.56,-2.383631,-0.035871,-0.438561,0.035490,0.066247,0.024373,-0.687000,0.035863,0.725772,-0.015270,-0.033025,0.042310,-39.450401,-2.874394,5.096811,,,,,,
1465825512.57,-2.383271,-0.035960,-0.438580,0.006735,0.032333,0.006461,-0.687259,0.035952,0.725522,0.042560,0.034040,-0.028073,-39.450401,-2.874394,5.096811,,,,,,
1465825512.58,-2.383283,-0.036103,-0.438580,0.005603,-0.016518,0.009960,-0.687247,0.036095,0.725526,0.021995,0.032249,-0.029023,-39.450401,-2.874394,5.096811,,,,,,
1465825512.59,-2.383707,-0.036185,-0.438569,0.013033,-0.045173,0.003760,-0.686937,0.036177,0.725816,0.024324,-0.018415,0.003768,-39.460976,-2.855201,5.025249,,,,,,
1465825512.60,-2.384245,-0.036360,-0.438573,0.005552,-0.062166,0.007052,-0.686543,0.036352,0.726180,0.021305,0.002924,-0.019820,-39.460976,-2.855201,5.025249,,,,,,
1465825512.61,-2.384807,-0.036536,-0.438547,0.018337,-0.052622,0.009134,-0.686130,0.036528,0.726562,0.011234,0.000871,0.020432,-39.456608,-2.847475,5.063766,,,,,,
1465825512.62,-2.385483,-0.036572,-0.438574,-0.000845,-0.069596,0.007093,-0.685638,0.036564,0.727024,0.021301,0.035305,-0.037205,-39.456608,-2.847475,5.063766,,,,,,
1465825512.63,-2.386210,-0.036587,-0.438563,0.001299,-0.072756,-0.002465,-0.685108,0.036579,0.727522,0.021534,0.011090,-0.007552,-39.456608,-2.847475,5.063766,,,,,,
1465825512.65,-2.387363,-0.036705,-0.438557,0.010911,-0.034562,0.006885,-0.684266,0.036697,0.728308,-0.008422,-0.030166,0.030221,-39.456608,-2.847475,5.063766,,,,,,
1465825512.64,-2.386912,-0.036593,-0.438581,0.001296,-0.070641,0.000715,-0.684597,0.036585,0.728003,0.010174,-0.013025,-0.013113,-39.456608,-2.847475,5.063766,,,,,,
1465825512.66,-2.387597,-0.036857,-0.438551,0.014112,-0.018654,0.013175,-0.684092,0.036849,0.728465,-0.006857,-0.027388,0.000249,-39.443428,-2.840091,5.169458,,,,,,
1465825512.67,-2.387661,-0.036978,-0.438544,0.006693,-0.003765,0.005623,-0.684042,0.036970,0.728505,0.015829,0.016146,-0.020039,-39.443428,-2.840091,5.169458,,,,,,
1465825512.68,-2.387715,-0.037073,-0.438555,0.006688,-0.005891,0.006701,-0.684000,0.037064,0.728539,0.008555,0.011291,-0.015862,-39.440323,-2.832716,5.197124,,,,,,
1465825512.69,-2.387720,-0.037115,-0.438541,0.006704,0.001550,0.003461,-0.683996,0.037106,0.728542,0.002736,0.001483,-0.006984,-39.440323,-2.832716,5.197124,,,,,,
1465825512.70,-2.387330,-0.037221,-0.438602,0.006763,0.070529,0.016866,-0.684277,0.037212,0.728272,0.024929,-0.035763,-0.020142,-39.440323,-2.832716,5.197124,,,,,,
1465825512.71,-2.386700,-0.037131,-0.438773,-0.054115,-0.019796,0.054627,-0.684738,0.037122,0.727843,-0.032867,0.096941,-0.190184,-39.442528,-2.820229,5.187180,,,,,,
1465825512.72,-2.386568,-0.037536,-0.438475,0.044877,-0.067580,0.031609,-0.684824,0.037527,0.727741,-0.047506,-0.176290,0.141460,-39.442528,-2.820229,5.187180,,,,,,
1465825512.73,-2.386526,-0.038466,-0.438701,0.077395,0.337045,-0.004959,-0.684830,0.038456,0.727687,0.023637,-0.097645,0.251317,-39.442528,-2.820229,5.187180,,,,,,
1465825512.74,-2.367258,-0.038466,-0.438069,0.002334,2.574108,0.051190,-0.698724,0.038457,0.714357,0.077645,-0.069203,0.874678,-39.446800,-2.813734,5.158169,,,,,,
1465825512.75,-2.324345,-0.036395,-0.437429,-0.063886,4.661094,-0.147179,-0.728782,0.036387,0.683778,0.267433,0.208883,0.364821,-39.446800,-2.813734,5.158169,,,,,,
1465825512.76,-2.286981,-0.035343,-0.437679,-0.107435,3.109713,-0.098108,-0.753845,0.035336,0.656101,-0.068817,0.093342,-0.660618,-39.539986,-2.795308,4.398809,,,,,,
1465825512.77,-2.285101,-0.036275,-0.438460,0.036271,-0.758143,0.179632,-0.755052,0.036267,0.654661,-0.241576,-0.129086,-0.898054,-39.539986,-2.795308,4.398809,,,,,,
,,,,,,,,,,,,,,,,29.719977,-95.399083,10.056827,-1.000000,-1.000000,1465825512.78
1465825512.78,-2.306767,-0.036746,-0.438032,0.051598,-2.467056,-0.026783,-0.740679,0.036738,0.670853,0.210986,0.036260,0.204085,-39.539986,-2.795308,4.398809,,,,,,
1465825512.79,-2.333630,-0.038169,-0.437922,0.133019,-2.624747,0.157372,-0.722355,0.038160,0.690469,-0.154827,-0.176969,-0.135278,-39.539986,-2.795308,4.398809,,,,,,
1465825512.80,-2.353191,-0.039031,-0.438383,0.002448,-1.640086,0.040364,-0.708687,0.039021,0.704443,0.147362,0.185191,0.058084,-39.539986,-2.795308,4.398809,,,,,,
1465825512.81,-2.361132,-0.039547,-0.437734,0.095239,-0.645255,0.045926,-0.703057,0.039536,0.710034,0.049798,-0.046525,0.304462,-39.599724,-2.769994,3.842216,,,,,,
1465825512.82,-2.369818,-0.040107,-0.438562,-0.027668,-0.975482,0.072357,-0.696848,0.040097,0.716097,-0.083227,0.008106,-0.249163,-39.599724,-2.769994,3.842216,,,,,,
1465825512.83,-2.382192,-0.040717,-0.438053,0.109404,-1.313004,0.002228,-0.687917,0.040705,0.724647,0.079091,-0.009913,0.016564,-39.532822,-2.732364,4.501551,,,,,,
1465825512.84,-2.398122,-0.041414,-0.438647,-0.022139,-1.650809,0.082985,-0.676266,0.041403,0.735493,-0.152484,-0.035452,-0.190495,-39.532822,-2.732364,4.501551,,,,,,
1465825512.85,-2.412870,-0.042031,-0.438391,0.082677,-1.386279,0.011176,-0.665329,0.042019,0.745366,0.042450,0.136570,0.006770,-39.532822,-2.732364,4.501551,,,,,,
1465825512.86,-2.424402,-0.042456,-0.438691,-0.026768,-1.107146,0.073184,-0.656678,0.042443,0.752976,-0.177215,-0.075951,0.045105,-39.392174,-2.689960,5.620886,,,,,,
1465825512.87,-2.433846,-0.042645,-0.438744,0.043928,-0.877644,0.003690,-0.649532,0.042632,0.759138,0.018673,0.134645,-0.103193,-39.392174,-2.689960,5.620886,,,,,,
1465825512.88,-2.441383,-0.042926,-0.438898,-0.028400,-0.740761,0.045336,-0.643784,0.042913,0.764003,-0.160827,-0.114996,0.066991,-39.392174,-2.689960,5.620886,,,,,,
1465825512.89,-2.447641,-0.042851,-0.438940,0.039035,-0.554809,-0.017501,-0.638993,0.042838,0.768019,0.044587,0.104302,-0.181837,-39.115410,-2.637078,7.321480,,,,,,
1465825512.90,-2.451410,-0.042906,-0.439025,-0.052292,-0.332900,0.000177,-0.636092,0.042893,0.770420,-0.132859,-0.042557,0.053951,-39.115410,-2.637078,7.321480,,,,,,
1465825512.91,-2.453123,-0.042907,-0.439076,0.029938,-0.115309,0.012732,-0.634772,0.042894,0.771508,-0.086222,-0.021150,-0.040460,-39.040302,-2.634509,7.712834,,,,,,
1465825512.92,-2.452950,-0.042697,-0.439134,-0.044326,0.058931,-0.012917,-0.634910,0.042684,0.771406,-0.049126,0.032191,-0.032896,-39.040302,-2.634509,7.712834,,,,,,
1465825512.93,-2.451002,-0.042565,-0.439140,0.003803,0.244699,-0.005519,-0.636416,0.042552,0.770172,-0.070967,-0.032557,-0.029785,-39.040302,-2.634509,7.712834,,,,,,
1465825512.94,-2.447036,-0.042213,-0.439161,-0.037429,0.447577,-0.025992,-0.639474,0.042200,0.767653,-0.028662,0.028311,-0.040679,-39.040302,-2.634509,7.712834,,,,,,
1465825512.95,-2.441121,-0.042010,-0.439168,-0.013802,0.634398,-0.011174,-0.644009,0.041997,0.763864,-0.078876,-0.055044,0.014395,-39.072815,-2.652431,7.540137,,,,,,
1465825512.96,-2.433768,-0.041672,-0.439195,-0.026396,0.765033,-0.021586,-0.649618,0.041660,0.759118,-0.019236,0.013028,-0.033563,-39.072815,-2.652431,7.540137,,,,,,
1465825512.97,-2.425475,-0.041449,-0.439210,-0.020992,0.842518,-0.013551,-0.655897,0.041437,0.753712,-0.040559,-0.040430,0.016369,-39.072815,-2.652431,7.540137,,,,,,
1465825512.98,-2.416654,-0.041154,-0.439207,-0.016657,0.896680,-0.018144,-0.662528,0.041142,0.747907,0.000708,-0.003423,-0.021527,-39.168556,-2.668233,7.019854,,,,,,
1465825512.99,-2.407245,-0.040872,-0.439205,-0.025100,0.952965,-0.020634,-0.669543,0.040861,0.741648,-0.002637,-0.007657,0.006414,-39.168556,-2.668233,7.019854,,,,,,
1465825513.00,-2.397267,-0.040592,-0.439199,-0.017581,1.008170,-0.018844,-0.676918,0.040581,0.734939,0.018547,-0.001518,0.009003,-39.168556,-2.668233,7.019854,,,,,,
1465825513.01,-2.387194,-0.040282,-0.439201,-0.025039,0.999688,-0.021992,-0.684295,0.040271,0.728092,0.032928,0.005780,0.019512,-39.396683,-2.701401,5.583666,,,,,,
1465825513.02,-2.377960,-0.039974,-0.439204,-0.019856,0.889255,-0.020229,-0.690997,0.039963,0.721752,0.056522,0.012390,0.003087,-39.396683,-2.701401,5.583666,,,,,,
1465825513.03,-2.370634,-0.039703,-0.439257,-0.025459,0.674759,-0.013567,-0.696274,0.039692,0.716678,0.045135,0.001705,-0.004413,-39.396683,-2.701401,5.583666,,,,,,
1465825513.04,-2.365443,-0.039499,-0.439302,-0.016131,0.475129,-0.010177,-0.699990,0.039489,0.713060,0.041131,-0.004333,-0.017396,-39.495995,-2.720310,4.820808,,,,,,
1465825513.05,-2.361600,-0.039316,-0.439333,-0.015195,0.366834,-0.012690,-0.702731,0.039306,0.710369,0.037096,-0.005783,-0.003521,-39.495995,-2.720310,4.820808,,,,,,
1465825513.06,-2.358203,-0.039218,-0.439359,-0.009930,0.337071,-0.001854,-0.705142,0.039208,0.707981,0.011463,-0.016854,0.007046,-39.495995,-2.720310,4.820808,,,,,,
1465825513.07,-2.354688,-0.039070,-0.439359,-0.007752,0.362577,-0.010527,-0.707631,0.039060,0.705502,0.028203,0.006701,-0.012295,-39.582390,-2.739683,4.037594,,,,,,
1465825513.08,-2.350808,-0.038962,-0.439384,-0.013045,0.395481,-0.005417,-0.710366,0.038953,0.702754,0.003411,-0.021893,0.014867,-39.582390,-2.739683,4.037594,,,,,,
1465825513.09,-2.346720,-0.038839,-0.439400,-0.008753,0.414603,-0.009790,-0.713236,0.038829,0.699848,0.020319,-0.002193,0.001736,-39.582390,-2.739683,4.037594,,,,,,
1465825513.10,-2.342973,-0.038717,-0.439426,-0.010963,0.359375,-0.004124,-0.715857,0.038707,0.697173,0.035742,0.017277,-0.020537,-39.610718,-2.746931,3.744186,,,,,,
1465825513.11,-2.340139,-0.038632,-0.439454,-0.008967,0.251073,-0.004507,-0.717832,0.038623,0.695144,0.027723,-0.008044,0.015565,-39.610718,-2.746931,3.744186,,,,,,
1465825513.12,-2.338873,-0.038599,-0.439519,-0.006005,0.077977,0.004033,-0.718713,0.038589,0.694235,0.039941,-0.000473,-0.007453,-39.610718,-2.746931,3.744186,,,,,,
1465825513.13,-2.339754,-0.038642,-0.439625,-0.005225,-0.140769,0.010727,-0.718100,0.038632,0.694867,0.042105,0.006656,-0.023526,-39.652142,-2.754713,3.269993,,,,,,
1465825513.14,-2.342380,-0.038693,-0.439683,0.000983,-0.293657,0.006370,-0.716271,0.038684,0.696749,0.059380,0.015256,-0.005389,-39.652142,-2.754713,3.269993,,,,,,
1465825513.15,-2.345694,-0.038773,-0.439696,0.005185,-0.337196,0.007712,-0.713955,0.038764,0.699117,0.053479,-0.000479,0.024454,-39.640953,-2.747682,3.408648,,,,,,
1465825513.16,-2.352191,-0.038207,-0.439811,0.011522,-0.369078,0.012174,-0.709414,0.038198,0.703756,0.045581,-0.013112,0.020228,-39.640953,-2.747682,3.408648,,,,,,
1465825513.17,-2.356612,-0.038467,-0.439864,0.013481,-0.474248,0.023476,-0.706289,0.038458,0.706879,0.017537,-0.030706,0.016434,-39.640953,-2.747682,3.408648,,,,,,
1465825513.18,-2.362240,-0.038803,-0.439937,0.020788,-0.580450,0.030537,-0.702290,0.038793,0.710833,0.026402,-0.009313,-0.013873,-39.604919,-2.759435,3.796000,,,,,,
1465825513.19,-2.367288,-0.039073,-0.439989,0.012454,-0.448755,0.020122,-0.698685,0.039063,0.714362,0.036897,0.002014,0.040017,-39.604919,-2.759435,3.796000,,,,,,
1465825513.20,-2.372360,-0.039272,-0.440131,0.008830,0.033329,0.002193,-0.695048,0.039262,0.717891,0.052958,0.003981,0.114782,-39.604919,-2.759435,3.796000,,,,,,
1465825513.21,-2.367840,-0.039272,-0.440088,0.002071,0.585473,-0.002341,-0.698285,0.039262,0.714742,0.054654,-0.000810,0.148265,-39.523022,-2.718578,4.594969,,,,,,
1465825513.22,-2.358997,-0.039170,-0.440002,-0.003835,0.955010,-0.014244,-0.704582,0.039160,0.708541,0.067512,-0.013800,0.158020,-39.523022,-2.718578,4.594969,,,,,,
1465825513.23,-2.348650,-0.038986,-0.439925,-0.006912,1.041029,-0.019045,-0.711880,0.038976,0.701219,0.076519,0.007838,0.093169,-39.523022,-2.718578,4.594969,,,,,,
1465825513.24,-2.338764,-0.038762,-0.439811,-0.009126,0.963536,-0.024947,-0.718783,0.038752,0.694153,0.085895,0.021703,0.051590,-39.580429,-2.724967,4.066668,,,,,,
1465825513.25,-2.329893,-0.038529,-0.439700,-0.007128,0.860537,-0.023235,-0.724920,0.038519,0.687755,0.081869,0.017633,0.030995,-39.580429,-2.724967,4.066668,,,,,,
1465825513.26,-2.322232,-0.038291,-0.439598,-0.008356,0.728877,-0.023475,-0.730174,0.038282,0.682188,0.068324,0.012118,0.015367,-39.580429,-2.724967,4.066668,,,,,,
1465825513.27,-2.316274,-0.038210,-0.439581,-0.003291,0.568464,0.006276,-0.734227,0.038200,0.677828,0.059972,0.008949,-0.020708,-39.700600,-2.762183,2.608879,,,,,,
1465825513.28,-2.307275,-0.038620,-0.439549,0.054392,0.710728,0.001184,-0.740286,0.038610,0.671182,0.793951,0.065165,0.347571,-39.700600,-2.762183,2.608879,,,,,,
1465825513.29,-2.334689,-0.039291,-0.440233,-0.008162,-4.031496,0.119212,-0.721592,0.039281,0.691204,0.322208,-0.066518,0.173726,-39.700600,-2.762183,2.608879,,,,,,
1465825513.30,-2.399106,-0.041909,-0.440102,0.240362,-6.980412,0.197564,-0.675529,0.041897,0.736142,-0.039696,0.061771,-0.923993,-39.735756,-2.753319,2.015579,,,,,,
1465825513.31,-2.475036,-0.043483,-0.441391,-0.056305,-7.548273,0.180605,-0.617699,0.043469,0.785213,0.125236,-0.016888,0.049596,-39.735756,-2.753319,2.015579,,,,,,
1465825513.32,-2.564713,-0.042168,-0.442424,-0.020675,-9.957079,0.035015,-0.544926,0.042156,0.837424,0.892323,0.478963,0.107095,-39.735756,-2.753319,2.015579,,,,,,
1465825513.33,-2.663266,-0.045333,-0.442948,0.240707,-8.403229,0.206487,-0.459822,0.045317,0.886854,-2.548372,-0.385161,-1.880491,-37.926064,-2.571650,12.065399,,,,,,
1465825513.34,-2.660159,-0.046334,-0.442106,0.078651,2.906814,-0.117946,-0.462554,0.046317,0.885381,-0.246293,-0.062552,1.189189,-37.926064,-2.571650,12.065399,,,,,,
1465825513.35,-2.605901,-0.046408,-0.441631,0.020140,5.723408,0.009096,-0.509887,0.046391,0.858990,-0.138688,-0.085728,1.219700,-37.926064,-2.571650,12.065399,,,,,,
1465825513.36,-2.550616,-0.046068,-0.441357,-0.049571,5.240462,-0.039038,-0.556581,0.046052,0.829516,0.089357,-0.014100,-0.113528,-36.607529,-2.451334,15.635010,,,,,,
1465825513.37,-2.514339,-0.044961,-0.441392,-0.070354,3.021443,-0.075171,-0.586330,0.044946,0.808824,0.603680,0.054663,0.087645,-36.607529,-2.451334,15.635010,,,,,,
1465825513.38,-2.505091,-0.044653,-0.440981,0.002740,0.211817,-0.036188,-0.593793,0.044638,0.803379,0.668088,0.080377,0.051831,-36.607529,-2.451334,15.635010,,,,,,
1465825513.39,-2.518184,-0.044775,-0.441037,0.017296,-1.691070,0.022597,-0.583221,0.044760,0.811080,0.455382,0.022623,-0.090010,-38.577812,-2.531444,9.793776,,,,,,
1465825513.40,-2.543411,-0.045208,-0.441307,0.010559,-2.782662,0.051789,-0.562566,0.045192,0.825517,0.476979,0.012486,0.210509,-38.577812,-2.531444,9.793776,,,,,,
1465825513.41,-2.578061,-0.045816,-0.441650,0.048841,-3.653389,0.067933,-0.533614,0.045800,0.844487,0.258102,0.014274,0.035274,-38.577812,-2.531444,9.793776,,,,,,
1465825513.42,-2.612884,-0.046929,-0.441695,0.092977,-3.294478,0.049759,-0.503863,0.046912,0.862509,-0.093335,-0.024176,-0.116873,-38.175919,-2.506155,11.264639,,,,,,
1465825513.43,-2.637268,-0.047499,-0.441667,0.043365,-2.132787,0.023264,-0.482671,0.047482,0.874514,-0.053172,0.009632,0.057325,-38.175919,-2.506155,11.264639,,,,,,
1465825513.44,-2.648721,-0.047987,-0.441506,0.048229,-0.821428,0.002271,-0.472613,0.047968,0.879964,-0.208661,-0.023615,0.024013,-38.175919,-2.506155,11.264639,,,,,,
1465825513.45,-2.649844,-0.048066,-0.441323,0.005719,0.071602,-0.015081,-0.471623,0.048047,0.880490,-0.205929,-0.010068,0.006869,-36.784142,-2.415534,15.220571,,,,,,
1465825513.46,-2.645881,-0.047929,-0.441063,-0.001204,0.467705,-0.034603,-0.475111,0.047911,0.878620,-0.233858,-0.009047,-0.080006,-36.784142,-2.415534,15.220571,,,,,,
1465825513.47,-2.640512,-0.047547,-0.440829,-0.028771,0.551615,-0.040479,-0.479831,0.047529,0.876073,-0.214643,0.005999,-0.129460,-36.784142,-2.415534,15.220571,,,,,,
1465825513.48,-2.634187,-0.047011,-0.440583,-0.038210,0.653574,-0.048579,-0.485375,0.046994,0.873042,-0.164680,0.006137,-0.126964,-36.825890,-2.428441,15.117220,,,,,,
1465825513.49,-2.627172,-0.046343,-0.440367,-0.047704,0.719419,-0.052195,-0.491502,0.046326,0.869643,-0.121459,0.018798,-0.082152,-36.825890,-2.428441,15.117220,,,,,,
1465825513.50,-2.619226,-0.045659,-0.440107,-0.048635,0.819241,-0.057080,-0.498412,0.045643,0.865738,-0.090150,0.011898,-0.059891,-36.825890,-2.428441,15.117220,,,,,,
1465825513.51,-2.610156,-0.044924,-0.439862,-0.050619,0.933919,-0.058866,-0.506261,0.044909,0.861210,-0.051157,0.011091,-0.030781,-37.210228,-2.522445,14.128344,,,,,,
1465825513.52,-2.600170,-0.044206,-0.439580,-0.047317,1.015682,-0.061504,-0.514852,0.044192,0.856139,0.006216,0.007948,-0.000106,-37.210228,-2.522445,14.128344,,,,,,
1465825513.53,-2.589908,-0.043486,-0.439297,-0.048375,1.019933,-0.062596,-0.523627,0.043473,0.850838,0.126227,0.013717,0.036476,-37.210228,-2.522445,14.128344,,,,,,
1465825513.54,-2.580438,-0.042772,-0.439016,-0.047445,0.913749,-0.060865,-0.531677,0.042759,0.845867,0.187057,0.010052,0.056339,-37.469307,-2.580482,13.415137,,,,,,
1465825513.55,-2.572765,-0.042062,-0.438775,-0.047702,0.710942,-0.058529,-0.538168,0.042049,0.841788,0.243902,0.010578,0.069009,-37.469307,-2.580482,13.415137,,,,,,
1465825513.56,-2.567732,-0.041412,-0.438544,-0.039546,0.428487,-0.052491,-0.542413,0.041400,0.839091,0.268411,0.003049,0.075887,-37.469307,-2.580482,13.415137,,,,,,
1465825513.57,-2.565504,-0.040867,-0.438357,-0.033511,0.158765,-0.043343,-0.544293,0.040856,0.837900,0.306165,0.000770,0.098029,-37.877850,-2.692633,12.189823,,,,,,
1465825513.58,-2.565492,-0.040455,-0.438195,-0.024206,-0.050435,-0.034570,-0.544312,0.040444,0.837907,0.332337,-0.001107,0.113692,-37.877850,-2.692633,12.189823,,,,,,
1465825513.59,-2.567789,-0.040168,-0.438015,-0.010678,-0.293606,-0.028774,-0.542392,0.040157,0.839165,0.327365,0.004628,0.085273,-37.877850,-2.692633,12.189823,,,,,,
1465825513.60,-2.572864,-0.040013,-0.437839,-0.002535,-0.584559,-0.021619,-0.538130,0.040002,0.841912,0.278334,-0.009668,0.048530,-37.902676,-2.730879,12.103844,,,,,,
1465825513.61,-2.580941,-0.039971,-0.437695,0.006665,-0.879763,-0.013371,-0.531313,0.039960,0.846232,0.211993,-0.012067,0.016713,-37.902676,-2.730879,12.103844,,,,,,
