timestamp,attitude_roll,attitude_pitch,attitude_yaw,rotation_rate_x,rotation_rate_y,rotation_rate_z,gravity_x,gravity_y,gravity_z,user_acc_x,user_acc_y,user_acc_z,magnetic_field_x,magnetic_field_y,magnetic_field_z,latitude(degree),longitude(degree),altitude(meter),speed(m/s),course(degree),timestamp
1465313333.36,-0.595318,-0.034586,-2.436867,0.006686,-0.049433,-0.000318,-0.560437,0.034579,-0.827475,0.007794,-0.002230,-0.002573,68.012009,-33.735580,-66.773895,,,,,,
1465313333.37,-0.595556,-0.034630,-2.436856,-0.001763,0.012144,0.003545,-0.560632,0.034623,-0.827341,-0.000403,0.001235,0.016336,67.985252,-33.732922,-66.802483,,,,,,
1465313333.38,-0.595065,-0.034745,-2.436880,-0.002725,0.089663,-0.000135,-0.560225,0.034738,-0.827612,-0.001055,0.003500,0.022238,67.985252,-33.732922,-66.802483,,,,,,
,,,,,,,,,,,,,,,,29.719929,-95.399122,9.847343,-1.000000,-1.000000,1465315425.94
,,,,,,,,,,,,,,,,29.719928,-95.399121,9.847343,-1.000000,-1.000000,1465315419.39
1465313333.39,-0.593917,-0.034736,-2.436876,0.000489,0.106648,0.000826,-0.559274,0.034729,-0.828255,0.002939,-0.000717,0.000298,67.985252,-33.732922,-66.802483,,,,,,
1465313333.40,-0.593040,-0.034747,-2.436904,-0.003833,0.051446,-0.002026,-0.558547,0.034740,-0.828745,0.007155,-0.000515,-0.009939,67.999519,-33.728909,-66.789978,,,,,,
1465313333.41,-0.592960,-0.034693,-2.436859,0.019424,-0.085530,-0.003272,-0.558482,0.034686,-0.828791,0.014674,0.003659,-0.027395,67.999519,-33.728909,-66.789978,,,,,,
1465313333.42,-0.594571,-0.034498,-2.436776,0.003256,-0.237366,0.000857,-0.559821,0.034491,-0.827896,0.013235,-0.004081,-0.035950,67.999519,-33.728909,-66.789978,,,,,,
1465313333.43,-0.596725,-0.034606,-2.436809,-0.004061,-0.123760,0.003331,-0.561600,0.034599,-0.826685,-0.006958,0.001228,0.034037,68.034035,-33.742859,-66.747772,,,,,,
1465313333.44,-0.597004,-0.034654,-2.436797,0.004705,0.069490,-0.001065,-0.561829,0.034647,-0.826527,-0.010604,0.004049,0.040105,68.034035,-33.742859,-66.747772,,,,,,
1465313333.45,-0.596060,-0.034651,-2.436849,-0.004915,0.032345,-0.005100,-0.561049,0.034644,-0.827057,0.017745,-0.000312,-0.011032,68.034035,-33.742859,-66.747772,,,,,,
1465313333.46,-0.596264,-0.034614,-2.436833,0.001272,-0.121628,0.000130,-0.561219,0.034607,-0.826944,0.019776,-0.001312,-0.040595,67.869179,-33.738274,-66.917709,,,,,,
1465313333.47,-0.597757,-0.034591,-2.436809,0.000158,-0.155614,0.003535,-0.562453,0.034584,-0.826106,0.004378,-0.002022,-0.003530,67.869179,-33.738274,-66.917709,,,,,,
1465313333.48,-0.599106,-0.034564,-2.436802,0.001337,-0.066422,0.001912,-0.563568,0.034557,-0.825347,-0.011261,-0.002406,0.026229,67.869179,-33.738274,-66.917709,,,,,,
1465313333.49,-0.599613,-0.034569,-2.436818,-0.000699,0.004724,-0.000665,-0.563986,0.034562,-0.825061,-0.011163,-0.000261,0.025515,67.730202,-33.739323,-67.057831,,,,,,
1465313333.50,-0.599424,-0.034589,-2.436831,-0.000683,0.017465,-0.000745,-0.563830,0.034582,-0.825167,0.002886,0.000575,0.005037,67.730202,-33.739323,-67.057831,,,,,,
1465313333.51,-0.599429,-0.034639,-2.436828,0.001401,-0.018637,-0.000516,-0.563832,0.034632,-0.825163,0.003774,0.003576,-0.004564,67.730202,-33.739323,-67.057831,,,,,,
1465313333.52,-0.599652,-0.034662,-2.436824,-0.000722,-0.012268,0.000506,-0.564016,0.034655,-0.825036,0.000662,0.001585,0.004617,67.709267,-33.736160,-67.080566,,,,,,
1465313333.53,-0.599663,-0.034675,-2.436824,0.002505,0.011096,-0.001766,-0.564025,0.034668,-0.825030,0.000350,0.001434,0.008120,67.709267,-33.736160,-67.080566,,,,,,
1465313333.54,-0.599537,-0.034651,-2.436813,0.002501,0.011090,0.000363,-0.563922,0.034644,-0.825101,-0.000471,-0.000220,0.002821,67.692375,-33.735592,-67.097900,,,,,,
1465313333.55,-0.599457,-0.034642,-2.436817,0.001434,0.007908,-0.000682,-0.563856,0.034635,-0.825146,0.000730,0.000323,0.000531,67.692375,-33.735592,-67.097900,,,,,,
1465313333.56,-0.599235,-0.034589,-2.436804,0.001437,0.011091,0.000362,-0.563673,0.034582,-0.825274,0.006712,-0.002158,-0.000898,67.692375,-33.735592,-67.097900,,,,,,
1465313333.57,-0.599229,-0.034554,-2.436795,0.000358,-0.012320,0.000505,-0.563669,0.034547,-0.825278,0.000818,-0.002336,-0.004465,67.692375,-33.735592,-67.097900,,,,,,
1465313333.58,-0.599314,-0.034534,-2.436792,-0.002835,-0.011256,0.000496,-0.563740,0.034528,-0.825230,0.004154,-0.002194,0.000462,67.721146,-33.738712,-67.067307,,,,,,
1465313333.59,-0.599396,-0.034544,-2.436786,0.000366,-0.005949,0.000465,-0.563807,0.034537,-0.825184,0.003230,0.000344,0.005894,67.721146,-33.738712,-67.067307,,,,,,
1465313333.60,-0.599445,-0.034544,-2.436779,0.000354,-0.015505,0.000525,-0.563848,0.034537,-0.825156,0.004109,0.000390,-0.001199,67.716476,-33.740833,-67.070946,,,,,,
1465313333.61,-0.599613,-0.034532,-2.436774,0.000346,-0.021875,0.000565,-0.563987,0.034525,-0.825062,0.001685,-0.000956,-0.001827,67.716476,-33.740833,-67.070946,,,,,,
1465313333.62,-0.599777,-0.034603,-2.436762,0.002472,-0.022941,0.001639,-0.564120,0.034596,-0.824968,0.006915,0.004115,0.003785,67.716476,-33.740833,-67.070946,,,,,,
1465313333.63,-0.600048,-0.034595,-2.436772,0.000344,-0.025058,-0.000479,-0.564344,0.034589,-0.824815,-0.001009,-0.000684,0.002534,67.716476,-33.740833,-67.070946,,,,,,
1465313333.64,-0.600346,-0.034601,-2.436766,0.000351,-0.019749,-0.000512,-0.564590,0.034594,-0.824646,-0.000748,0.000791,0.006912,67.683243,-33.742405,-67.103683,,,,,,
1465313333.65,-0.600432,-0.034609,-2.436767,-0.001747,0.005735,-0.000674,-0.564661,0.034602,-0.824597,-0.000357,0.000478,0.006619,67.683243,-33.742405,-67.103683,,,,,,
1465313333.66,-0.600303,-0.034636,-2.436762,0.002520,0.012104,-0.000710,-0.564554,0.034629,-0.824670,0.003137,0.002633,0.003823,67.683243,-33.742405,-67.103683,,,,,,
1465313333.67,-0.600171,-0.034641,-2.436765,-0.001751,0.002550,-0.000654,-0.564444,0.034635,-0.824744,0.004828,0.000369,-0.000634,67.647293,-33.741882,-67.140182,,,,,,
1465313333.68,-0.600160,-0.034671,-2.436751,0.002491,-0.009135,0.000488,-0.564435,0.034664,-0.824750,0.004269,0.002231,-0.001056,67.647293,-33.741882,-67.140182,,,,,,
1465313333.69,-0.600198,-0.034653,-2.436746,0.001434,-0.002763,0.000447,-0.564467,0.034646,-0.824728,0.003432,-0.000817,0.004461,67.647293,-33.741882,-67.140182,,,,,,
1465313333.70,-0.600275,-0.034663,-2.436735,0.002501,-0.002761,-0.000616,-0.564530,0.034656,-0.824685,0.002305,0.002072,0.006753,67.655930,-33.742275,-67.131302,,,,,,
1465313333.71,-0.600238,-0.034609,-2.436730,0.000376,0.000426,-0.000639,-0.564501,0.034602,-0.824707,0.001696,-0.002757,-0.000321,67.655930,-33.742275,-67.131302,,,,,,
1465313333.72,-0.600179,-0.034626,-2.436735,0.000375,-0.000636,-0.000632,-0.564452,0.034619,-0.824740,0.003310,0.001117,-0.000868,67.655930,-33.742275,-67.131302,,,,,,
1465313333.73,-0.600170,-0.034610,-2.436750,0.000379,-0.000630,-0.002761,-0.564444,0.034603,-0.824746,0.002250,-0.000058,0.001564,67.654968,-33.744598,-67.131096,,,,,,
1465313333.74,-0.600250,-0.034626,-2.436739,0.004627,-0.005947,-0.000594,-0.564510,0.034619,-0.824700,0.001034,0.002505,0.004158,67.654968,-33.744598,-67.131096,,,,,,
1465313333.75,-0.600227,-0.034620,-2.436730,0.002509,0.003610,-0.000656,-0.564491,0.034613,-0.824713,0.002434,0.000940,0.003897,67.654968,-33.744598,-67.131096,,,,,,
1465313333.76,-0.600217,-0.034593,-2.436733,0.001441,-0.000634,-0.001695,-0.564484,0.034587,-0.824719,0.000260,-0.000041,0.000394,67.650345,-33.744175,-67.135963,,,,,,
1465313333.77,-0.600218,-0.034578,-2.436725,0.001435,-0.002763,0.000447,-0.564485,0.034571,-0.824719,0.002107,-0.000239,0.000256,67.650345,-33.744175,-67.135963,,,,,,
1465313333.78,-0.600222,-0.034551,-2.436713,0.001434,-0.004883,-0.000604,-0.564488,0.034544,-0.824718,0.003102,-0.000655,0.001430,67.650345,-33.744175,-67.135963,,,,,,
1465313333.79,-0.600221,-0.034492,-2.436716,0.001434,-0.004883,-0.000604,-0.564489,0.034486,-0.824720,0.002584,-0.002686,-0.000384,67.652916,-33.747860,-67.131523,,,,,,
1465313333.81,-0.600142,-0.034365,-2.436711,0.004638,0.000427,-0.001699,-0.564426,0.034359,-0.824768,0.000950,-0.002422,0.002106,67.652916,-33.747860,-67.131523,,,,,,
1465313333.80,-0.600145,-0.034449,-2.436720,-0.000682,0.005736,-0.000673,-0.564427,0.034443,-0.824764,0.003347,-0.001773,0.000881,67.652916,-33.747860,-67.131523,,,,,,
1465313333.82,-0.600190,-0.034382,-2.436705,0.002503,-0.000640,0.000435,-0.564466,0.034375,-0.824740,0.001172,0.001498,0.006610,67.660149,-33.749027,-67.123642,,,,,,
1465313333.83,-0.600232,-0.034329,-2.436699,0.002534,0.025901,0.001332,-0.564502,0.034323,-0.824718,-0.009778,-0.002279,0.008602,67.660149,-33.749027,-67.123642,,,,,,
1465313333.84,-0.599965,-0.034347,-2.436687,0.004729,0.076868,-0.000049,-0.564281,0.034341,-0.824869,-0.011235,0.002677,0.022806,67.660149,-33.749027,-67.123642,,,,,,
1465313333.85,-0.599248,-0.034294,-2.436686,0.005893,0.155437,-0.000541,-0.563690,0.034287,-0.825274,-0.024780,-0.000611,0.030826,67.673225,-33.753796,-67.108055,,,,,,
1465313333.86,-0.597719,-0.034295,-2.436680,0.009242,0.277541,-0.002368,-0.562428,0.034289,-0.826135,-0.033504,0.004881,0.048028,67.673225,-33.753796,-67.108055,,,,,,
1465313333.87,-0.594772,-0.034165,-2.436697,0.011561,0.424073,-0.006478,-0.559993,0.034158,-0.827793,-0.034276,-0.001626,0.053532,67.673225,-33.753796,-67.108055,,,,,,
1465313333.88,-0.590566,-0.034075,-2.436702,0.013841,0.546171,-0.006177,-0.556508,0.034069,-0.830144,-0.039363,0.002980,0.054738,67.824532,-33.755348,-66.954346,,,,,,
1465313333.89,-0.584831,-0.033879,-2.436734,0.013997,0.662978,-0.011168,-0.551742,0.033873,-0.833327,-0.031754,-0.002958,0.044875,67.824532,-33.755348,-66.954346,,,,,,
1465313333.90,-0.577863,-0.033698,-2.436746,0.016190,0.713943,-0.011485,-0.545925,0.033691,-0.837156,-0.009266,0.000275,0.023023,67.824532,-33.755348,-66.954346,,,,,,
1465313333.91,-0.571222,-0.033505,-2.436748,0.017161,0.640675,-0.009960,-0.540357,0.033498,-0.840769,0.010022,-0.000097,-0.011450,69.153557,-33.759418,-65.578682,,,,,,
1465313333.92,-0.565393,-0.033349,-2.436744,0.012805,0.568466,-0.006318,-0.535449,0.033343,-0.843909,0.018253,0.001112,-0.021631,69.153557,-33.759418,-65.578682,,,,,,
1465313333.93,-0.560057,-0.033191,-2.436735,0.013811,0.518566,-0.008133,-0.530942,0.033185,-0.846758,0.025571,-0.001874,-0.018537,69.153557,-33.759418,-65.578682,,,,,,
1465313333.94,-0.554960,-0.033014,-2.436691,0.014818,0.477148,-0.004679,-0.526622,0.033008,-0.849458,0.007228,-0.000355,-0.010008,69.972221,-33.765656,-64.701195,,,,,,
1465313333.95,-0.550039,-0.032900,-2.436695,0.009519,0.495204,-0.005862,-0.522438,0.032894,-0.852043,0.009758,-0.002605,-0.000374,69.972221,-33.765656,-64.701195,,,,,,
1465313333.96,-0.545244,-0.032753,-2.436661,0.014814,0.473963,-0.004659,-0.518349,0.032748,-0.854542,0.002739,0.000456,-0.000820,69.972221,-33.765656,-64.701195,,,,,,
1465313333.97,-0.540329,-0.032648,-2.436672,0.007395,0.497332,-0.006942,-0.514144,0.032642,-0.857083,0.003051,-0.002567,0.003140,71.269402,-33.783619,-63.259907,,,,,,
1465313333.98,-0.535177,-0.032518,-2.436666,0.012686,0.469727,-0.007828,-0.509723,0.032512,-0.859724,0.013569,0.000859,-0.005694,71.269402,-33.783619,-63.259907,,,,,,
1465313333.99,-0.531094,-0.032420,-2.436657,0.008311,0.385832,-0.001984,-0.506211,0.032414,-0.861800,0.017731,-0.003499,-0.021272,71.269402,-33.783619,-63.259907,,,,,,
1465313334.00,-0.527467,-0.032309,-2.436620,0.011482,0.365659,-0.002919,-0.503084,0.032303,-0.863634,0.004564,0.000030,-0.007643,71.906876,-33.787212,-62.532406,,,,,,
1465313334.02,-0.518637,-0.032191,-2.436582,0.012988,0.709689,-0.010397,-0.495440,0.032185,-0.868046,-0.059171,0.010112,0.084903,71.906876,-33.787212,-62.532406,,,,,,
1465313334.01,-0.523330,-0.032171,-2.436552,0.017951,0.433606,-0.001210,-0.499509,0.032166,-0.865712,-0.021335,0.001419,0.025502,71.906876,-33.787212,-62.532406,,,,,,
1465313334.03,-0.510149,-0.031973,-2.436613,0.020642,0.864717,-0.014555,-0.488057,0.031968,-0.872226,-0.023448,-0.001603,0.062549,72.934082,-33.800659,-61.323826,,,,,,
1465313334.05,-0.494706,-0.031536,-2.436655,0.018345,0.734111,-0.011609,-0.474536,0.031531,-0.879671,0.008731,-0.003699,-0.016264,72.934082,-33.800659,-61.323826,,,,,,
1465313334.04,-0.502106,-0.031730,-2.436628,0.018399,0.777645,-0.011882,-0.481030,0.031725,-0.876130,-0.001483,0.000975,-0.000457,72.934082,-33.800659,-61.323826,,,,,,
1465313334.06,-0.487064,-0.031350,-2.436651,0.012987,0.708630,-0.010390,-0.467803,0.031345,-0.883277,0.020782,0.001202,-0.012719,73.946793,-33.804245,-60.096756,,,,,,
1465313334.07,-0.481257,-0.031213,-2.436681,0.010620,0.522810,-0.007098,-0.462668,0.031208,-0.885982,0.051566,-0.005848,-0.051030,73.946793,-33.804245,-60.096756,,,,,,
1465313334.08,-0.477545,-0.031107,-2.436648,0.010371,0.332732,-0.000584,-0.459378,0.031102,-0.887696,0.040234,-0.001149,-0.063674,73.946793,-33.804245,-60.096756,,,,,,
1465313334.09,-0.474817,-0.031054,-2.436641,0.003893,0.256295,-0.003305,-0.456955,0.031049,-0.888948,0.045807,-0.003233,-0.044860,75.410660,-33.813019,-58.244205,,,,,,
1465313334.10,-0.471409,-0.030910,-2.436607,0.001515,0.055630,-0.003113,-0.453925,0.030905,-0.890504,0.082740,-0.004660,-0.070876,75.410660,-33.813019,-58.244205,,,,,,
1465313334.11,-0.473443,-0.030883,-2.436575,0.001092,-0.273544,0.004273,-0.455736,0.030878,-0.889579,0.067522,-0.002909,-0.106011,75.410660,-33.813019,-58.244205,,,,,,
1465313334.12,-0.476231,-0.030939,-2.436537,-0.002075,-0.250185,0.005188,-0.458213,0.030934,-0.888304,0.016288,-0.000172,-0.030382,75.768394,-33.820148,-57.773903,,,,,,
1465313334.13,-0.477198,-0.030913,-2.436524,0.002449,-0.047368,-0.001401,-0.459073,0.030908,-0.887861,-0.011661,0.000800,0.044447,75.768394,-33.820148,-57.773903,,,,,,
1465313334.14,-0.477792,-0.030982,-2.436564,-0.001767,-0.012330,-0.001625,-0.459599,0.030977,-0.887586,-0.010601,0.002440,0.029127,75.768394,-33.820148,-57.773903,,,,,,
1465313334.15,-0.478527,-0.031024,-2.436594,-0.004007,-0.099399,-0.000017,-0.460251,0.031019,-0.887247,0.013260,-0.002668,-0.020010,75.395576,-33.822933,-58.257973,,,,,,
1465313334.16,-0.480302,-0.031091,-2.436588,-0.006276,-0.203467,0.004891,-0.461823,0.031086,-0.886427,0.028428,-0.001805,-0.036745,75.395576,-33.822933,-58.257973,,,,,,
1465313334.17,-0.483117,-0.031161,-2.436569,-0.003214,-0.307528,0.006611,-0.464316,0.031156,-0.885121,0.036749,-0.002668,-0.040599,75.395576,-33.822933,-58.257973,,,,,,
1465313334.18,-0.486053,-0.031291,-2.436521,-0.005357,-0.316022,0.007727,-0.466911,0.031286,-0.883751,0.010017,0.002436,-0.016152,75.248177,-33.818882,-58.450577,,,,,,
1465313334.19,-0.488347,-0.031340,-2.436496,-0.002000,-0.191784,0.003758,-0.468937,0.031335,-0.882676,-0.017651,0.001136,0.027512,75.248177,-33.818882,-58.450577,,,,,,
1465313334.20,-0.489055,-0.031360,-2.436497,-0.002860,-0.033566,-0.000429,-0.469561,0.031355,-0.882343,-0.026258,0.005556,0.051945,75.248177,-33.818882,-58.450577,,,,,,
1465313334.21,-0.488680,-0.031369,-2.436517,0.000443,0.051379,-0.002023,-0.469230,0.031364,-0.882519,-0.025323,0.000695,0.039547,74.726509,-33.822826,-59.113792,,,,,,
1465313334.22,-0.488387,-0.031396,-2.436529,0.003663,0.075791,-0.000044,-0.468971,0.031391,-0.882656,-0.011910,0.001492,0.019832,74.726509,-33.822826,-59.113792,,,,,,
1465313334.23,-0.487400,-0.031390,-2.436528,0.002632,0.102336,-0.000211,-0.468100,0.031385,-0.883118,-0.009683,-0.000700,0.010560,74.726509,-33.822826,-59.113792,,,,,,
1465313334.24,-0.486169,-0.031351,-2.436523,0.003736,0.132069,-0.001461,-0.467013,0.031346,-0.883695,-0.006879,-0.002293,0.010877,74.766464,-33.819187,-59.065346,,,,,,
1465313334.25,-0.484392,-0.031314,-2.436524,0.003816,0.195777,-0.001860,-0.465442,0.031309,-0.884524,-0.016858,0.000384,0.021594,74.766464,-33.819187,-59.065346,,,,,,
1465313334.26,-0.482562,-0.031316,-2.436528,0.011381,0.284961,-0.002412,-0.463822,0.031311,-0.885375,-0.022384,0.003235,0.032851,74.766464,-33.819187,-59.065346,,,,,,
1465313334.27,-0.478681,-0.031197,-2.436507,0.012627,0.426186,-0.005425,-0.460385,0.031192,-0.887171,-0.038059,0.003445,0.049632,75.110451,-33.820648,-58.626446,,,,,,
1465313334.28,-0.473112,-0.031022,-2.436498,0.017104,0.597139,-0.008622,-0.455439,0.031017,-0.889727,-0.041341,0.003773,0.062731,75.110451,-33.820648,-58.626446,,,,,,
1465313334.29,-0.466188,-0.030817,-2.436498,0.016191,0.718185,-0.009382,-0.449271,0.030812,-0.892864,-0.036004,0.002757,0.056423,75.664711,-33.828457,-57.904778,,,,,,
1465313334.30,-0.458845,-0.030627,-2.436528,0.015194,0.770216,-0.010774,-0.442705,0.030622,-0.896144,-0.025496,0.000017,0.034328,75.664711,-33.828457,-57.904778,,,,,,
1465313334.31,-0.450870,-0.030370,-2.436536,0.023765,0.810563,-0.012083,-0.435548,0.030366,-0.899653,-0.019866,0.001861,0.025386,75.664711,-33.828457,-57.904778,,,,,,
1465313334.32,-0.442131,-0.030077,-2.436534,0.028137,0.900814,-0.012644,-0.427673,0.030073,-0.903433,-0.028290,0.000124,0.032706,76.489990,-33.832394,-56.807808,,,,,,
1465313334.33,-0.431995,-0.029750,-2.436529,0.032589,1.054773,-0.013606,-0.418498,0.029746,-0.907730,-0.041966,0.003564,0.057785,76.489990,-33.832394,-56.807808,,,,,,
1465313334.34,-0.419822,-0.029372,-2.436548,0.033942,1.277763,-0.019261,-0.407422,0.029368,-0.912768,-0.064166,0.003927,0.083254,76.489990,-33.832394,-56.807808,,,,,,
1465313334.35,-0.405690,-0.028963,-2.436617,0.037350,1.443411,-0.023489,-0.394487,0.028959,-0.918445,-0.048201,0.001345,0.080203,78.665894,-33.851944,-53.741955,,,,,,
1465313334.36,-0.390776,-0.028488,-2.436646,0.045941,1.504986,-0.021738,-0.380751,0.028484,-0.924239,-0.046159,-0.002162,0.054991,78.665894,-33.851944,-53.741955,,,,,,
1465313334.37,-0.373765,-0.027972,-2.436675,0.048428,1.789548,-0.023520,-0.364980,0.027969,-0.930595,-0.089396,0.001893,0.092369,78.665894,-33.851944,-53.741955,,,,,,
1465313334.38,-0.352740,-0.027342,-2.436748,0.058533,2.198351,-0.031396,-0.345341,0.027339,-0.938079,-0.096981,0.003331,0.150985,80.208153,-33.857719,-51.408012,,,,,,
1465313334.39,-0.329116,-0.026628,-2.436862,0.063050,2.400097,-0.034786,-0.323092,0.026625,-0.945993,-0.083844,0.000642,0.130502,80.208153,-33.857719,-51.408012,,,,,,
1465313334.40,-0.303914,-0.025912,-2.437001,0.063266,2.571051,-0.036922,-0.299157,0.025909,-0.953852,-0.082755,-0.000122,0.102763,80.208153,-33.857719,-51.408012,,,,,,
1465313334.41,-0.276791,-0.025123,-2.437183,0.073083,2.752623,-0.041245,-0.273184,0.025121,-0.961634,-0.059519,0.000743,0.098978,84.403526,-33.868069,-44.175484,,,,,,
1465313334.42,-0.248621,-0.024274,-2.437380,0.077441,2.833315,-0.040682,-0.245995,0.024272,-0.968967,-0.043510,0.005636,0.080906,84.403526,-33.868069,-44.175484,,,,,,
1465313334.43,-0.219152,-0.023439,-2.437607,0.077650,2.997897,-0.042778,-0.217342,0.023437,-0.975814,-0.055516,0.000230,0.084548,84.403526,-33.868069,-44.175484,,,,,,
1465313334.44,-0.187484,-0.022507,-2.437852,0.089647,3.225116,-0.044192,-0.186340,0.022505,-0.982227,-0.056549,-0.001127,0.108250,86.742340,-33.860195,-39.391998,,,,,,
1465313334.45,-0.153258,-0.021550,-2.438170,0.087858,3.491639,-0.049058,-0.152623,0.021549,-0.988050,-0.067714,0.005154,0.131604,86.742340,-33.860195,-39.391998,,,,,,
1465313334.46,-0.116755,-0.020552,-2.438577,0.096633,3.690203,-0.054553,-0.116466,0.020551,-0.992982,-0.050313,0.002169,0.130510,86.742340,-33.860195,-39.391998,,,,,,
1465313334.47,-0.078830,-0.019410,-2.439004,0.111722,3.838842,-0.053341,-0.078733,0.019409,-0.996707,-0.050844,0.004395,0.114383,91.224312,-33.810356,-27.521988,,,,,,
1465313334.48,-0.037581,-0.018331,-2.439536,0.103711,4.232793,-0.062206,-0.037566,0.018330,-0.999126,-0.023545,0.005077,0.187908,91.224312,-33.810356,-27.521988,,,,,,
1465313334.49,0.007223,-0.017110,-2.440187,0.124347,4.548152,-0.069486,0.007222,0.017109,-0.999828,-0.006581,0.003353,0.153606,91.224312,-33.810356,-27.521988,,,,,,
1465313334.50,0.053949,-0.015898,-2.440943,0.121357,4.707431,-0.072617,0.053916,0.015897,-0.998419,0.027245,0.000613,0.121100,93.150841,-33.757477,-20.145195,,,,,,
1465313334.51,0.101875,-0.014728,-2.441763,0.126811,4.811485,-0.073264,0.101688,0.014727,-0.994707,0.047863,0.003980,0.102495,93.150841,-33.757477,-20.145195,,,,,,
1465313334.52,0.150534,-0.013501,-2.442645,0.131167,4.892173,-0.071637,0.149953,0.013501,-0.988601,0.052516,0.003375,0.108657,94.645462,-33.665768,-11.459877,,,,,,
1465313334.53,0.200484,-0.012405,-2.443585,0.127061,5.011104,-0.074515,0.199128,0.012404,-0.979895,0.112700,-0.002089,0.053061,94.645462,-33.665768,-11.459877,,,,,,
1465313334.54,0.249239,-0.011232,-2.444625,0.136402,4.814671,-0.075403,0.246651,0.011232,-0.969039,0.119652,0.003661,0.000595,94.645462,-33.665768,-11.459877,,,,,,
1465313334.55,0.295929,-0.010336,-2.445610,0.108468,4.619305,-0.071012,0.291613,0.010336,-0.956480,0.154874,-0.013296,-0.049608,95.150871,-33.396706,7.310769,,,,,,
1465313334.56,0.339695,-0.009393,-2.446613,0.122951,4.289064,-0.064669,0.333185,0.009393,-0.942815,0.136679,-0.001336,-0.050258,95.150871,-33.396706,7.310769,,,,,,
1465313334.57,0.380701,-0.008621,-2.447531,0.098158,4.054404,-0.057900,0.371557,0.008620,-0.928370,0.111643,-0.007415,-0.032461,95.150871,-33.396706,7.310769,,,,,,
1465313334.58,0.420278,-0.007837,-2.448509,0.118249,3.926933,-0.060275,0.408002,0.007837,-0.912948,0.116138,0.001547,-0.013185,94.143181,-33.239792,15.957915,,,,,,
1465313334.59,0.458486,-0.007207,-2.449470,0.091431,3.765555,-0.060354,0.442579,0.007207,-0.896700,0.132921,-0.009556,-0.065534,94.143181,-33.239792,15.957915,,,,,,
1465313334.60,0.493376,-0.006620,-2.450355,0.095197,3.389646,-0.047348,0.473592,0.006620,-0.880720,0.094813,-0.003629,-0.091555,94.143181,-33.239792,15.957915,,,,,,
1465313334.62,0.556585,-0.005607,-2.451989,0.079858,3.044567,-0.045200,0.528281,0.005607,-0.849051,0.063806,-0.011100,-0.059244,90.655487,-32.932728,30.323143,,,,,,
1465313334.61,0.525580,-0.006051,-2.451196,0.086434,3.194278,-0.046132,0.501706,0.006051,-0.865017,0.111499,-0.001687,-0.037601,90.655487,-32.932728,30.323143,,,,,,
1465313334.63,0.585641,-0.005120,-2.452784,0.082833,2.877848,-0.038829,0.552726,0.005120,-0.833347,0.062050,-0.000954,-0.019436,90.655487,-32.932728,30.323143,,,,,,
1465313334.65,0.643107,-0.004216,-2.454322,0.093519,2.913935,-0.035851,0.599679,0.004216,-0.800230,-0.029244,-0.000187,0.071149,88.586693,-32.795166,36.046513,,,,,,
1465313334.64,0.614156,-0.004719,-2.453514,0.071087,2.854489,-0.036565,0.576263,0.004719,-0.817251,0.016816,0.002468,0.018560,88.586693,-32.795166,36.046513,,,,,,
1465313334.66,0.674102,-0.003732,-2.455211,0.090679,3.187897,-0.042894,0.624191,0.003732,-0.781263,-0.065048,0.006629,0.158216,88.586693,-32.795166,36.046513,,,,,,
1465313334.67,0.709446,-0.003316,-2.456196,0.098718,3.644485,-0.052137,0.651410,0.003316,-0.758719,-0.045163,-0.000524,0.153510,83.792679,-32.521561,46.299152,,,,,,
1465313334.68,0.747710,-0.002851,-2.457361,0.112844,3.869584,-0.054599,0.679959,0.002851,-0.733245,-0.063366,0.004764,0.142424,83.792679,-32.521561,46.299152,,,,,,
1465313334.69,0.788657,-0.002479,-2.458528,0.107939,4.195574,-0.061970,0.709405,0.002479,-0.704796,-0.038141,0.001778,0.164513,83.792679,-32.521561,46.299152,,,,,,
1465313334.70,0.833374,-0.002079,-2.459929,0.137133,4.542784,-0.069441,0.740203,0.002079,-0.672381,-0.032637,0.001232,0.171892,80.192146,-32.332809,52.405010,,,,,,
1465313334.71,0.880975,-0.001789,-2.461361,0.119407,4.837980,-0.073439,0.771358,0.001789,-0.636399,0.008030,0.001187,0.150284,80.192146,-32.332809,52.405010,,,,,,
1465313334.72,0.930694,-0.001557,-2.462828,0.139817,4.989793,-0.069049,0.802034,0.001557,-0.597277,-0.003801,0.007461,0.115343,80.192146,-32.332809,52.405010,,,,,,
1465313334.73,0.982034,-0.001351,-2.464506,0.144355,5.190509,-0.084141,0.831628,0.001351,-0.555332,0.105613,-0.005013,0.115909,69.388153,-31.836912,66.288544,,,,,,
1465313334.75,1.082510,-0.001480,-2.467507,0.129931,4.733927,-0.075969,0.883137,0.001480,-0.469113,0.227047,-0.002227,-0.122730,69.388153,-31.836912,66.288544,,,,,,
1465313334.74,1.033931,-0.001410,-2.465999,0.116632,5.159728,-0.082911,0.859316,0.001410,-0.511444,0.160689,-0.001242,-0.016831,69.388153,-31.836912,66.288544,,,,,,
1465313334.76,1.125274,-0.001586,-2.468789,0.102515,4.111701,-0.063579,0.902385,0.001586,-0.430929,0.229207,-0.014587,-0.202723,69.388153,-31.836912,66.288544,,,,,,
1465313334.77,1.162017,-0.001670,-2.469971,0.104983,3.542555,-0.053620,0.917605,0.001670,-0.397489,0.259259,-0.012947,-0.185228,55.342720,-31.271891,78.623970,,,,,,
1465313334.78,1.192961,-0.001795,-2.470871,0.072244,2.920331,-0.041235,0.929464,0.001795,-0.368909,0.222285,-0.007670,-0.229586,55.342720,-31.271891,78.623970,,,,,,
1465313334.79,1.217400,-0.001813,-2.471656,0.074670,2.321450,-0.028961,0.938201,0.001813,-0.346086,0.128007,-0.002256,-0.154860,55.342720,-31.271891,78.623970,,,,,,
1465313334.80,1.239624,-0.001832,-2.472415,0.064961,2.220583,-0.028338,0.945660,0.001832,-0.325151,0.079349,-0.006090,-0.017287,49.927994,-31.071070,82.245117,,,,,,
1465313334.81,1.262094,-0.001927,-2.473036,0.059671,2.249252,-0.027459,0.952727,0.001927,-0.303822,0.010194,0.002116,-0.003459,49.927994,-31.071070,82.245117,,,,,,
1465313334.82,1.285056,-0.001963,-2.473884,0.082137,2.334185,-0.027969,0.959451,0.001963,-0.281867,-0.025614,0.007314,0.085257,46.053577,-30.923964,84.529594,,,,,,
1465313334.83,1.310747,-0.002147,-2.474592,0.059130,2.649582,-0.040614,0.966375,0.002147,-0.257127,-0.026434,-0.001643,0.103471,46.053577,-30.923964,84.529594,,,,,,
1465313334.84,1.339092,-0.002375,-2.475423,0.084953,2.862995,-0.042991,0.973274,0.002375,-0.229636,-0.004585,0.007192,0.046164,46.053577,-30.923964,84.529594,,,,,,
1465313334.85,1.367594,-0.002610,-2.476372,0.081706,2.822645,-0.041677,0.979422,0.002610,-0.201807,0.034830,-0.000535,0.015161,37.468769,-30.629641,88.771576,,,,,,
1465313334.87,1.423725,-0.003126,-2.477987,0.092387,2.852365,-0.039724,0.989200,0.003126,-0.146541,0.019177,-0.000608,0.035167,37.468769,-30.629641,88.771576,,,,,,
1465313334.86,1.395339,-0.002879,-2.477076,0.063536,2.770620,-0.039240,0.984643,0.002879,-0.174558,0.022712,-0.000865,0.000257,37.468769,-30.629641,88.771576,,,,,,
1465313334.88,1.453051,-0.003414,-2.478872,0.079728,2.939452,-0.044541,0.993070,0.003414,-0.117473,0.014864,-0.001858,0.055797,32.442661,-30.464420,90.784744,,,,,,
1465313334.89,1.483342,-0.003786,-2.479717,0.083047,3.044560,-0.042003,0.996171,0.003786,-0.087342,-0.008928,0.005842,0.053712,32.442661,-30.464420,90.784744,,,,,,
1465313334.90,1.515204,-0.004150,-2.480716,0.099220,3.201706,-0.045101,0.998447,0.004150,-0.055563,-0.007861,-0.004043,0.073187,32.442661,-30.464420,90.784744,,,,,,
1465313334.91,1.548905,-0.004564,-2.481662,0.089926,3.433182,-0.045498,0.999750,0.004564,-0.021889,-0.029627,0.005675,0.116311,21.397308,-30.097740,94.120972,,,,,,
1465313334.93,1.623831,-0.005714,-2.483609,0.101084,3.823950,-0.058582,0.998578,0.005714,0.053009,0.054386,0.005287,0.044602,21.397308,-30.097740,94.120972,,,,,,
1465313334.92,1.585775,-0.005098,-2.482592,0.096696,3.726257,-0.054780,0.999875,0.005098,0.014978,0.008350,0.002073,0.094076,21.397308,-30.097740,94.120972,,,,,,
1465313334.94,1.661149,-0.006311,-2.484547,0.103014,3.676338,-0.050203,0.995901,0.006310,0.090228,0.023539,-0.005136,-0.011126,14.734098,-29.903811,95.452309,,,,,,
1465313334.96,1.740801,-0.007609,-2.486588,0.103808,4.302815,-0.058389,0.985555,0.007609,0.169182,0.012156,0.007619,0.160332,14.734098,-29.903811,95.452309,,,,,,
1465313334.95,1.698852,-0.006896,-2.485637,0.112779,3.827101,-0.047946,0.991789,0.006896,0.127703,-0.007261,0.002748,0.121977,14.734098,-29.903811,95.452309,,,,,,
1465313334.97,1.784959,-0.008476,-2.487598,0.123093,4.389888,-0.064238,0.977120,0.008476,0.212522,0.039833,-0.004433,0.047167,14.734098,-29.903811,95.452309,,,,,,
1465313334.98,1.828792,-0.009354,-2.488713,0.128435,4.411110,-0.060108,0.966861,0.009353,0.255132,0.000317,0.005310,0.115123,-0.129989,-29.482407,96.712189,,,,,,
1465313334.99,1.876409,-0.010346,-2.489718,0.126913,4.886813,-0.068416,0.953612,0.010346,0.300861,-0.006026,0.009719,0.204266,-0.129989,-29.482407,96.712189,,,,,,
1465313335.00,1.928776,-0.011562,-2.490893,0.158354,5.324282,-0.078579,0.936544,0.011562,0.350359,-0.024755,0.005223,0.203169,-0.129989,-29.482407,96.712189,,,,,,
1465313335.01,1.985764,-0.012931,-2.492029,0.148377,5.850955,-0.087214,0.915053,0.012930,0.403127,0.001100,0.012995,0.269420,-18.140034,-29.007311,95.141953,,,,,,
1465313335.02,2.048117,-0.014465,-2.492998,0.161793,6.344713,-0.099878,0.888136,0.014465,0.459353,0.055208,0.009568,0.240339,-18.140034,-29.007311,95.141953,,,,,,
1465313335.03,2.113387,-0.016197,-2.494069,0.178052,6.581476,-0.097089,0.856262,0.016196,0.516288,0.077866,0.009530,0.204552,-18.140034,-29.007311,95.141953,,,,,,
1465313335.04,2.181719,-0.017692,-2.494781,0.113533,6.954148,-0.080330,0.818991,0.017691,0.573534,0.240885,0.035181,0.148313,-29.294413,-28.758808,92.397202,,,,,,
1465313335.05,2.244887,-0.019405,-2.495105,0.149510,5.905107,-0.087553,0.781128,0.019404,0.624070,0.509812,-0.044749,-0.348847,-29.294413,-28.758808,92.397202,,,,,,
1465313335.06,2.291949,-0.020832,-2.495862,0.128428,4.412161,-0.055857,0.750882,0.020831,0.660108,0.358371,-0.002642,-0.372266,-29.294413,-28.758808,92.397202,,,,,,
1465313335.07,2.332723,-0.021718,-2.496144,0.073612,4.018230,-0.042797,0.723337,0.021716,0.690154,0.306174,-0.004581,-0.130385,-50.656330,-28.379982,82.770699,,,,,,
1465313335.08,2.371255,-0.022751,-2.496454,0.108442,3.764459,-0.047557,0.696197,0.022749,0.717490,0.253312,0.010683,-0.153190,-50.656330,-28.379982,82.770699,,,,,,
1465313335.09,2.404477,-0.023682,-2.496759,0.068298,3.171984,-0.040688,0.671967,0.023680,0.740203,0.217010,-0.019224,-0.154708,-50.656330,-28.379982,82.770699,,,,,,
1465313335.10,2.432836,-0.024177,-2.496773,0.046440,2.734512,-0.030515,0.650700,0.024175,0.758950,0.210796,-0.005117,-0.168893,-57.029640,-28.291422,78.547386,,,,,,
1465313335.11,2.457945,-0.024886,-2.497035,0.063121,2.458423,-0.024509,0.631430,0.024883,0.775034,0.177851,0.000843,-0.142648,-57.029640,-28.291422,78.547386,,,,,,
1465313335.12,2.479439,-0.025300,-2.497002,0.022084,1.996562,-0.022718,0.614620,0.025297,0.788418,0.269413,-0.017744,-0.197292,-57.029640,-28.291422,78.547386,,,,,,
1465313335.13,2.494304,-0.025610,-2.497081,0.035080,1.337150,-0.008989,0.602828,0.025608,0.797460,0.216203,-0.002811,-0.254659,-65.146103,-28.196558,71.995941,,,,,,
1465313335.14,2.505127,-0.025823,-2.497154,0.012317,1.017556,-0.005943,0.594159,0.025820,0.803933,0.224933,-0.015383,-0.182123,-65.146103,-28.196558,71.995941,,,,,,
1465313335.15,2.513065,-0.025888,-2.497125,0.004481,0.708581,-0.006142,0.587758,0.025885,0.808623,0.225658,-0.011816,-0.180739,-65.146103,-28.196558,71.995941,,,,,,
1465313335.16,2.517390,-0.025984,-2.497154,0.009347,0.345439,-0.002795,0.584253,0.025981,0.811155,0.225180,-0.022273,-0.185377,-66.968796,-28.173201,70.313065,,,,,,
1465313335.17,2.518854,-0.025951,-2.497137,-0.002696,0.086356,0.002011,0.583065,0.025948,0.812011,0.199649,-0.023262,-0.158202,-66.968796,-28.173201,70.313065,,,,,,
1465313335.18,2.519750,-0.026012,-2.497133,0.003753,0.121416,-0.006718,0.582337,0.026009,0.812531,0.161148,-0.021004,-0.069673,-66.968796,-28.173201,70.313065,,,,,,
1465313335.19,2.521732,-0.026089,-2.497028,0.001738,0.202131,-0.013613,0.580724,0.026086,0.813682,0.162791,-0.015542,-0.065559,-67.986160,-28.172028,69.330330,,,,,,
1465313335.20,2.522753,-0.026231,-2.496930,0.006882,0.053485,-0.015869,0.579891,0.026228,0.814272,0.161213,-0.016142,-0.104845,-67.986160,-28.172028,69.330330,,,,,,
1465313335.21,2.521788,-0.026291,-2.496796,-0.001882,-0.144003,-0.015704,0.580675,0.026288,0.813711,0.135038,-0.010724,-0.126455,-67.986160,-28.172028,69.330330,,,,,,
1465313335.22,2.518578,-0.026329,-2.496670,-0.008577,-0.385035,-0.012070,0.583284,0.026326,0.811842,0.114241,-0.009358,-0.126356,-68.185425,-28.187784,69.127937,,,,,,
1465313335.23,2.512224,-0.026308,-2.496538,-0.011140,-0.728001,-0.007793,0.588431,0.026305,0.808119,0.106302,-0.011519,-0.120604,-68.185425,-28.187784,69.127937,,,,,,
1465313335.24,2.502137,-0.026171,-2.496395,-0.019072,-1.102826,-0.001192,0.596554,0.026168,0.802146,0.078052,-0.008590,-0.117957,-68.185425,-28.187784,69.127937,,,,,,
1465313335.25,2.488401,-0.025970,-2.496277,-0.024855,-1.463845,0.004260,0.607519,0.025968,0.793881,0.043253,-0.011655,-0.083325,-66.733841,-28.239920,70.509422,,,,,,
1465313335.26,2.471455,-0.025677,-2.496114,-0.035882,-1.766453,0.006147,0.620890,0.025674,0.783478,0.027990,-0.009271,-0.055389,-66.733841,-28.239920,70.509422,,,,,,
1465313335.27,2.451253,-0.025296,-2.495933,-0.041660,-2.122166,0.012630,0.636595,0.025294,0.770783,0.041505,-0.008005,-0.054596,-66.733841,-28.239920,70.509422,,,,,,
1465313335.28,2.426667,-0.024851,-2.495799,-0.042197,-2.545834,0.018479,0.655359,0.024849,0.754909,0.011557,-0.011284,-0.028881,-64.541267,-28.275085,72.508072,,,,,,
1465313335.29,2.399292,-0.024276,-2.495598,-0.061675,-2.786869,0.025294,0.675786,0.024273,0.736698,-0.010533,-0.002316,0.027493,-64.541267,-28.275085,72.508072,,,,,,
1465313335.30,2.370473,-0.023693,-2.495338,-0.056497,-2.913208,0.019705,0.696743,0.023691,0.716930,-0.001384,-0.002618,0.058339,-64.541267,-28.275085,72.508072,,,,,,
1465313335.31,2.339605,-0.023085,-2.495098,-0.063198,-3.150007,0.028634,0.718548,0.023083,0.695094,-0.008862,0.001438,0.043584,-56.924889,-28.382393,78.590538,,,,,,
1465313335.32,2.307414,-0.022387,-2.494803,-0.071806,-3.219026,0.031187,0.740560,0.022385,0.671618,-0.010030,0.000564,0.078749,-56.924889,-28.382393,78.590538,,,,,,
1465313335.33,2.276074,-0.021728,-2.494484,-0.064196,-3.095858,0.029358,0.761252,0.021726,0.648092,-0.018897,0.010028,0.105402,-56.924889,-28.382393,78.590538,,,,,,
1465313335.34,2.247218,-0.021160,-2.494179,-0.058499,-2.804915,0.023281,0.779643,0.021158,0.625867,-0.042735,0.008398,0.131305,-51.875374,-28.455362,81.986069,,,,,,
1465313335.35,2.221847,-0.020683,-2.493834,-0.056971,-2.443888,0.015696,0.795277,0.020682,0.605893,-0.048497,0.009882,0.137119,-51.875374,-28.455362,81.986069,,,,,,
1465313335.36,2.200243,-0.020347,-2.493566,-0.035231,-2.093494,0.010327,0.808186,0.020346,0.588576,-0.076359,0.005091,0.113954,-51.875374,-28.455362,81.986069,,,,,,
1465313335.37,2.183095,-0.020148,-2.493360,-0.030309,-1.573198,0.001747,0.818163,0.020147,0.574633,-0.105288,0.000605,0.171171,-42.832085,-28.607433,87.002892,,,,,,
1465313335.38,2.171294,-0.020065,-2.493125,-0.017938,-1.061392,-0.009966,0.824888,0.020064,0.564939,-0.105604,0.000703,0.169695,-42.832085,-28.607433,87.002892,,,,,,
1465313335.39,2.163458,-0.020159,-2.492998,-0.003630,-0.698248,-0.017552,0.829289,0.020157,0.558457,-0.104160,0.005401,0.134246,-42.832085,-28.607433,87.002892,,,,,,
1465313335.40,2.166111,-0.020585,-2.492728,0.001024,-0.389216,-0.022679,0.827797,0.020583,0.560651,-0.101478,0.005113,0.125446,-40.294540,-28.654167,88.191635,,,,,,
1465313335.41,2.164689,-0.020809,-2.492637,0.007830,-0.055814,-0.024763,0.828589,0.020808,0.559470,-0.105384,0.011114,0.128854,-40.294540,-28.654167,88.191635,,,,,,
1465313335.42,2.175452,-0.021447,-2.492446,0.022152,0.320116,-0.031364,0.822509,0.021446,0.568348,-0.100265,0.004860,0.123211,-40.294540,-28.654167,88.191635,,,,,,
1465313335.43,2.181037,-0.021871,-2.492470,0.030002,0.629108,-0.037552,0.819314,0.021869,0.572928,-0.100778,0.016720,0.114969,-40.615955,-28.696104,88.030411,,,,,,
1465313335.44,2.188698,-0.022320,-2.492523,0.027020,0.805358,-0.034402,0.814893,0.022318,0.579182,-0.083951,0.011023,0.110363,-40.615955,-28.696104,88.030411,,,,,,
1465313335.45,2.197692,-0.022775,-2.492557,0.029303,0.932764,-0.032006,0.809642,0.022773,0.586482,-0.064678,0.008431,0.093023,-40.615955,-28.696104,88.030411,,,,,,
1465313335.46,2.208145,-0.023322,-2.492659,0.039018,1.040000,-0.031604,0.803458,0.023320,0.594905,-0.049475,0.010387,0.096792,-41.759495,-28.674210,87.500923,,,,,,
1465313335.47,2.219133,-0.023848,-2.492773,0.046585,1.117531,-0.040598,0.796862,0.023845,0.603690,-0.057681,-0.002208,0.065454,-41.759495,-28.674210,87.500923,,,,,,
1465313335.48,2.231450,-0.024345,-2.492873,0.039324,1.278914,-0.036295,0.789357,0.024342,0.613451,-0.050298,0.001628,0.067030,-41.759495,-28.674210,87.500923,,,,,,
1465313335.49,2.246182,-0.024970,-2.493027,0.052439,1.545426,-0.040083,0.780223,0.024968,0.625003,-0.032756,-0.002919,0.071500,-45.422085,-28.606977,85.679352,,,,,,
1465313335.50,2.263852,-0.025728,-2.493183,0.060257,1.822577,-0.050329,0.769043,0.025725,0.638680,-0.010925,-0.001860,0.074989,-45.422085,-28.606977,85.679352,,,,,,
1465313335.51,2.282562,-0.026443,-2.493277,0.052846,1.862917,-0.046331,0.756945,0.026440,0.652944,0.018629,0.016712,0.006801,-45.422085,-28.606977,85.679352,,,,,,
1465313335.52,2.300552,-0.027215,-2.493500,0.069775,1.786444,-0.040513,0.745061,0.027212,0.666441,0.026789,0.000284,-0.026838,-48.149834,-28.554323,84.194534,,,,,,
1465313335.53,2.319207,-0.027925,-2.493662,0.058225,1.908569,-0.045548,0.732486,0.027921,0.680210,0.013272,0.008090,-0.008151,-48.149834,-28.554323,84.194534,,,,,,
1465313335.54,2.339069,-0.028632,-2.493782,0.058332,1.995634,-0.045029,0.718817,0.028628,0.694609,0.027032,0.013029,-0.005065,-48.149834,-28.554323,84.194534,,,,,,
1465313335.55,2.358315,-0.029304,-2.493915,0.050739,1.897928,-0.035909,0.705303,0.029300,0.708300,0.049046,0.009625,-0.020007,-54.294235,-28.448313,80.407120,,,,,,
1465313335.56,2.376495,-0.029876,-2.493978,0.047413,1.793870,-0.034195,0.692299,0.029872,0.720993,0.082970,0.004201,-0.058746,-54.294235,-28.448313,80.407120,,,,,,
1465313335.57,2.393752,-0.030526,-2.494135,0.060069,1.701481,-0.031474,0.679740,0.030521,0.732818,0.079446,-0.002140,-0.054610,-54.294235,-28.448313,80.407120,,,,,,
1465313335.58,2.409800,-0.031058,-2.494210,0.042900,1.581449,-0.031804,0.667882,0.031053,0.743619,0.079798,-0.007844,-0.052884,-57.244755,-28.408583,78.348358,,,,,,
1465313335.59,2.424037,-0.031571,-2.494283,0.049090,1.420056,-0.032914,0.657217,0.031566,0.753040,0.089121,-0.009059,-0.075962,-57.244755,-28.408583,78.348358,,,,,,
1465313335.60,2.436393,-0.032108,-2.494381,0.043496,1.207691,-0.029459,0.647852,0.032102,0.761090,0.110418,-0.016340,-0.084973,-57.244755,-28.408583,78.348358,,,,,,
1465313335.61,2.446288,-0.032540,-2.494460,0.042197,1.022931,-0.027237,0.640280,0.032534,0.767452,0.093332,-0.010775,-0.081890,-61.800800,-28.332455,74.835876,,,,,,
1465313335.62,2.454005,-0.032924,-2.494563,0.038839,0.892323,-0.026421,0.634331,0.032918,0.772360,0.075691,-0.006032,-0.066504,-61.800800,-28.332455,74.835876,,,,,,
1465313335.63,2.462138,-0.033320,-2.494572,0.030178,0.782953,-0.022551,0.628020,0.033314,0.777484,0.075395,0.003261,-0.072253,-61.800800,-28.332455,74.835876,,,,,,
1465313335.64,2.468635,-0.033700,-2.494612,0.032076,0.601377,-0.019281,0.622948,0.033694,0.781538,0.072731,0.002164,-0.082273,-63.098885,-28.301214,73.756676,,,,,,
1465313335.65,2.473328,-0.033967,-2.494601,0.016951,0.427249,-0.018204,0.619267,0.033960,0.784445,0.077815,-0.000132,-0.086295,-63.098885,-28.301214,73.756676,,,,,,
1465313335.66,2.470278,-0.033771,-2.494810,0.018860,0.258378,-0.012885,0.621661,0.033765,0.782558,0.086179,-0.008359,-0.075313,-63.098885,-28.301214,73.756676,,,,,,
1465313335.67,2.471094,-0.033970,-2.494817,0.012168,0.019470,-0.009264,0.621018,0.033963,0.783060,0.077300,-0.003629,-0.084863,-64.281921,-28.263273,72.742683,,,,,,
1465313335.68,2.463696,-0.034222,-2.495025,0.007619,-0.205669,-0.004664,0.626789,0.034216,0.778438,0.066204,0.002085,-0.087596,-64.281921,-28.263273,72.742683,,,,,,
1465313335.69,2.460783,-0.034293,-2.495056,0.008530,-0.323538,-0.000731,0.629052,0.034287,0.776607,0.065787,-0.001496,-0.060832,-64.281921,-28.263273,72.742683,,,,,,
1465313335.70,2.456512,-0.034301,-2.495054,0.000899,-0.466875,-0.000904,0.632363,0.034294,0.773912,0.055426,0.001778,-0.058168,-63.799015,-28.235104,73.177460,,,,,,
1465313335.71,2.450812,-0.034285,-2.495052,-0.001398,-0.598540,0.000984,0.636765,0.034278,0.770296,0.048599,-0.006233,-0.053346,-63.799015,-28.235104,73.177460,,,,,,
1465313335.72,2.441759,-0.033839,-2.495129,-0.000416,-0.665448,0.001405,0.643722,0.033832,0.764511,0.034959,-0.010059,-0.040833,-63.799015,-28.235104,73.177460,,,,,,
1465313335.73,2.434604,-0.033796,-2.495115,-0.009021,-0.731281,0.003938,0.649176,0.033789,0.759888,0.043558,-0.012427,-0.005401,-62.187973,-28.231630,74.552711,,,,,,
1465313335.74,2.427196,-0.033769,-2.495089,0.001626,-0.739766,-0.001320,0.654788,0.033763,0.755058,0.024334,-0.007151,-0.021247,-62.187973,-28.231630,74.552711,,,,,,
1465313335.75,2.420425,-0.033715,-2.495039,-0.009977,-0.652693,-0.001878,0.659887,0.033708,0.750608,0.022333,0.009199,-0.017408,-62.187973,-28.231630,74.552711,,,,,,
1465313335.76,2.413453,-0.033988,-2.495033,-0.004615,-0.620848,-0.001008,0.665098,0.033981,0.745983,0.032977,0.015259,-0.009548,-61.096008,-28.236656,75.448296,,,,,,
1465313335.77,2.407055,-0.033837,-2.494964,-0.018498,-0.645277,0.004454,0.669861,0.033830,0.741716,0.019806,0.031554,-0.051133,-61.096008,-28.236656,75.448296,,,,,,
1465313335.78,2.400448,-0.033645,-2.494930,-0.019604,-0.664412,0.013088,0.674751,0.033639,0.737278,0.040276,0.030219,-0.037770,-61.096008,-28.236656,75.448296,,,,,,
1465313335.79,2.393947,-0.033424,-2.494889,-0.019563,-0.633617,0.011831,0.679535,0.033418,0.732882,0.033921,0.013808,-0.041033,-59.054951,-28.253887,77.050034,,,,,,
1465313335.80,2.387959,-0.033002,-2.494849,-0.016127,-0.447797,0.006411,0.683921,0.032996,0.728810,0.044198,-0.010673,-0.013661,-59.054951,-28.253887,77.050034,,,,,,
1465313335.81,2.385484,-0.032953,-2.494786,-0.007265,-0.183394,-0.001625,0.685723,0.032947,0.727116,0.050574,-0.021366,0.011440,-59.054951,-28.253887,77.050034,,,,,,
1465313335.82,2.383611,-0.032603,-2.494749,0.001463,-0.029421,-0.011097,0.687092,0.032598,0.725839,0.030346,-0.007650,-0.005685,-58.098648,-28.272577,77.766861,,,,,,
1465313335.83,2.382198,-0.032174,-2.494703,-0.002840,-0.065525,-0.010874,0.688126,0.032168,0.724877,0.025756,-0.010623,-0.002252,-58.098648,-28.272577,77.766861,,,,,,
1465313335.84,2.379458,-0.032994,-2.494643,-0.007374,-0.273657,-0.003188,0.690091,0.032988,0.722970,-0.009427,0.017092,-0.025537,-58.098648,-28.272577,77.766861,,,,,,
1465313335.85,2.374137,-0.033762,-2.494569,-0.023747,-0.576294,0.009337,0.693911,0.033756,0.719269,-0.016390,0.020581,-0.021744,-57.430920,-28.292431,78.254089,,,,,,
1465313335.86,2.365452,-0.034318,-2.494490,-0.029585,-0.974487,0.019279,0.700118,0.034311,0.713202,-0.033095,0.027334,-0.022986,-57.430920,-28.292431,78.254089,,,,,,
1465313335.87,2.352024,-0.033872,-2.494454,-0.038742,-1.465068,0.034055,0.709642,0.033866,0.703748,-0.023699,0.005914,-0.006131,-57.430920,-28.292431,78.254089,,,,,,
1465313335.88,2.335702,-0.033177,-2.494359,-0.057074,-1.646632,0.037304,0.721051,0.033171,0.692088,-0.026684,-0.006224,0.022008,-56.299557,-28.284538,79.074776,,,,,,
1465313335.89,2.321742,-0.032661,-2.494271,-0.029995,-1.294101,0.025540,0.730654,0.032655,0.681966,-0.014910,-0.001725,0.038981,-56.299557,-28.284538,79.074776,,,,,,
1465313335.90,2.310502,-0.032355,-2.494278,-0.023359,-1.100850,0.022206,0.738280,0.032350,0.673718,-0.021025,-0.000200,0.097125,-56.299557,-28.284538,79.074776,,,,,,
1465313335.91,2.299337,-0.031945,-2.494140,-0.039354,-1.119955,0.022310,0.745766,0.031939,0.665442,-0.028130,-0.005343,0.044870,-51.908066,-28.338072,82.005989,,,,,,
1465313335.92,2.289284,-0.031583,-2.494065,-0.023235,-1.003160,0.020529,0.752426,0.031578,0.657919,-0.043076,0.000221,0.050913,-51.908066,-28.338072,82.005989,,,,,,
1465313335.93,2.280820,-0.031294,-2.493989,-0.028292,-0.793976,0.017083,0.757975,0.031289,0.651532,-0.029704,0.007606,0.063464,-51.908066,-28.338072,82.005989,,,,,,
1465313335.94,2.273582,-0.031002,-2.493903,-0.021812,-0.719656,0.017688,0.762678,0.030997,0.646035,-0.036360,0.011194,0.047675,-50.168442,-28.371513,83.070213,,,,,,
1465313335.95,2.266178,-0.030662,-2.493875,-0.030369,-0.738785,0.025251,0.767449,0.030657,0.640377,-0.030602,0.011106,0.040821,-50.168442,-28.371513,83.070213,,,,,,
1465313335.96,2.260593,-0.030449,-2.493800,-0.016257,-0.534903,0.016535,0.771018,0.030444,0.636086,-0.048148,0.009549,0.027092,-50.168442,-28.371513,83.070213,,,,,,
1465313335.97,2.257234,-0.030274,-2.493819,-0.012736,-0.277942,0.012798,0.773154,0.030269,0.633495,-0.039344,-0.006984,0.101368,-47.784122,-28.415987,84.449310,,,,,,
1465313335.98,2.255882,-0.030137,-2.493824,-0.002921,-0.094252,0.010591,0.774013,0.030132,0.632452,-0.069622,0.011280,0.065927,-47.784122,-28.415987,84.449310,,,,,,
1465313335.99,2.256245,-0.030059,-2.493866,-0.003753,0.086263,0.006265,0.773786,0.030054,0.632734,-0.054196,-0.002085,0.089205,-47.784122,-28.415987,84.449310,,,,,,
1465313336.00,2.262869,-0.030109,-2.493764,0.001844,0.301831,0.003854,0.769576,0.030105,0.637845,-0.054107,0.002259,0.073642,-47.393089,-28.418962,84.668373,,,,,,
1465313336.01,2.266990,-0.030139,-2.493841,0.006273,0.439860,0.004057,0.766940,0.030135,0.641010,-0.042713,0.006746,0.072124,-47.393089,-28.418962,84.668373,,,,,,
1465313336.02,2.277534,-0.029186,-2.492758,-0.281980,1.529397,0.003323,0.760161,0.029182,0.649080,-0.036711,0.011147,0.035140,-47.393089,-28.418962,84.668373,,,,,,
1465313336.03,2.241609,-0.028611,-2.491028,-0.044651,-6.274838,0.003540,0.782996,0.028607,0.621368,2.386712,-0.095699,-1.398316,-49.213291,-28.536795,83.583366,,,,,,
1465313336.04,2.125650,-0.026933,-2.493661,-0.004711,-12.190925,0.317441,0.849670,0.026929,0.526627,0.616654,0.159976,-2.246537,-49.213291,-28.536795,83.583366,,,,,,
1465313336.05,2.036025,-0.022126,-2.490202,-0.603437,-7.505722,0.204433,0.893500,0.022125,0.448517,0.170022,-0.115371,0.599182,-49.213291,-28.536795,83.583366,,,,,,
1465313336.06,1.989251,-0.020881,-2.489473,0.083355,-4.237561,0.084563,0.913519,0.020880,0.406260,0.039469,0.076517,1.220495,-36.070934,-28.488466,90.054276,,,,,,
1465313336.07,1.937709,-0.020135,-2.490584,-0.134561,-5.583938,0.136432,0.933250,0.020133,0.358663,-0.281074,-0.058250,-0.110906,-36.070934,-28.488466,90.054276,,,,,,
1465313336.08,1.882110,-0.017208,-2.486867,-0.355618,-5.287534,0.116257,0.951791,0.017207,0.306264,-0.088357,-0.051600,0.674999,-36.070934,-28.488466,90.054276,,,,,,
1465313336.09,1.845194,-0.016567,-2.487855,0.147553,-3.141806,0.075626,0.962456,0.016566,0.270930,-0.222710,-0.024653,0.548238,-13.483829,-29.298656,95.824074,,,,,,
1465313336.10,1.821700,-0.015994,-2.487160,-0.198333,-2.220965,0.038636,0.968564,0.015994,0.248248,-0.310834,-0.067797,0.302198,-13.483829,-29.298656,95.824074,,,,,,
1465313336.11,1.803559,-0.015381,-2.485800,-0.049558,-1.626386,0.019089,0.972918,0.015381,0.230639,-0.289324,0.054550,0.411542,-13.483829,-29.298656,95.824074,,,,,,
1465313336.12,1.796146,-0.015372,-2.486666,0.064838,-0.406426,0.009423,0.974601,0.015371,0.223421,-0.332679,0.013194,0.373854,-7.711134,-29.290724,96.462776,,,,,,
1465313336.13,1.800423,-0.015153,-2.486021,-0.087176,0.656480,0.015379,0.973640,0.015153,0.227588,-0.326865,0.070693,0.351484,-7.711134,-29.290724,96.462776,,,,,,
1465313336.14,1.816101,-0.015417,-2.485395,-0.068435,1.861884,-0.089027,0.969948,0.015416,0.242823,0.777672,-0.018910,-0.482951,-7.711134,-29.290724,96.462776,,,,,,
1465313336.15,1.810511,-0.015273,-2.485778,0.081223,-1.665920,0.085463,0.971292,0.015273,0.237398,0.037008,0.023637,-0.754808,-7.172081,-29.468515,96.450211,,,,,,
1465313336.16,1.782689,-0.014106,-2.484925,-0.216102,-2.716971,0.097081,0.977537,0.014105,0.210290,0.287920,-0.064032,-0.206018,-7.172081,-29.468515,96.450211,,,,,,
1465313336.17,1.761245,-0.013331,-2.484455,0.032923,-1.998199,0.072597,0.981832,0.013331,0.189283,-0.073141,0.002996,0.113421,-7.172081,-29.468515,96.450211,,,,,,
1465313336.18,1.746084,-0.012887,-2.484668,-0.034337,-1.347189,0.035449,0.984595,0.012887,0.174377,-0.001929,-0.049508,0.099595,-3.980345,-29.534824,96.614319,,,,,,
1465313336.19,1.733863,-0.012405,-2.483841,-0.071479,-1.246302,0.035843,0.986658,0.012405,0.162332,-0.110666,-0.022216,0.060874,-3.980345,-29.534824,96.614319,,,,,,
1465313336.20,1.722434,-0.012088,-2.484134,0.032050,-1.042497,0.037862,0.988453,0.012088,0.151046,-0.128574,0.000897,0.234391,-0.475650,-29.579353,96.681503,,,,,,
1465313336.21,1.717275,-0.011857,-2.483730,-0.064981,-0.340535,0.011009,0.989222,0.011857,0.145945,-0.088999,-0.004593,0.266561,-0.475650,-29.579353,96.681503,,,,,,
1465313336.22,1.716255,-0.011693,-2.483531,0.003485,-0.073012,0.015786,0.989372,0.011693,0.144936,-0.122779,0.012782,0.134590,-0.475650,-29.579353,96.681503,,,,,,
1465313336.23,1.716537,-0.011593,-2.483711,0.003697,0.089455,0.010510,0.989332,0.011593,0.145215,-0.088850,-0.000057,0.151278,-0.475650,-29.579353,96.681503,,,,,,
1465313336.24,1.720611,-0.011589,-2.483425,-0.022364,0.507863,-0.008107,0.988732,0.011588,0.149245,-0.045907,-0.002174,0.098055,2.379260,-29.707233,96.614166,,,,,,
1465313336.25,1.726936,-0.011744,-2.483640,0.032129,0.654376,-0.013229,0.987767,0.011744,0.155495,-0.066945,-0.001734,0.024269,2.379260,-29.707233,96.614166,,,,,,
1465313336.26,1.734734,-0.011877,-2.483649,-0.005981,0.829592,-0.014366,0.986523,0.011876,0.163193,-0.031658,-0.006032,0.014557,2.379260,-29.707233,96.614166,,,,,,
1465313336.27,1.744263,-0.012037,-2.483686,0.013380,0.985668,-0.015326,0.984921,0.012036,0.172585,0.018024,0.005298,-0.038567,0.598294,-29.692991,96.645973,,,,,,
1465313336.28,1.753839,-0.012223,-2.483805,0.012235,0.918781,-0.017036,0.983221,0.012222,0.182008,0.084024,-0.007813,-0.136705,0.598294,-29.692991,96.645973,,,,,,
1465313336.29,1.760122,-0.012364,-2.483904,0.012789,0.516348,-0.011319,0.982056,0.012364,0.188183,0.101180,-0.018284,-0.158230,0.598294,-29.692991,96.645973,,,,,,
1465313336.30,1.762694,-0.012504,-2.484064,0.020910,0.196747,-0.011435,0.981567,0.012504,0.190707,0.043869,-0.021568,-0.064318,-1.239028,-29.672453,96.646194,,,,,,
1465313336.31,1.764993,-0.012723,-2.484273,0.023166,0.283837,-0.020495,0.981124,0.012723,0.192963,-0.065764,-0.011777,0.097457,-1.239028,-29.672453,96.646194,,,,,,
1465313336.32,1.771356,-0.012941,-2.484475,0.025899,0.776492,-0.016130,0.979873,0.012941,0.199201,-0.167068,0.019057,0.223254,-1.239028,-29.672453,96.646194,,,,,,
1465313336.33,1.784446,-0.013161,-2.484630,0.011900,1.501708,-0.019628,0.977179,0.013161,0.212010,-0.128409,0.035240,0.216549,-2.915607,-29.596802,96.633354,,,,,,
1465313336.34,1.802663,-0.013540,-2.484671,0.016619,1.841529,-0.038786,0.973150,0.013540,0.229773,0.097330,0.002009,-0.003836,-2.915607,-29.596802,96.633354,,,,,,
1465313336.36,1.820159,-0.013918,-2.484785,-0.005647,0.255142,-0.005441,0.968976,0.013918,0.246762,0.200030,-0.025758,-0.221891,-5.923326,-29.568390,96.504402,,,,,,
1465313336.37,1.819474,-0.013878,-2.484595,-0.023212,-0.163205,-0.000706,0.969145,0.013877,0.246099,0.211900,-0.012489,-0.208395,-5.923326,-29.568390,96.504402,,,,,,
1465313336.35,1.815859,-0.013860,-2.484823,0.017761,1.078051,-0.019094,0.970029,0.013860,0.242594,0.156467,-0.008107,-0.252955,-5.923326,-29.568390,96.504402,,,,,,
1465313336.38,1.813275,-0.013840,-2.484601,0.000469,-0.793952,0.011789,0.970653,0.013840,0.240087,0.154408,-0.014297,-0.190785,-5.923326,-29.568390,96.504402,,,,,,
1465313336.39,1.801998,-0.013346,-2.483888,-0.104420,-1.198499,0.033382,0.973305,0.013345,0.229127,0.117851,0.001562,-0.222795,-6.937916,-29.570087,96.436256,,,,,,
1465313336.40,1.788140,-0.012813,-2.483569,-0.025998,-1.454497,0.058483,0.976394,0.012813,0.215619,-0.001494,0.000615,-0.152707,-6.937916,-29.570087,96.436256,,,,,,
1465313336.42,1.764012,-0.011123,-2.482822,-0.075693,-1.133884,0.084099,0.981331,0.011123,0.192004,0.121040,-0.004684,-0.154421,-4.533831,-29.685284,96.543793,,,,,,
1465313336.41,1.774677,-0.011971,-2.483358,-0.044941,-1.240068,0.080537,0.979218,0.011970,0.202457,-0.000519,0.022606,0.031170,-4.533831,-29.685284,96.543793,,,,,,
1465313336.43,1.745030,-0.009710,-2.483154,0.039035,-2.079142,0.161459,0.984813,0.009710,0.173345,-0.354046,0.047984,0.111338,-4.533831,-29.685284,96.543793,,,,,,
1465313336.44,1.736726,-0.008860,-2.483124,-0.060585,-0.172875,0.047218,0.986227,0.008860,0.165163,-0.227178,-0.032267,0.735320,-2.247516,-29.783991,96.593674,,,,,,
1465313336.45,1.750831,-0.009273,-2.482756,0.016580,1.764097,-0.067041,0.983795,0.009273,0.179056,-0.168152,-0.008586,0.509023,-2.247516,-29.783991,96.593674,,,,,,
1465313336.46,1.769844,-0.010288,-2.483008,0.020945,1.799219,-0.098126,0.980203,0.010288,0.197725,0.129004,-0.048664,-0.110796,-2.247516,-29.783991,96.593674,,,,,,
1465313336.47,1.777329,-0.010861,-2.482622,-0.023551,0.343398,-0.048590,0.978690,0.010861,0.205056,0.198175,-0.011425,-0.318551,-2.836502,-29.779936,96.579430,,,,,,
1465313336.48,1.773222,-0.011006,-2.482657,0.010367,-0.568810,-0.005580,0.979522,0.011006,0.201034,0.157898,0.001339,-0.199798,-2.836502,-29.779936,96.579430,,,,,,
1465313336.49,1.765727,-0.010904,-2.482683,-0.002693,-0.767408,0.012684,0.981003,0.010904,0.193687,0.006165,0.018744,0.080574,-2.836502,-29.779936,96.579430,,,,,,
1465313336.50,1.760346,-0.010874,-2.482643,-0.003313,-0.432904,-0.002188,0.982031,0.010874,0.188406,-0.050070,-0.000773,0.243235,-3.139353,-29.801680,96.563347,,,,,,
1465313336.51,1.759527,-0.010996,-2.482590,-0.009067,0.052378,-0.018011,0.982184,0.010995,0.187601,-0.065939,0.008078,0.181372,-3.139353,-29.801680,96.563347,,,,,,
1465313336.52,1.762161,-0.011234,-2.482411,-0.002416,0.249890,-0.026694,0.981684,0.011234,0.190187,0.043158,-0.015339,-0.106477,-3.139353,-29.801680,96.563347,,,,,,
1465313336.53,1.760435,-0.011397,-2.482746,0.038355,-0.320371,-0.003917,0.982009,0.011397,0.188492,0.032747,-0.001860,-0.115570,-2.062731,-29.821316,96.586288,,,,,,
1465313336.54,1.755750,-0.011284,-2.482613,-0.026816,-0.472220,0.012937,0.982882,0.011284,0.183890,0.002637,-0.001747,-0.006293,-2.062731,-29.821316,96.586288,,,,,,
1465313336.55,1.752943,-0.011138,-2.482706,0.019319,-0.185568,0.015443,0.983396,0.011138,0.181130,-0.036756,0.012575,0.082741,-2.062731,-29.821316,96.586288,,,,,,
1465313336.56,1.752864,-0.011076,-2.482840,0.007859,0.005580,0.007846,0.983411,0.011076,0.181053,-0.004590,-0.005186,0.027352,-1.443359,-29.801279,96.603706,,,,,,
1465313336.57,1.752028,-0.010989,-2.482886,0.003449,-0.113343,0.009652,0.983563,0.010988,0.180230,0.017764,-0.008028,-0.008248,-1.443359,-29.801279,96.603706,,,,,,
1465313336.58,1.750367,-0.010943,-2.482924,0.004460,-0.176029,0.004724,0.983862,0.010943,0.178597,0.017436,-0.011095,-0.015557,-1.443359,-29.801279,96.603706,,,,,,
1465313336.59,1.748861,-0.010948,-2.482969,0.004526,-0.131418,-0.000878,0.984129,0.010948,0.177115,0.005205,-0.002311,0.011209,-0.935310,-29.777285,96.617363,,,,,,
1465313336.60,1.748051,-0.010962,-2.482980,0.002468,-0.073021,-0.000182,0.984272,0.010962,0.176317,-0.001973,0.006830,0.008940,-0.935310,-29.777285,96.617363,,,,,,
1465313336.61,1.747219,-0.010925,-2.483039,0.004568,-0.086843,0.006293,0.984419,0.010925,0.175499,-0.000197,0.009171,0.016594,-0.935310,-29.777285,96.617363,,,,,,
1465313336.62,1.746334,-0.010868,-2.483047,-0.001817,-0.083655,0.006267,0.984575,0.010868,0.174628,0.000624,0.006344,0.007669,-0.711313,-29.771585,96.621033,,,,,,
1465313336.63,1.745678,-0.010828,-2.483084,0.005665,-0.064540,0.004026,0.984689,0.010828,0.173981,0.006567,0.002997,-0.006791,-0.711313,-29.771585,96.621033,,,,,,
1465313336.64,1.744856,-0.010821,-2.483159,0.004578,-0.086829,0.000971,0.984832,0.010821,0.173172,0.008424,0.002821,0.006225,-0.711313,-29.771585,96.621033,,,,,,
1465313336.65,1.744057,-0.010842,-2.483180,0.001413,-0.068768,-0.002339,0.984970,0.010842,0.172385,0.001694,0.001762,0.022439,-0.407879,-29.756870,96.627312,,,,,,
1465313336.67,1.744056,-0.010891,-2.483197,0.003635,0.006616,-0.001745,0.984970,0.010890,0.172384,0.006302,-0.000438,-0.008261,-0.407879,-29.756870,96.627312,,,,,,
1465313336.66,1.743937,-0.010868,-2.483169,0.000442,0.005559,-0.002806,0.984990,0.010867,0.172267,-0.000966,-0.000476,0.006963,-0.407879,-29.756870,96.627312,,,,,,
1465313336.68,1.743889,-0.010888,-2.483180,-0.002792,-0.020993,0.000551,0.984998,0.010887,0.172219,0.004916,0.000572,-0.003305,-0.407879,-29.756870,96.627312,,,,,,
1465313336.70,1.743713,-0.010834,-2.483236,0.005753,0.005539,0.003586,0.985029,0.010833,0.172046,0.004381,0.002518,0.009351,-0.312573,-29.753796,96.628624,,,,,,
1465313336.69,1.743690,-0.010861,-2.483183,0.000406,-0.014630,0.002643,0.985033,0.010861,0.172023,-0.000002,0.007831,0.007466,-0.312573,-29.753796,96.628624,,,,,,
1465313336.71,1.743645,-0.010823,-2.483328,0.008932,-0.008263,0.002612,0.985041,0.010823,0.171979,0.005682,-0.003270,0.018115,-0.312573,-29.753796,96.628624,,,,,,
1465313336.72,1.743743,-0.010815,-2.483334,-0.000618,0.016166,0.001384,0.985024,0.010815,0.172075,0.005836,0.000186,-0.011049,-0.297447,-29.749382,96.630028,,,,,,
1465313336.73,1.742574,-0.010871,-2.483399,0.008959,0.011907,0.001421,0.985224,0.010871,0.170924,0.010427,0.000725,-0.020121,-0.297447,-29.749382,96.630028,,,,,,
1465313336.74,1.742783,-0.011073,-2.483485,0.006771,-0.031629,0.003820,0.985186,0.011073,0.171130,-0.000842,0.003438,0.007520,-0.301510,-29.740307,96.632805,,,,,,
1465313336.75,1.745304,-0.010985,-2.483485,0.002585,0.027843,0.004507,0.984753,0.010985,0.173612,-0.006786,-0.000914,0.042650,-0.301510,-29.740307,96.632805,,,,,,
1465313336.76,1.747599,-0.011339,-2.483505,0.002704,0.127650,0.007073,0.984348,0.011338,0.175872,-0.012012,0.007750,0.020356,-0.301510,-29.740307,96.632805,,,,,,
1465313336.77,1.747898,-0.011091,-2.483609,0.011205,0.115958,0.008220,0.984298,0.011091,0.176167,0.006455,-0.003614,-0.019429,-0.659936,-29.715488,96.638664,,,,,,
1465313336.79,1.748781,-0.010480,-2.483742,-0.000566,0.067123,0.007452,0.984149,0.010480,0.177036,0.004819,-0.001493,0.007091,-0.659936,-29.715488,96.638664,,,,,,
1465313336.78,1.747966,-0.010623,-2.483728,0.008978,0.036325,0.007654,0.984291,0.010622,0.176234,0.012871,-0.008181,-0.007701,-0.659936,-29.715488,96.638664,,,,,,
1465313336.80,1.750000,-0.010290,-2.483754,-0.000444,0.151028,-0.001590,0.983934,0.010290,0.178236,0.011183,-0.004187,-0.001021,-0.717710,-29.705938,96.641182,,,,,,
1465313336.82,1.750616,-0.009699,-2.483836,0.003695,0.050158,-0.004144,0.983830,0.009699,0.178844,0.010540,-0.007242,0.005146,-0.717710,-29.705938,96.641182,,,,,,
1465313336.81,1.749908,-0.009953,-2.483803,0.002704,0.110677,-0.003461,0.983954,0.009953,0.178147,0.017588,-0.008900,-0.029572,-0.717710,-29.705938,96.641182,,,,,,
1465313336.83,1.752704,-0.009868,-2.483763,-0.006861,0.126612,-0.002506,0.983452,0.009868,0.180898,-0.007928,0.003682,0.024715,-0.717710,-29.705938,96.641182,,,,,,
1465313336.84,1.755461,-0.010208,-2.483771,0.003894,0.212617,-0.003035,0.982947,0.010208,0.183608,-0.007071,0.007630,0.018495,-1.001512,-29.710701,96.637192,,,,,,
1465313336.85,1.757309,-0.010512,-2.483759,-0.001450,0.200930,0.000225,0.982603,0.010512,0.185423,0.001986,0.007997,-0.008100,-1.001512,-29.710701,96.637192,,,,,,
1465313336.86,1.758435,-0.010565,-2.483756,-0.002563,0.168003,0.003624,0.982393,0.010565,0.186529,0.012221,0.002359,-0.016424,-1.454436,-29.708603,96.632088,,,,,,
1465313336.88,1.759988,-0.010601,-2.483740,-0.002533,0.191352,0.003477,0.982101,0.010601,0.188055,0.015472,0.000767,-0.039953,-1.454436,-29.708603,96.632088,,,,,,
1465313336.87,1.759473,-0.010630,-2.483774,-0.002565,0.165876,0.003637,0.982198,0.010630,0.187549,0.010921,0.002951,-0.014911,-1.454436,-29.708603,96.632088,,,,,,
1465313336.89,1.759440,-0.010537,-2.483756,-0.000445,0.156303,0.002634,0.982205,0.010536,0.187517,0.025302,-0.000588,-0.065569,-1.880176,-29.705120,96.625809,,,,,,
1465313336.90,1.760649,-0.010515,-2.483679,-0.010082,0.108536,-0.000269,0.981978,0.010514,0.188704,0.037386,-0.011384,-0.106108,-1.880176,-29.705120,96.625809,,,,,,
1465313336.91,1.760789,-0.010533,-2.483735,0.010003,-0.009331,-0.000574,0.981951,0.010532,0.188841,0.017667,-0.010731,-0.063169,-1.880176,-29.705120,96.625809,,,,,,
1465313336.92,1.761669,-0.010527,-2.483584,-0.020695,0.131907,-0.002555,0.981785,0.010527,0.189705,0.008221,-0.004957,-0.027336,-1.880176,-29.705120,96.625809,,,,,,
1465313336.93,1.760979,-0.010546,-2.483516,-0.002446,0.245504,-0.006443,0.981915,0.010546,0.189028,0.020053,-0.000887,-0.089815,-2.043702,-29.721197,96.617546,,,,,,
1465313336.94,1.762462,-0.010603,-2.483560,-0.001556,0.109587,-0.003460,0.981633,0.010603,0.190484,0.037486,-0.000242,-0.157799,-2.043702,-29.721197,96.617546,,,,,,
1465313336.95,1.762461,-0.010563,-2.483404,-0.015580,-0.029514,0.001656,0.981634,0.010563,0.190482,0.043604,-0.004460,-0.181403,-2.117965,-29.722229,96.615623,,,,,,
1465313336.96,1.761783,-0.010521,-2.483427,0.005652,-0.074129,0.005150,0.981763,0.010521,0.189817,0.034228,-0.000282,-0.149473,-2.117965,-29.722229,96.615623,,,,,,
1465313336.97,1.760925,-0.010431,-2.483377,-0.012479,-0.092183,0.009503,0.981927,0.010431,0.188975,0.026298,0.001517,-0.120997,-2.117965,-29.722229,96.615623,,,,,,
1465313336.98,1.759600,-0.010304,-2.483290,-0.010419,-0.144218,0.011960,0.982177,0.010304,0.187674,0.023789,-0.002888,-0.088477,-2.117965,-29.722229,96.615623,,,,,,
1465313336.99,1.758037,-0.010153,-2.483196,-0.012566,-0.158020,0.012045,0.982471,0.010153,0.186139,0.010510,-0.004584,-0.053540,-1.848402,-29.752888,96.611725,,,,,,
1465313337.00,1.756712,-0.010010,-2.483079,-0.014650,-0.119797,0.012867,0.982718,0.010010,0.184837,-0.000693,-0.005203,-0.017235,-1.848402,-29.752888,96.611725,,,,,,
1465313337.01,1.755935,-0.009883,-2.482938,-0.016702,-0.063512,0.009319,0.982863,0.009882,0.184074,-0.002089,-0.003977,-0.001594,-1.576609,-29.777739,96.608879,,,,,,
1465313337.03,1.754641,-0.009614,-2.482659,-0.015664,-0.081569,0.011562,0.983103,0.009613,0.182802,-0.000101,0.002075,-0.007494,-1.576609,-29.777739,96.608879,,,,,,
1465313337.02,1.755391,-0.009749,-2.482788,-0.017757,-0.053958,0.010322,0.982964,0.009749,0.183540,0.000358,-0.002898,-0.003211,-1.576609,-29.777739,96.608879,,,,,,
1465313337.04,1.753709,-0.009454,-2.482524,-0.016752,-0.096440,0.013783,0.983274,0.009454,0.181886,0.001772,0.002509,0.009611,-1.454779,-29.809721,96.600929,,,,,,
1465313337.05,1.752735,-0.009302,-2.482430,-0.014614,-0.090070,0.013745,0.983452,0.009302,0.180929,-0.003411,0.004080,0.038813,-1.454779,-29.809721,96.600929,,,,,,
1465313337.06,1.752021,-0.009165,-2.482291,-0.018832,-0.062452,0.010375,0.983582,0.009165,0.180227,-0.006425,-0.001367,0.068995,-1.454779,-29.809721,96.600929,,,,,,
1465313337.07,1.751589,-0.009038,-2.482166,-0.014536,-0.032724,0.010192,0.983661,0.009037,0.179802,-0.005924,-0.002476,0.092018,-1.454779,-29.809721,96.600929,,,,,,
1465313337.08,1.751496,-0.008946,-2.482046,-0.012366,-0.007230,0.005777,0.983679,0.008946,0.179711,0.000834,-0.005268,0.090965,-1.143232,-29.866562,96.587570,,,,,,
1465313337.09,1.751319,-0.008872,-2.481939,-0.010259,-0.027402,0.004841,0.983711,0.008872,0.179536,0.008400,-0.004920,0.075102,-1.143232,-29.866562,96.587570,,,,,,
1465313337.10,1.750833,-0.008806,-2.481852,-0.009229,-0.055010,0.005015,0.983799,0.008806,0.179059,0.010311,-0.004488,0.070651,-1.097439,-29.893402,96.579796,,,,,,
1465313337.12,1.749347,-0.008738,-2.481693,-0.006059,-0.079424,0.001978,0.984065,0.008737,0.177596,0.006643,-0.002313,0.076371,-1.097439,-29.893402,96.579796,,,,,,
1465313337.11,1.750135,-0.008769,-2.481754,-0.009247,-0.074113,0.001942,0.983924,0.008769,0.178372,0.010873,-0.003062,0.067020,-1.097439,-29.893402,96.579796,,,,,,
1465313337.13,1.748611,-0.008705,-2.481621,-0.009241,-0.069866,0.001915,0.984195,0.008705,0.176873,-0.001987,-0.000465,0.090171,-0.893770,-29.930441,96.570412,,,,,,
1465313337.14,1.748051,-0.008664,-2.481556,-0.006027,-0.051820,0.002870,0.984295,0.008664,0.176321,-0.002636,0.002201,0.093347,-0.893770,-29.930441,96.570412,,,,,,
1465313337.15,1.747676,-0.008625,-2.481529,-0.001747,-0.033774,0.003825,0.984361,0.008625,0.175952,-0.001176,0.001201,0.088879,-0.893770,-29.930441,96.570412,,,,,,
1465313337.16,1.747461,-0.008595,-2.481512,-0.001724,-0.016782,0.002654,0.984399,0.008595,0.175740,0.000449,-0.000965,0.080729,-0.769993,-29.944645,96.567085,,,,,,
1465313337.18,1.747672,-0.008582,-2.481480,-0.001673,0.018266,-0.000759,0.984362,0.008582,0.175949,0.006437,0.000009,0.036164,-0.769993,-29.944645,96.567085,,,,,,
1465313337.17,1.747489,-0.008589,-2.481501,-0.000623,0.008706,0.000366,0.984394,0.008589,0.175769,0.002422,-0.002775,0.067411,-0.769993,-29.944645,96.567085,,,,,,
1465313337.19,1.747664,-0.008602,-2.481464,-0.000645,-0.014645,-0.002681,0.984363,0.008602,0.175941,0.019665,-0.006740,-0.014411,-0.735373,-29.953266,96.564674,,,,,,
1465313337.20,1.746837,-0.008610,-2.481504,0.006689,-0.105969,0.000028,0.984508,0.008610,0.175127,0.021824,-0.006016,-0.029909,-0.735373,-29.953266,96.564674,,,,,,
1465313337.21,1.745226,-0.008405,-2.481499,-0.003970,-0.116581,-0.000979,0.984791,0.008405,0.173540,0.014294,-0.005048,-0.006258,-0.735373,-29.953266,96.564674,,,,,,
1465313337.22,1.744437,-0.008421,-2.481489,0.001419,-0.066676,-0.002351,0.984927,0.008420,0.172763,0.001324,-0.001417,0.010846,-0.654069,-29.950493,96.566116,,,,,,
1465313337.23,1.744025,-0.008443,-2.481505,0.001457,-0.034825,-0.001487,0.984998,0.008443,0.172357,-0.002302,0.002589,0.021048,-0.654069,-29.950493,96.566116,,,,,,
1465313337.24,1.743794,-0.008440,-2.481456,-0.004921,-0.023148,0.000563,0.985038,0.008440,0.172130,0.000542,0.001494,0.008962,-0.654069,-29.950493,96.566116,,,,,,
1465313337.25,1.743400,-0.008586,-2.481464,0.002520,-0.029529,0.002738,0.985105,0.008586,0.171742,0.002521,0.004171,-0.002018,-0.364891,-29.957869,96.565361,,,,,,
1465313337.27,1.743133,-0.008507,-2.481475,-0.000625,0.011880,0.003540,0.985151,0.008507,0.171479,-0.000227,0.001488,0.012267,-0.364891,-29.957869,96.565361,,,,,,
1465313337.26,1.743121,-0.008544,-2.481475,-0.000673,-0.025286,0.004837,0.985153,0.008544,0.171467,-0.000686,0.003450,0.005093,-0.364891,-29.957869,96.565361,,,,,,
1465313337.28,1.743427,-0.008472,-2.481508,0.003656,0.030987,0.004489,0.985101,0.008472,0.171768,-0.001214,0.003628,0.005554,-25.743002,-28.789080,90.305023,,,,,,
1465313337.29,1.743674,-0.008490,-2.481506,-0.001680,0.024613,0.006652,0.985058,0.008490,0.172012,0.001850,0.001932,-0.000610,-25.743002,-28.789080,90.305023,,,,,,
1465313337.30,1.743952,-0.008424,-2.481517,0.000458,0.030983,0.006614,0.985011,0.008424,0.172286,0.005056,0.002989,0.006898,-25.743002,-28.789080,90.305023,,,,,,
1465313337.31,1.744379,-0.008359,-2.481522,-0.001653,0.045849,0.006519,0.984938,0.008359,0.172706,0.006212,0.002856,0.004479,-25.821697,-28.784025,90.284164,,,,,,
1465313337.32,1.744742,-0.008280,-2.481546,0.002582,0.029914,0.008752,0.984876,0.008280,0.173063,0.006305,0.000402,-0.002485,-25.821697,-28.784025,90.284164,,,,,,
1465313337.33,1.744725,-0.007887,-2.481580,0.000426,0.005499,0.006775,0.984882,0.007887,0.173047,0.013012,-0.008146,-0.001203,-25.821697,-28.784025,90.284164,,,,,,
1465313337.34,1.744854,-0.007825,-2.481584,-0.002746,0.021431,0.005608,0.984860,0.007825,0.173175,0.008823,0.000079,0.001584,-25.897221,-28.779858,90.263855,,,,,,
1465313337.35,1.744803,-0.007772,-2.481619,0.002535,-0.012550,0.005826,0.984869,0.007772,0.173124,0.012186,0.001215,-0.006712,-25.897221,-28.779858,90.263855,,,,,,
1465313337.36,1.744650,-0.007930,-2.481640,0.000400,-0.015737,0.006908,0.984894,0.007930,0.172974,0.007018,0.005788,0.001815,-25.897221,-28.779858,90.263855,,,,,,
1465313337.37,1.744775,-0.007956,-2.481652,0.001448,-0.027418,0.008046,0.984873,0.007956,0.173097,0.002478,0.002603,0.010909,-25.899429,-28.767681,90.267105,,,,,,
1465313337.38,1.746016,-0.007854,-2.481676,0.000428,0.013990,0.010979,0.984658,0.007854,0.174319,-0.000191,0.000080,0.033490,-25.899429,-28.767681,90.267105,,,,,,
1465313337.39,1.748349,-0.007703,-2.481666,-0.001629,0.066038,0.007457,0.984250,0.007703,0.176616,-0.006192,-0.001752,0.051198,-25.899429,-28.767681,90.267105,,,,,,
1465313337.40,1.749796,-0.007427,-2.481623,-0.003701,0.110640,0.006111,0.983995,0.007427,0.178040,0.007246,-0.005551,0.011047,-26.025038,-28.763546,90.232285,,,,,,
1465313337.41,1.749068,-0.007109,-2.481694,0.006837,0.021440,0.005618,0.984127,0.007109,0.177325,0.020436,-0.008131,-0.033862,-26.025038,-28.763546,90.232285,,,,,,
1465313337.42,1.747906,-0.006685,-2.481697,-0.002810,-0.031648,0.004878,0.984335,0.006685,0.176181,0.022013,-0.011400,-0.025379,-26.025038,-28.763546,90.232285,,,,,,
1465313337.43,1.748120,-0.006343,-2.481671,-0.003783,0.033138,-0.000850,0.984299,0.006343,0.176392,0.009551,-0.010234,0.005660,-26.228752,-28.749983,90.177605,,,,,,
1465313337.44,1.747893,-0.006120,-2.481706,0.005815,0.042691,-0.003028,0.984341,0.006120,0.176169,0.015934,-0.008348,-0.021658,-26.228752,-28.749983,90.177605,,,,,,
1465313337.45,1.746673,-0.005930,-2.481759,0.003572,-0.046507,-0.001406,0.984556,0.005930,0.174969,0.020433,-0.007380,-0.029049,-26.228752,-28.749983,90.177605,,,,,,
1465313337.46,1.745990,-0.005838,-2.481728,-0.003886,-0.051810,-0.002444,0.984676,0.005838,0.174295,0.012745,-0.003488,-0.000071,-26.243584,-28.743511,90.175354,,,,,,
1465313337.47,1.746627,-0.005874,-2.481716,0.001538,0.024646,-0.005047,0.984565,0.005874,0.174923,0.002725,-0.000243,0.020191,-26.243584,-28.743511,90.175354,,,,,,
1465313337.48,1.747140,-0.005994,-2.481743,0.002601,0.024644,-0.003982,0.984474,0.005994,0.175428,0.002113,0.002368,0.008517,-26.243584,-28.743511,90.175354,,,,,,
1465313337.49,1.747017,-0.006044,-2.481723,-0.002774,-0.012523,-0.001625,0.984495,0.006044,0.175307,0.012331,0.001173,-0.000349,-26.179453,-28.738810,90.195503,,,,,,
1465313337.50,1.746765,-0.006087,-2.481709,0.000423,-0.015701,-0.004795,0.984539,0.006087,0.175059,0.008228,0.000078,-0.001048,-26.179453,-28.738810,90.195503,,,,,,
1465313337.51,1.746860,-0.006086,-2.481697,-0.001693,-0.001902,-0.002755,0.984523,0.006086,0.175152,0.007024,-0.001157,0.006916,-26.179453,-28.738810,90.195503,,,,,,
1465313337.52,1.747293,-0.006038,-2.481675,-0.002731,0.016157,-0.004998,0.984447,0.006038,0.175578,0.007145,-0.003520,0.013677,-26.142860,-28.742870,90.204819,,,,,,
1465313337.53,1.747463,-0.006000,-2.481665,0.002594,0.017216,-0.004999,0.984417,0.006000,0.175746,0.011036,-0.003284,0.000448,-26.142860,-28.742870,90.204819,,,,,,
1465313337.54,1.746974,-0.006021,-2.481658,0.000431,-0.011451,-0.005885,0.984503,0.006021,0.175264,0.011194,-0.001275,-0.016375,-26.142860,-28.742870,90.204819,,,,,,
1465313337.56,1.745868,-0.006176,-2.481686,-0.001732,-0.034817,-0.003612,0.984695,0.006176,0.174175,0.005921,0.002002,0.012745,-26.163250,-28.747032,90.197578,,,,,,
1465313337.55,1.746038,-0.006085,-2.481686,0.004636,-0.053928,-0.005615,0.984666,0.006084,0.174343,0.012236,0.000034,-0.017132,-26.163250,-28.747032,90.197578,,,,,,
1465313337.57,1.746318,-0.006342,-2.481657,0.000455,0.009783,-0.004955,0.984616,0.006342,0.174618,0.000614,0.004384,0.017185,-26.163250,-28.747032,90.197578,,,,,,
1465313337.58,1.746091,-0.006507,-2.481717,0.006811,-0.026382,-0.003658,0.984654,0.006507,0.174395,0.008540,0.004495,-0.002505,-26.059254,-28.745905,90.228035,,,,,,
1465313337.59,1.745169,-0.006503,-2.481712,-0.002824,-0.068851,-0.003401,0.984815,0.006503,0.173486,0.013614,-0.001528,-0.010172,-26.059254,-28.745905,90.228035,,,,,,
1465313337.60,1.744101,-0.006519,-2.481753,0.007791,-0.094341,-0.003231,0.984999,0.006519,0.172434,0.012346,-0.000751,-0.003321,-26.059254,-28.745905,90.228035,,,,,,
1465313337.61,1.744166,-0.006547,-2.481736,-0.003858,-0.044427,-0.003555,0.984988,0.006546,0.172499,0.006360,-0.000168,0.029420,-25.890415,-28.743055,90.277534,,,,,,
1465313337.62,1.744497,-0.006647,-2.481679,-0.003806,-0.003014,-0.003815,0.984930,0.006647,0.172824,0.002466,0.003088,0.018658,-25.890415,-28.743055,90.277534,,,,,,
1465313337.63,1.743310,-0.006623,-2.481731,0.003556,-0.072044,-0.001246,0.985135,0.006623,0.171655,0.012088,-0.002243,-0.025735,-25.890415,-28.743055,90.277534,,,,,,
1465313337.64,1.741371,-0.006405,-2.481721,-0.001830,-0.123009,-0.001995,0.985467,0.006405,0.169745,0.006598,-0.003643,-0.001258,-25.922129,-28.751270,90.265823,,,,,,
1465313337.65,1.740818,-0.006517,-2.481742,0.004588,-0.101771,-0.003187,0.985560,0.006517,0.169200,-0.000453,0.003431,0.025472,-25.922129,-28.751270,90.265823,,,,,,
1465313337.66,1.740941,-0.006628,-2.481763,0.002511,-0.056114,-0.001347,0.985539,0.006628,0.169321,-0.003529,0.003992,0.035497,-25.922129,-28.751270,90.265823,,,,,,
1465313337.67,1.740739,-0.006745,-2.481748,-0.001700,-0.017887,-0.001591,0.985572,0.006744,0.169122,0.006341,0.004532,0.003531,-25.602036,-28.743219,90.359695,,,,,,
1465313337.68,1.739631,-0.006728,-2.481768,0.002541,-0.030638,-0.000442,0.985759,0.006728,0.168030,0.017415,-0.001052,-0.038605,-25.602036,-28.743219,90.359695,,,,,,
1465313337.69,1.738369,-0.006783,-2.481824,0.005618,-0.124080,0.000147,0.985970,0.006783,0.166786,0.011482,0.001915,-0.010490,-25.602036,-28.743219,90.359695,,,,,,
1465313337.70,1.737473,-0.006809,-2.481824,-0.001845,-0.132568,0.000192,0.986119,0.006809,0.165903,0.003261,0.001385,0.025824,-25.480825,-28.743805,90.393761,,,,,,
1465313337.71,1.737222,-0.006879,-2.481797,-0.000660,-0.038063,-0.001464,0.986160,0.006879,0.165654,0.002030,0.003191,0.018931,-25.480825,-28.743805,90.393761,,,,,,
1465313337.72,1.736991,-0.006887,-2.481836,0.004690,-0.018951,-0.002643,0.986198,0.006887,0.165427,0.008355,-0.000662,-0.002280,-25.480825,-28.743805,90.393761,,,,,,
1465313337.73,1.736228,-0.006883,-2.481804,-0.004949,-0.060363,-0.000264,0.986324,0.006883,0.164674,0.012883,-0.000306,-0.011583,-25.237926,-28.738970,90.463409,,,,,,
1465313337.74,1.735346,-0.006797,-2.481789,0.001413,-0.081603,-0.000124,0.986469,0.006797,0.163804,0.011715,-0.003501,-0.002198,-25.237926,-28.738970,90.463409,,,,,,
1465313337.75,1.734768,-0.006749,-2.481810,0.002490,-0.075226,-0.002291,0.986564,0.006749,0.163234,0.010857,-0.003072,0.011662,-25.237926,-28.738970,90.463409,,,,,,
1465313337.76,1.734216,-0.006699,-2.481770,-0.004931,-0.052918,-0.004567,0.986655,0.006699,0.162690,0.009378,-0.004120,0.003051,-25.091379,-28.742538,90.503036,,,,,,
1465313337.77,1.733531,-0.006736,-2.481732,-0.001729,-0.051850,-0.007764,0.986765,0.006736,0.162014,0.009405,-0.001426,-0.007320,-25.091379,-28.742538,90.503036,,,,,,
1465313337.78,1.732724,-0.006770,-2.481706,-0.002821,-0.069907,-0.005523,0.986896,0.006770,0.161217,0.009961,-0.001155,-0.005364,-25.091379,-28.742538,90.503036,,,,,,
1465313337.79,1.732011,-0.006827,-2.481669,-0.002828,-0.076278,-0.005483,0.987010,0.006827,0.160514,0.003453,0.000375,0.003472,-24.854345,-28.749981,90.566063,,,,,,
1465313337.80,1.731504,-0.006862,-2.481658,-0.000682,-0.061416,-0.004510,0.987091,0.006862,0.160013,0.002350,-0.000682,0.009100,-24.854345,-28.749981,90.566063,,,,,,
1465313337.81,1.731186,-0.006920,-2.481617,-0.003855,-0.044424,-0.004619,0.987141,0.006919,0.159699,0.001964,0.000878,0.009139,-24.740982,-28.755362,90.595390,,,,,,
1465313337.82,1.730742,-0.006928,-2.481569,-0.003849,-0.038057,-0.003595,0.987212,0.006928,0.159261,0.009782,-0.000687,-0.001500,-24.740982,-28.755362,90.595390,,,,,,
1465313337.83,1.730133,-0.006944,-2.481552,-0.000672,-0.052921,-0.004563,0.987309,0.006944,0.158659,0.011241,-0.001100,-0.004316,-24.740982,-28.755362,90.595390,,,,,,
1465313337.84,1.729436,-0.006960,-2.481518,-0.003885,-0.066726,-0.003415,0.987419,0.006960,0.157971,0.008415,-0.000933,-0.001508,-24.669613,-28.764338,90.611992,,,,,,
1465313337.85,1.728672,-0.007014,-2.481485,-0.002831,-0.075221,-0.003361,0.987539,0.007014,0.157217,0.011820,0.001379,0.001643,-24.669613,-28.764338,90.611992,,,,,,
1465313337.86,1.727698,-0.007038,-2.481453,-0.001790,-0.094335,-0.003240,0.987692,0.007038,0.156255,0.013636,0.000134,-0.002355,-24.669613,-28.764338,90.611992,,,,,,
1465313337.87,1.726472,-0.007048,-2.481432,-0.003943,-0.111326,-0.002071,0.987882,0.007048,0.155044,0.012423,-0.000594,-0.005141,-24.389931,-28.776258,90.683899,,,,,,
1465313337.89,1.723533,-0.007144,-2.481362,-0.005050,-0.146363,-0.002917,0.988333,0.007144,0.152140,0.009256,0.000669,-0.003825,-24.389931,-28.776258,90.683899,,,,,,
1465313337.88,1.725093,-0.007105,-2.481411,-0.000778,-0.134688,-0.001921,0.988095,0.007105,0.153682,0.008808,0.001883,-0.002711,-24.389931,-28.776258,90.683899,,,,,,
1465313337.90,1.721922,-0.007121,-2.481313,-0.006115,-0.148484,-0.003969,0.988577,0.007121,0.150548,0.007257,-0.002605,-0.005726,-24.151546,-28.780876,90.746208,,,,,,
1465313337.91,1.720606,-0.007136,-2.481303,-0.000800,-0.155918,-0.003917,0.988774,0.007135,0.149246,0.003749,-0.000971,0.013534,-24.151546,-28.780876,90.746208,,,,,,
1465313337.92,1.719622,-0.007156,-2.481255,-0.006079,-0.121933,-0.005200,0.988921,0.007156,0.148273,0.001024,-0.001022,0.019665,-24.151546,-28.780876,90.746208,,,,,,
1465313337.93,1.718793,-0.007242,-2.481163,-0.007085,-0.073093,-0.004443,0.989043,0.007242,0.147453,0.001360,0.003241,0.000130,-24.151546,-28.780876,90.746208,,,,,,
1465313337.94,1.717874,-0.007324,-2.481139,-0.001780,-0.087961,-0.004344,0.989177,0.007324,0.146544,0.005574,0.001923,-0.004897,-23.652481,-28.795938,90.872795,,,,,,
1465313337.95,1.717082,-0.007350,-2.481080,-0.006069,-0.107079,-0.001036,0.989293,0.007350,0.145761,0.003170,0.001057,0.015281,-23.652481,-28.795938,90.872795,,,,,,
1465313337.96,1.716507,-0.007389,-2.481021,-0.006025,-0.072038,-0.001255,0.989376,0.007389,0.145191,0.001133,0.001629,0.015621,-23.488213,-28.808392,90.911453,,,,,,
1465313337.98,1.714838,-0.007579,-2.480940,0.002437,-0.113460,0.001141,0.989615,0.007579,0.143540,0.012002,0.007069,-0.002640,-23.488213,-28.808392,90.911453,,,,,,
1465313337.97,1.715834,-0.007458,-2.480951,-0.007062,-0.048682,-0.000339,0.989473,0.007458,0.144526,0.009169,0.003895,-0.008021,-23.488213,-28.808392,90.911453,,,,,,
1465313337.99,1.713641,-0.007657,-2.480925,-0.005067,-0.147444,0.005604,0.989786,0.007657,0.142356,0.009039,0.006687,0.016549,-23.203876,-28.829504,90.977745,,,,,,
1465313338.00,1.712308,-0.007656,-2.480865,-0.007158,-0.113472,0.007517,0.989975,0.007656,0.141036,0.010513,0.004490,-0.003036,-23.203876,-28.829504,90.977745,,,,,,
1465313338.01,1.710702,-0.007537,-2.480859,-0.000807,-0.143207,0.007710,0.990201,0.007537,0.139446,0.019275,-0.002395,-0.014629,-23.203876,-28.829504,90.977745,,,,,,
1465313338.02,1.708636,-0.007367,-2.480866,-0.004098,-0.221776,0.007135,0.990488,0.007367,0.137400,0.021322,-0.005124,0.005224,-23.203876,-28.829504,90.977745,,,,,,
1465313338.03,1.706270,-0.007207,-2.480807,-0.007294,-0.227078,0.005037,0.990812,0.007207,0.135056,0.013857,-0.005162,-0.000504,-22.644920,-28.834324,91.116959,,,,,,
1465313338.04,1.703901,-0.007144,-2.480813,0.000162,-0.228138,0.002922,0.991129,0.007144,0.132709,0.015874,-0.001789,-0.003131,-22.644920,-28.834324,91.116959,,,,,,
1465313338.05,1.701366,-0.007024,-2.480821,-0.002017,-0.270603,0.001058,0.991463,0.007024,0.130195,0.022269,-0.005864,0.009560,-22.219347,-28.837034,91.220818,,,,,,
1465313338.07,1.695986,-0.007005,-2.480735,0.000131,-0.261039,-0.002193,0.992150,0.007005,0.124860,0.008171,0.002623,0.002352,-22.219347,-28.837034,91.220818,,,,,,
1465313338.06,1.698613,-0.006938,-2.480742,-0.008404,-0.274838,-0.002114,0.991819,0.006938,0.127466,0.005618,-0.004741,0.002478,-22.219347,-28.837034,91.220818,,,,,,
1465313338.08,1.693368,-0.006997,-2.480699,-0.004141,-0.268475,-0.000021,0.992473,0.006996,0.122262,0.002751,-0.000237,0.004249,-22.219347,-28.837034,91.220818,,,,,,
1465313338.09,1.691068,-0.006920,-2.480704,-0.002005,-0.259985,0.002057,0.992752,0.006920,0.119979,0.001251,-0.003380,0.024034,-21.261040,-28.846256,91.446007,,,,,,
1465313338.10,1.689046,-0.006855,-2.480629,-0.007273,-0.212206,0.003881,0.992993,0.006855,0.117972,0.003314,-0.001499,0.013101,-21.261040,-28.846256,91.446007,,,,,,
1465313338.11,1.686979,-0.006807,-2.480590,-0.006183,-0.195212,0.001647,0.993235,0.006807,0.115919,0.005880,-0.001726,-0.002714,-20.869400,-28.851398,91.534561,,,,,,
1465313338.13,1.683051,-0.006657,-2.480436,-0.010455,-0.212185,-0.002508,0.993684,0.006657,0.112016,0.016356,-0.003391,0.020995,-20.869400,-28.851398,91.534561,,,,,,
1465313338.12,1.684966,-0.006706,-2.480508,-0.007266,-0.213256,-0.000370,0.993467,0.006706,0.113919,0.011568,-0.005013,0.003757,-20.869400,-28.851398,91.534561,,,,,,
1465313338.14,1.681213,-0.006742,-2.480335,-0.007232,-0.190947,-0.003703,0.993888,0.006741,0.110190,0.005792,0.004275,0.006891,-20.499504,-28.861235,91.615005,,,,,,
1465313338.16,1.676771,-0.006870,-2.480258,-0.005190,-0.252547,0.002007,0.994366,0.006870,0.105774,0.003101,0.002499,0.002182,-20.499504,-28.861235,91.615005,,,,,,
1465313338.15,1.679164,-0.006841,-2.480309,-0.001935,-0.209006,-0.001456,0.994111,0.006841,0.108154,0.012313,0.005046,0.002351,-20.499504,-28.861235,91.615005,,,,,,
1465313338.17,1.674552,-0.006755,-2.480248,-0.001982,-0.242988,0.000886,0.994599,0.006755,0.103568,0.010177,-0.005961,0.017236,-19.742477,-28.886126,91.773293,,,,,,
1465313338.19,1.670037,-0.006772,-2.480185,0.001224,-0.238734,-0.002331,0.995057,0.006772,0.099076,0.014800,0.003924,0.004562,-19.742477,-28.886126,91.773293,,,,,,
1465313338.18,1.672345,-0.006681,-2.480170,-0.010458,-0.213248,-0.001437,0.994826,0.006681,0.101372,0.008241,-0.004209,0.000969,-19.742477,-28.886126,91.773293,,,,,,
1465313338.20,1.667757,-0.006738,-2.480110,-0.009428,-0.240854,-0.001263,0.995280,0.006738,0.096806,0.006795,-0.002191,0.011379,-19.341206,-28.892502,91.856697,,,,,,
1465313338.21,1.665647,-0.006769,-2.480023,-0.006210,-0.223863,-0.002431,0.995482,0.006769,0.094706,0.005403,0.000876,0.011159,-19.341206,-28.892502,91.856697,,,,,,
1465313338.22,1.663525,-0.006846,-2.479965,-0.007277,-0.222806,-0.000310,0.995680,0.006846,0.092594,0.005449,0.003942,0.007138,-18.917675,-28.898680,91.942909,,,,,,
1465313338.23,1.661399,-0.006971,-2.479901,-0.006238,-0.242979,-0.000184,0.995874,0.006971,0.090477,0.006399,0.007479,0.016564,-18.917675,-28.898680,91.942909,,,,,,
1465313338.24,1.659162,-0.007023,-2.479843,-0.004102,-0.236612,0.000843,0.996074,0.007023,0.088248,0.006673,0.003536,0.009545,-18.917675,-28.898680,91.942909,,,,,,
1465313338.25,1.657032,-0.007063,-2.479822,-0.000914,-0.240859,0.000872,0.996259,0.007063,0.086127,0.011355,0.002672,0.016901,-18.917675,-28.898680,91.942909,,,,,,
1465313338.26,1.654645,-0.007001,-2.479776,-0.004129,-0.257846,0.000976,0.996462,0.007001,0.083748,0.013029,-0.002744,0.009559,-18.917675,-28.898680,91.942909,,,,,,
1465313338.27,1.652164,-0.006944,-2.479744,-0.003095,-0.282266,0.001130,0.996667,0.006944,0.081276,0.013815,-0.002107,0.019188,-17.701981,-28.932467,92.174095,,,,,,
1465313338.28,1.649503,-0.006798,-2.479696,-0.004134,-0.268450,-0.003214,0.996881,0.006798,0.078623,0.013479,-0.009193,0.005056,-17.701981,-28.932467,92.174095,,,,,,
1465313338.29,1.646813,-0.006821,-2.479692,0.002232,-0.289683,-0.005204,0.997089,0.006821,0.075942,0.012372,-0.001618,0.010560,-17.233372,-28.937876,92.261154,,,,,,
1465313338.30,1.644277,-0.006942,-2.479676,-0.005218,-0.287553,-0.005225,0.997277,0.006942,0.073413,0.005362,0.004030,0.024411,-17.233372,-28.937876,92.261154,,,,,,
1465313338.32,1.639780,-0.007203,-2.479585,0.000157,-0.242963,-0.003371,0.997596,0.007203,0.068927,0.002359,0.005248,0.009930,-16.746836,-28.941175,92.349678,,,,,,
1465313338.31,1.642041,-0.007084,-2.479597,-0.005168,-0.246144,-0.004420,0.997438,0.007084,0.071183,0.001341,0.005688,0.020156,-16.746836,-28.941175,92.349678,,,,,,
1465313338.33,1.637560,-0.007295,-2.479540,-0.004116,-0.252518,-0.002251,0.997746,0.007295,0.066712,0.002132,0.003874,0.017837,-16.746836,-28.941175,92.349678,,,,,,
1465313338.34,1.635719,-0.007369,-2.479479,-0.006211,-0.221728,-0.000318,0.997866,0.007368,0.064876,0.000776,0.004015,0.029408,-16.746836,-28.941175,92.349678,,,,,,
1465313338.35,1.633968,-0.007444,-2.479465,-0.000862,-0.198375,0.001669,0.997978,0.007443,0.063128,0.002801,0.005389,0.016813,-15.943082,-28.963770,92.484749,,,,,,
1465313338.36,1.631960,-0.007441,-2.479494,0.003358,-0.224930,0.005033,0.998102,0.007441,0.061124,0.010351,0.002111,0.010318,-15.943082,-28.963770,92.484749,,,,,,
1465313338.37,1.629898,-0.007404,-2.479507,-0.000926,-0.242980,0.006206,0.998227,0.007404,0.059065,0.010303,0.001263,0.022523,-15.593206,-28.963104,92.544586,,,,,,
1465313338.38,1.628037,-0.007347,-2.479499,0.001248,-0.211119,0.003880,0.998335,0.007347,0.057208,0.010652,-0.000283,0.020765,-15.593206,-28.963104,92.544586,,,,,,
1465313338.39,1.626337,-0.007369,-2.479510,0.001279,-0.193055,-0.000491,0.998431,0.007369,0.055511,0.002347,0.001252,0.015778,-15.593206,-28.963104,92.544586,,,,,,
1465313338.40,1.624231,-0.007545,-2.479471,-0.003002,-0.205804,0.002777,0.998544,0.007545,0.053408,0.003027,0.011269,-0.006197,-15.593206,-28.963104,92.544586,,,,,,
1465313338.41,1.621619,-0.007869,-2.479520,0.006483,-0.271662,0.010648,0.998678,0.007869,0.050799,0.003687,0.023809,-0.003771,-14.874458,-28.966311,92.661835,,,,,,
1465313338.42,1.619098,-0.008045,-2.479569,0.002184,-0.288673,0.020328,0.998801,0.008045,0.048281,-0.001853,0.020641,0.024458,-14.874458,-28.966311,92.661835,,,,,,
1465313338.43,1.617084,-0.007883,-2.479604,0.004379,-0.233463,0.022113,0.998898,0.007883,0.046270,-0.001141,0.003821,0.028742,-14.384306,-28.962109,92.740494,,,,,,
1465313338.44,1.615119,-0.007438,-2.479715,0.011862,-0.211165,0.020917,0.998990,0.007438,0.044306,0.008853,-0.013878,0.009954,-14.384306,-28.962109,92.740494,,,,,,
1465313338.45,1.612957,-0.007003,-2.479792,0.004377,-0.243003,0.016853,0.999087,0.007003,0.042147,0.016508,-0.015151,0.013166,-14.384306,-28.962109,92.740494,,,,,,
1465313338.46,1.611085,-0.006695,-2.479881,0.008662,-0.229187,0.012514,0.999166,0.006694,0.040277,0.021799,-0.009960,0.032691,-14.384306,-28.962109,92.740494,,,,,,
1465313338.47,1.609409,-0.006508,-2.479976,0.009791,-0.181399,0.010087,0.999233,0.006508,0.038602,0.004108,-0.003747,0.018191,-13.680405,-28.919649,92.860168,,,,,,
1465313338.48,1.607756,-0.006634,-2.480087,0.012953,-0.203702,0.012357,0.999295,0.006634,0.036951,-0.000760,0.013996,0.018622,-13.680405,-28.919649,92.860168,,,,,,
1465313338.50,1.605480,-0.006502,-2.480246,0.010908,-0.124081,0.019306,0.999377,0.006502,0.034676,-0.015460,0.008330,0.027900,-13.373310,-28.899788,92.911072,,,,,,
1465313338.49,1.606410,-0.006539,-2.480160,0.005534,-0.172909,0.014286,0.999345,0.006539,0.035605,0.002181,0.003226,0.030206,-13.373310,-28.899788,92.911072,,,,,,
1465313338.51,1.605055,-0.006432,-2.480386,0.014147,-0.083740,0.022249,0.999393,0.006432,0.034251,-0.009845,0.008125,0.028096,-13.373310,-28.899788,92.911072,,,,,,
1465313338.52,1.605362,-0.006239,-2.480532,0.013140,-0.029598,0.027230,0.999383,0.006239,0.034558,-0.015359,0.003939,0.045810,-13.165842,-28.883638,92.945717,,,,,,
1465313338.53,1.606579,-0.005920,-2.480657,0.012212,0.073414,0.022326,0.999342,0.005920,0.035775,-0.015120,-0.005020,0.042198,-13.165842,-28.883638,92.945717,,,,,,
1465313338.54,1.608467,-0.005481,-2.480812,0.015506,0.153051,0.021831,0.999276,0.005481,0.037661,-0.015328,-0.012301,0.028989,-13.165842,-28.883638,92.945717,,,,,,
1465313338.55,1.610867,-0.005220,-2.480963,0.013415,0.190207,0.025854,0.999184,0.005220,0.040059,-0.018593,-0.000795,0.032817,-13.473793,-28.820637,92.921143,,,,,,
1465313338.56,1.614131,-0.004950,-2.481093,0.011393,0.273039,0.023204,0.999049,0.004950,0.043320,-0.014415,-0.002157,0.039764,-13.473793,-28.820637,92.921143,,,,,,
1465313338.57,1.618392,-0.004759,-2.481250,0.014731,0.368553,0.018351,0.998856,0.004759,0.047577,-0.011994,0.000078,0.043411,-13.473793,-28.820637,92.921143,,,,,,
1465313338.59,1.627685,-0.004391,-2.481538,0.014824,0.439704,0.015776,0.998373,0.004390,0.056858,-0.003255,-0.001995,0.016674,-14.015617,-28.789085,92.850754,,,,,,
1465313338.58,1.622967,-0.004579,-2.481393,0.012670,0.419529,0.015900,0.998629,0.004579,0.052146,-0.011263,-0.001085,0.024178,-14.015617,-28.789085,92.850754,,,,,,
1465313338.60,1.632678,-0.004239,-2.481693,0.015926,0.467315,0.014540,0.998077,0.004239,0.061841,-0.006256,-0.000684,0.018985,-14.015617,-28.789085,92.850754,,,,,,
1465313338.61,1.638269,-0.004083,-2.481877,0.018103,0.511902,0.018520,0.997716,0.004083,0.067421,-0.006475,0.000647,0.029457,-15.756912,-28.725990,92.590759,,,,,,
1465313338.62,1.644267,-0.004031,-2.482047,0.016025,0.553316,0.018257,0.997294,0.004031,0.073404,-0.004481,0.007077,0.027930,-15.756912,-28.725990,92.590759,,,,,,
1465313338.63,1.650289,-0.004048,-2.482231,0.018175,0.572424,0.020268,0.996834,0.004048,0.079408,-0.000313,0.010768,0.013747,-15.756912,-28.725990,92.590759,,,,,,
1465313338.64,1.656126,-0.003849,-2.482448,0.021369,0.569243,0.018162,0.996354,0.003849,0.085225,0.007949,-0.002186,0.001811,-16.835735,-28.690792,92.411621,,,,,,
1465313338.65,1.661797,-0.003699,-2.482648,0.020295,0.558632,0.016099,0.995856,0.003699,0.090874,0.008921,0.000131,-0.000970,-16.835735,-28.690792,92.411621,,,,,,
1465313338.66,1.667531,-0.003497,-2.482867,0.018188,0.569263,0.011773,0.995319,0.003497,0.096583,0.010754,-0.007251,0.003560,-16.835735,-28.690792,92.411621,,,,,,
1465313338.67,1.673254,-0.003059,-2.483055,0.018220,0.583086,0.004237,0.994751,0.003059,0.102278,0.017349,-0.030830,-0.014113,-18.998634,-28.608923,92.016808,,,,,,
1465313338.68,1.678843,-0.002929,-2.483255,0.020319,0.545946,-0.004043,0.994164,0.002929,0.107836,0.017966,-0.014587,0.001860,-18.998634,-28.608923,92.016808,,,,,,
1465313338.69,1.684467,-0.002877,-2.483429,0.018201,0.551263,-0.006206,0.993542,0.002877,0.113426,0.009906,-0.008873,0.007042,-18.998634,-28.608923,92.016808,,,,,,
1465313338.70,1.690284,-0.002891,-2.483584,0.015047,0.587360,-0.004307,0.992866,0.002891,0.119203,0.003686,-0.002814,-0.005693,-20.055735,-28.566936,91.805267,,,,,,
1465313338.71,1.695704,-0.002852,-2.483788,0.023513,0.547003,-0.002980,0.992205,0.002852,0.124582,0.004743,-0.006011,-0.017679,-20.055735,-28.566936,91.805267,,,,,,
1465313338.72,1.701303,-0.002866,-2.483956,0.012862,0.549124,0.000189,0.991492,0.002866,0.130136,0.001596,-0.001019,0.006292,-21.107096,-28.535793,91.578979,,,,,,
1465313338.73,1.707405,-0.002919,-2.484057,0.011882,0.617081,-0.000238,0.990679,0.002919,0.136184,-0.006548,0.002360,-0.000792,-21.107096,-28.535793,91.578979,,,,,,
1465313338.74,1.713220,-0.003003,-2.484258,0.021449,0.601153,-0.002258,0.989870,0.003003,0.141942,0.006941,0.002688,-0.026983,-21.107096,-28.535793,91.578979,,,,,,
1465313338.75,1.718482,-0.003039,-2.484439,0.017101,0.524713,-0.004976,0.989110,0.003039,0.147149,0.010188,-0.001986,-0.015557,-21.107096,-28.535793,91.578979,,,,,,
1465313338.76,1.723942,-0.003111,-2.484569,0.013960,0.564007,-0.007355,0.988291,0.003111,0.152547,0.003820,-0.002027,0.008021,-23.201548,-28.473930,91.090256,,,,,,
1465313338.77,1.729907,-0.003198,-2.484740,0.021455,0.599040,-0.006502,0.987364,0.003198,0.158439,0.001986,0.005683,-0.010154,-23.201548,-28.473930,91.090256,,,,,,
1465313338.78,1.735425,-0.003292,-2.484963,0.021372,0.534267,-0.005032,0.986474,0.003292,0.163885,0.008918,0.009327,-0.015082,-23.201548,-28.473930,91.090256,,,,,,
1465313338.79,1.740163,-0.003464,-2.485081,0.011751,0.508778,-0.001689,0.985686,0.003464,0.168557,0.012529,0.007812,-0.027459,-25.213684,-28.410933,90.573730,,,,,,
1465313338.80,1.744932,-0.003521,-2.485293,0.025533,0.460990,-0.001375,0.984870,0.003521,0.173256,0.014458,0.004566,-0.032509,-25.213684,-28.410933,90.573730,,,,,,
1465313338.81,1.749378,-0.003543,-2.485494,0.014859,0.445059,0.001907,0.984091,0.003543,0.177633,0.004923,0.008038,-0.001119,-25.213684,-28.410933,90.573730,,,,,,
1465313338.82,1.753999,-0.003536,-2.485641,0.015945,0.465227,0.003911,0.983259,0.003536,0.182178,0.006380,0.008687,-0.010288,-26.068935,-28.382437,90.340240,,,,,,
1465313338.83,1.757889,-0.003728,-2.485918,0.028647,0.408937,0.006404,0.982542,0.003728,0.186002,0.009096,0.010249,-0.024167,-26.068935,-28.382437,90.340240,,,,,,
1465313338.84,1.761607,-0.003669,-2.486107,0.012618,0.367526,0.009841,0.981844,0.003669,0.189654,0.007353,0.003899,-0.006930,-26.068935,-28.382437,90.340240,,,,,,
1465313338.85,1.765426,-0.003629,-2.486298,0.020103,0.387705,0.006529,0.981113,0.003629,0.193402,0.011136,0.000186,-0.008389,-27.572151,-28.307783,89.916389,,,,,,
1465313338.86,1.769048,-0.003624,-2.486536,0.023247,0.344176,0.004676,0.980406,0.003624,0.196954,0.024416,-0.006569,-0.038980,-27.572151,-28.307783,89.916389,,,,,,
1465313338.87,1.771111,-0.003504,-2.486760,0.021000,0.245434,0.002101,0.979998,0.003504,0.198977,0.023527,-0.007196,-0.030214,-27.572151,-28.307783,89.916389,,,,,,
1465313338.88,1.773661,-0.003522,-2.486927,0.015707,0.268800,0.000884,0.979487,0.003522,0.201475,0.009175,-0.004743,-0.002790,-28.244211,-28.267199,89.720345,,,,,,
1465313338.89,1.776625,-0.003550,-2.487120,0.021065,0.297463,0.001774,0.978886,0.003550,0.204377,0.004711,0.000753,-0.002610,-28.244211,-28.267199,89.720345,,,,,,
1465313338.90,1.779243,-0.003544,-2.487320,0.016734,0.246487,0.006347,0.978347,0.003544,0.206940,0.006943,0.003261,-0.014969,-28.244211,-28.267199,89.720345,,,,,,
1465313338.91,1.780916,-0.003451,-2.487476,0.015597,0.194448,0.009866,0.978000,0.003451,0.208576,0.008297,-0.001681,-0.019687,-29.164545,-28.193092,89.448807,,,,,,
1465313338.92,1.782807,-0.003390,-2.487665,0.016658,0.191262,0.009887,0.977604,0.003390,0.210425,0.006740,-0.001971,-0.013831,-29.164545,-28.193092,89.448807,,,,,,
1465313338.93,1.784613,-0.003356,-2.487854,0.019836,0.173219,0.006810,0.977223,0.003356,0.212190,0.006374,-0.002624,-0.012743,-29.164545,-28.193092,89.448807,,,,,,
1465313338.94,1.786180,-0.003322,-2.488070,0.020873,0.154100,0.009060,0.976889,0.003322,0.213722,-0.000967,-0.000331,0.006097,-29.489506,-28.159227,89.352882,,,,,,
1465313338.95,1.788314,-0.003305,-2.488277,0.017714,0.189131,0.013095,0.976431,0.003305,0.215805,-0.012457,0.002600,0.012238,-29.489506,-28.159227,89.352882,,,,,,
1465313338.96,1.790497,-0.003211,-2.488474,0.017758,0.224171,0.012875,0.975958,0.003211,0.217936,-0.012518,0.006844,0.011266,-29.489506,-28.159227,89.352882,,,,,,
1465313338.97,1.792717,-0.003114,-2.488678,0.017749,0.218859,0.013973,0.975472,0.003114,0.220103,-0.009545,-0.000078,0.000860,-30.185837,-28.081764,89.144493,,,,,,
1465313338.98,1.794874,-0.002977,-2.488852,0.013483,0.217790,0.017168,0.974995,0.002977,0.222206,-0.009465,0.001142,0.002556,-30.185837,-28.081764,89.144493,,,,,,
1465313338.99,1.797598,-0.002871,-2.489022,0.012455,0.248582,0.018039,0.974386,0.002871,0.224862,-0.013174,0.001631,0.010475,-30.584579,-28.043989,89.020386,,,,,,
1465313339.00,1.800217,-0.002694,-2.489197,0.012465,0.263436,0.022203,0.973795,0.002694,0.227413,-0.015909,0.001121,0.013844,-30.584579,-28.043989,89.020386,,,,,,
1465313339.01,1.802819,-0.002502,-2.489375,0.012456,0.258124,0.023301,0.973200,0.002502,0.229946,-0.014811,0.001297,0.015171,-30.584579,-28.043989,89.020386,,,,,,
1465313339.02,1.805390,-0.002340,-2.489564,0.014590,0.254949,0.019065,0.972606,0.002340,0.232447,-0.007274,-0.001287,0.008092,-31.069820,-28.008904,88.863258,,,,,,
1465313339.03,1.807934,-0.002197,-2.489749,0.015644,0.241154,0.015960,0.972012,0.002197,0.234921,-0.002957,-0.000686,0.001545,-31.069820,-28.008904,88.863258,,,,,,
1465313339.04,1.810261,-0.002094,-2.489913,0.013507,0.231605,0.013888,0.971463,0.002094,0.237182,-0.003842,-0.001666,0.004670,-31.069820,-28.008904,88.863258,,,,,,
1465313339.05,1.812577,-0.002015,-2.490110,0.017773,0.233732,0.011750,0.970911,0.002015,0.239431,-0.007456,-0.002565,0.013331,-31.069820,-28.008904,88.863258,,,,,,
1465313339.06,1.814978,-0.001953,-2.490281,0.014591,0.242231,0.010629,0.970334,0.001953,0.241762,-0.012417,-0.000199,0.018599,-31.981962,-27.935812,88.562149,,,,,,
1465313339.07,1.817752,-0.001833,-2.490471,0.017765,0.229485,0.012842,0.969660,0.001833,0.244453,-0.013467,-0.001939,0.013146,-31.981962,-27.935812,88.562149,,,,,,
1465313339.08,1.819861,-0.001775,-2.490685,0.019872,0.206133,0.009797,0.969142,0.001775,0.246497,-0.011424,-0.001714,0.010384,-31.981962,-27.935812,88.562149,,,,,,
1465313339.09,1.821970,-0.001700,-2.490871,0.015617,0.212500,0.011882,0.968620,0.001700,0.248541,-0.015480,-0.001196,0.011057,-32.844772,-27.860334,88.269669,,,,,,
1465313339.10,1.824558,-0.001630,-2.491080,0.018811,0.214622,0.012936,0.967974,0.001630,0.251047,-0.023043,0.000445,0.011099,-32.844772,-27.860334,88.269669,,,,,,
1465313339.11,1.827389,-0.001552,-2.491275,0.016689,0.218877,0.011843,0.967259,0.001552,0.253786,-0.025456,-0.000255,0.020003,-32.844772,-27.860334,88.269669,,,,,,
1465313339.12,1.830447,-0.001449,-2.491457,0.016718,0.237999,0.009594,0.966479,0.001449,0.256742,-0.025454,-0.001906,0.022387,-33.265759,-27.821922,88.124008,,,,,,
1465313339.13,1.833502,-0.001421,-2.491664,0.019927,0.248622,0.008467,0.965690,0.001421,0.259694,-0.024787,-0.000062,0.017177,-33.265759,-27.821922,88.124008,,,,,,
1465313339.14,1.836517,-0.001460,-2.491864,0.018865,0.248628,0.007401,0.964902,0.001460,0.262605,-0.028379,0.002599,0.013122,-33.265759,-27.821922,88.124008,,,,,,
1465313339.15,1.839857,-0.001490,-2.492072,0.018887,0.273042,0.011505,0.964020,0.001490,0.265825,-0.033951,0.003270,0.018537,-34.327621,-27.746719,87.739639,,,,,,
1465313339.16,1.843347,-0.001602,-2.492328,0.025296,0.288970,0.011411,0.963086,0.001602,0.269189,-0.040128,0.006577,0.015265,-34.327621,-27.746719,87.739639,,,,,,
1465313339.17,1.846487,-0.001547,-2.492590,0.022141,0.321884,0.012266,0.962236,0.001547,0.272211,-0.042101,0.004556,0.021811,-34.327621,-27.746719,87.739639,,,,,,
1465313339.18,1.849918,-0.001478,-2.492868,0.025366,0.351604,0.015276,0.961297,0.001478,0.275511,-0.050042,0.003466,0.024354,-34.925831,-27.704681,87.516563,,,,,,
1465313339.19,1.853721,-0.001384,-2.493126,0.022216,0.388766,0.016104,0.960242,0.001384,0.279165,-0.052680,0.004048,0.024805,-34.925831,-27.704681,87.516563,,,,,,
1465313339.20,1.858562,-0.001348,-2.493397,0.023307,0.413186,0.018080,0.958880,0.001348,0.283810,-0.049257,0.002833,0.019199,-34.925831,-27.704681,87.516563,,,,,,
1465313339.21,1.862720,-0.001269,-2.493708,0.026515,0.420622,0.015908,0.957691,0.001269,0.287795,-0.045826,0.000715,0.013993,-36.268486,-27.602001,87.001358,,,,,,
1465313339.22,1.867118,-0.001194,-2.494008,0.026551,0.449291,0.015728,0.956416,0.001194,0.292004,-0.052684,-0.002430,0.019565,-36.268486,-27.602001,87.001358,,,,,,
1465313339.23,1.872460,-0.001137,-2.494312,0.027643,0.470531,0.015596,0.954843,0.001137,0.297109,-0.057000,0.000648,0.019083,-36.268486,-27.602001,87.001358,,,,,,
1465313339.24,1.877310,-0.001067,-2.494607,0.023404,0.488580,0.016543,0.953391,0.001067,0.301736,-0.063864,0.002732,0.017600,-37.020622,-27.543173,86.702698,,,,,,
1465313339.25,1.882106,-0.000982,-2.494958,0.031902,0.477949,0.019812,0.951933,0.000982,0.306305,-0.071318,0.003977,0.023712,-37.020622,-27.543173,86.702698,,,,,,
1465313339.26,1.887088,-0.000862,-2.495311,0.029803,0.506610,0.022823,0.950395,0.000862,0.311044,-0.070482,0.004219,0.020408,-37.020622,-27.543173,86.702698,,,,,,
1465313339.27,1.892892,-0.000758,-2.495643,0.027709,0.540583,0.025801,0.948574,0.000758,0.316555,-0.068096,0.003896,0.009877,-38.764458,-27.417675,85.977310,,,,,,
1465313339.28,1.898325,-0.000624,-2.496020,0.034099,0.539521,0.024750,0.946840,0.000624,0.321704,-0.071886,0.003877,0.008847,-38.764458,-27.417675,85.977310,,,,,,
1465313339.29,1.903822,-0.000450,-2.496389,0.030913,0.553314,0.028918,0.945058,0.000450,0.326904,-0.082692,0.003242,0.016175,-38.764458,-27.417675,85.977310,,,,,,
1465313339.30,1.909648,-0.000279,-2.496771,0.027774,0.596850,0.028642,0.943137,0.000279,0.332404,-0.091330,0.002696,0.019509,-39.740601,-27.348782,85.552551,,,,,,
1465313339.31,1.916220,-0.000117,-2.497142,0.029948,0.636131,0.030526,0.940932,0.000117,0.338596,-0.091704,0.003301,0.016888,-39.740601,-27.348782,85.552551,,,,,,
1465313339.32,1.922716,0.000081,-2.497522,0.028899,0.649932,0.031503,0.938713,-0.000081,0.344700,-0.094642,0.001713,0.005794,-39.740601,-27.348782,85.552551,,,,,,
1465313339.33,1.929296,0.000281,-2.497933,0.029975,0.662667,0.033553,0.936424,-0.000281,0.350870,-0.095238,-0.001947,-0.000818,-41.847469,-27.200773,84.589706,,,,,,
1465313339.34,1.935988,0.000491,-2.498339,0.033179,0.670098,0.033510,0.934055,-0.000491,0.357128,-0.100895,-0.003964,0.003498,-41.847469,-27.200773,84.589706,,,,,,
1465313339.35,1.942860,0.000685,-2.498764,0.032144,0.693459,0.033362,0.931579,-0.000685,0.363539,-0.113402,-0.000597,0.006746,-42.984756,-27.119947,84.043610,,,,,,
1465313339.36,1.950121,0.000852,-2.499187,0.032205,0.739122,0.030947,0.928915,-0.000852,0.370293,-0.120474,0.000608,0.013054,-42.984756,-27.119947,84.043610,,,,,,
1465313339.37,1.958045,0.001003,-2.499602,0.032299,0.810269,0.028372,0.925951,-0.001003,0.377642,-0.115435,0.002087,-0.007967,-42.984756,-27.119947,84.043610,,,,,,
1465313339.38,1.966272,0.001121,-2.500017,0.036574,0.821949,0.027239,0.922813,-0.001121,0.385247,-0.125129,0.002631,-0.015786,-44.185726,-27.036652,83.445503,,,,,,
1465313339.39,1.974504,0.001230,-2.500472,0.035521,0.832565,0.028235,0.919610,-0.001230,0.392830,-0.139123,0.000193,-0.014794,-44.185726,-27.036652,83.445503,,,,,,
1465313339.40,1.983342,0.001364,-2.500906,0.033480,0.906886,0.029896,0.916102,-0.001364,0.400942,-0.131862,0.002951,-0.018252,-44.185726,-27.036652,83.445503,,,,,,
1465313339.41,1.992652,0.001471,-2.501373,0.043093,0.929182,0.028701,0.912330,-0.001471,0.409454,-0.140205,-0.000070,-0.033874,-44.185726,-27.036652,83.445503,,,,,,
1465313339.42,2.001973,0.001544,-2.501867,0.042033,0.931309,0.027623,0.908474,-0.001544,0.417940,-0.141765,-0.001889,-0.041658,-46.964043,-26.870022,81.968842,,,,,,
1465313339.43,2.011602,0.001626,-2.502329,0.041020,0.970599,0.026311,0.904407,-0.001626,0.426668,-0.138416,-0.002494,-0.059129,-46.964043,-26.870022,81.968842,,,,,,
1465313339.44,2.021390,0.001662,-2.502825,0.043168,0.980163,0.023059,0.900187,-0.001662,0.435500,-0.138636,-0.002061,-0.071471,-46.964043,-26.870022,81.968842,,,,,,
1465313339.45,2.031163,0.001715,-2.503290,0.039959,0.971665,0.025238,0.895888,-0.001715,0.444276,-0.141143,-0.001184,-0.090730,-50.077438,-26.686768,80.165939,,,,,,
1465313339.46,2.040712,0.001791,-2.503763,0.036734,0.953604,0.029606,0.891605,-0.001791,0.452811,-0.144077,-0.000437,-0.104132,-50.077438,-26.686768,80.165939,,,,,,
1465313339.47,2.050108,0.001897,-2.504230,0.037765,0.927058,0.029774,0.887311,-0.001897,0.461167,-0.137845,0.002065,-0.122117,-50.077438,-26.686768,80.165939,,,,,,
1465313339.48,2.059020,0.001992,-2.504718,0.034517,0.885647,0.031095,0.883166,-0.001992,0.469057,-0.133715,0.001824,-0.135118,-51.631203,-26.597277,79.204254,,,,,,
1465313339.49,2.067592,0.002142,-2.505190,0.034458,0.847407,0.036657,0.879112,-0.002142,0.476610,-0.133552,0.004598,-0.158083,-51.631203,-26.597277,79.204254,,,,,,
1465313339.50,2.075697,0.002333,-2.505675,0.032260,0.797495,0.040161,0.875220,-0.002333,0.483720,-0.133002,0.006346,-0.176377,-53.088970,-26.505440,78.265793,,,,,,
1465313339.51,2.083181,0.002577,-2.506155,0.028972,0.732709,0.046951,0.871575,-0.002577,0.490256,-0.131035,-0.002122,-0.191321,-53.088970,-26.505440,78.265793,,,,,,
1465313339.52,2.089943,0.002881,-2.506666,0.029926,0.653058,0.052773,0.868239,-0.002881,0.496137,-0.129058,0.000333,-0.212766,-53.088970,-26.505440,78.265793,,,,,,
1465313339.54,2.101056,0.003610,-2.507654,0.025467,0.502270,0.059037,0.862670,-0.003610,0.505754,-0.110015,-0.002081,-0.233918,-55.528954,-26.313189,76.620239,,,,,,
1465313339.53,2.095892,0.003220,-2.507163,0.022371,0.575545,0.055381,0.865271,-0.003220,0.501293,-0.114035,0.001344,-0.233059,-55.528954,-26.313189,76.620239,,,,,,
1465313339.55,2.105784,0.004021,-2.508155,0.022208,0.455544,0.062520,0.860268,-0.004021,0.509826,-0.103951,-0.000221,-0.252761,-55.528954,-26.313189,76.620239,,,,,,
1465313339.56,2.110008,0.004487,-2.508671,0.016829,0.419430,0.068063,0.858105,-0.004487,0.513454,-0.081967,-0.003310,-0.267208,-56.406380,-26.212755,76.011330,,,,,,
1465313339.57,2.113563,0.005032,-2.509157,0.015639,0.324922,0.071848,0.856272,-0.005032,0.516500,-0.099543,-0.008365,-0.294042,-56.406380,-26.212755,76.011330,,,,,,
1465313339.58,2.116448,0.005627,-2.509668,0.011325,0.279185,0.078518,0.854776,-0.005627,0.518967,-0.072625,-0.008518,-0.293946,-56.406380,-26.212755,76.011330,,,,,,
1465313339.59,2.119095,0.006263,-2.510157,0.010235,0.259011,0.078644,0.853396,-0.006263,0.521226,-0.067202,-0.009500,-0.294159,-57.641247,-26.002514,75.152290,,,,,,
1465313339.60,2.121847,0.006915,-2.510595,0.000668,0.271758,0.078554,0.851954,-0.006915,0.523571,-0.036647,-0.010419,-0.317104,-57.641247,-26.002514,75.152290,,,,,,
1465313339.61,2.124122,0.007637,-2.510997,-0.006864,0.217595,0.084209,0.850757,-0.007637,0.525505,-0.033954,-0.020180,-0.339042,-57.641247,-26.002514,75.152290,,,,,,
1465313339.62,2.126041,0.008451,-2.511326,-0.016494,0.182554,0.086548,0.849741,-0.008451,0.527133,-0.004816,-0.017489,-0.350298,-57.641247,-26.002514,75.152290,,,,,,
1465313339.63,2.127393,0.009270,-2.511715,-0.011257,0.118835,0.090146,0.849022,-0.009270,0.528277,0.027565,-0.013054,-0.359240,-58.443493,-25.817270,74.594482,,,,,,
1465313339.64,2.128016,0.010166,-2.512058,-0.019875,0.050863,0.098015,0.848685,-0.010166,0.528801,0.035562,-0.020992,-0.377648,-58.443493,-25.817270,74.594482,,,,,,
1465313339.65,2.128035,0.011116,-2.512415,-0.018897,-0.017096,0.099506,0.848666,-0.011115,0.528812,0.056226,-0.010598,-0.376117,-58.443493,-25.817270,74.594482,,,,,,
1465313339.66,2.114529,0.012774,-2.512577,-0.029598,-0.052214,0.103975,0.855714,-0.012773,0.517292,0.054717,-0.015074,-0.374698,-58.637691,-25.730536,74.471947,,,,,,
1465313339.67,2.113994,0.013878,-2.512811,-0.038125,-0.053283,0.108231,0.855978,-0.013878,0.516826,0.078806,-0.018532,-0.379451,-58.637691,-25.730536,74.471947,,,,,,
1465313339.68,2.113134,0.015076,-2.513007,-0.047780,-0.104257,0.112799,0.856407,-0.015076,0.516081,0.098030,-0.017563,-0.415068,-57.691742,-25.654531,75.233101,,,,,,
1465313339.70,2.108187,0.017841,-2.513409,-0.056642,-0.346399,0.134533,0.858910,-0.017840,0.511815,0.174796,-0.027280,-0.415425,-57.691742,-25.654531,75.233101,,,,,,
1465313339.69,2.111356,0.016419,-2.513200,-0.051140,-0.212600,0.128378,0.857305,-0.016418,0.514547,0.146311,-0.024811,-0.427785,-57.691742,-25.654531,75.233101,,,,,,
1465313339.72,2.099871,0.020800,-2.513604,-0.071666,-0.447251,0.130893,0.863088,-0.020798,0.504625,0.216685,-0.030654,-0.380953,-57.334812,-25.522804,75.550095,,,,,,
1465313339.71,2.104295,0.019322,-2.513535,-0.064170,-0.407977,0.133848,0.860872,-0.019320,0.508454,0.229353,-0.015836,-0.383545,-57.334812,-25.522804,75.550095,,,,,,
1465313339.73,2.095588,0.022272,-2.513557,-0.078014,-0.424932,0.124360,0.865214,-0.022270,0.500908,0.256597,-0.021492,-0.365242,-57.334812,-25.522804,75.550095,,,,,,
1465313339.74,2.091096,0.023798,-2.513456,-0.090842,-0.461036,0.127767,0.867424,-0.023796,0.496999,0.278526,-0.031761,-0.401434,-56.771851,-25.473078,75.990715,,,,,,
1465313339.75,2.085498,0.025389,-2.513290,-0.092080,-0.592711,0.132850,0.870159,-0.025386,0.492117,0.300144,-0.030598,-0.411169,-56.771851,-25.473078,75.990715,,,,,,
1465313339.76,2.078739,0.027004,-2.513181,-0.089022,-0.701016,0.133532,0.873429,-0.027000,0.486203,0.359344,-0.025475,-0.359326,-56.771851,-25.473078,75.990715,,,,,,
1465313339.77,2.071178,0.028643,-2.512916,-0.104004,-0.764711,0.131787,0.877039,-0.028639,0.479564,0.356756,-0.039278,-0.357585,-55.287025,-25.446278,77.086586,,,,,,
1465313339.78,2.063394,0.030181,-2.512621,-0.102929,-0.778477,0.118037,0.880706,-0.030177,0.472701,0.396622,-0.017461,-0.303923,-55.287025,-25.446278,77.086586,,,,,,
1465313339.79,2.055638,0.031748,-2.512052,-0.127391,-0.777368,0.105232,0.884303,-0.031742,0.465833,0.414861,-0.030056,-0.330610,-55.287025,-25.446278,77.086586,,,,,,
1465313339.80,2.047075,0.033173,-2.511502,-0.107290,-0.890973,0.099578,0.888218,-0.033167,0.458223,0.455135,-0.024679,-0.303560,-54.163452,-25.464575,77.874176,,,,,,
1465313339.81,2.037537,0.034531,-2.510875,-0.127572,-0.949333,0.089279,0.892507,-0.034524,0.449710,0.464243,-0.026420,-0.234973,-54.163452,-25.464575,77.874176,,,,,,
1465313339.82,2.028532,0.035731,-2.510007,-0.127426,-0.877054,0.061151,0.896483,-0.035724,0.441636,0.492143,-0.008008,-0.182069,-54.163452,-25.464575,77.874176,,,,,,
1465313339.83,2.019840,0.036698,-2.509137,-0.119942,-0.875955,0.046249,0.900256,-0.036690,0.433812,0.504224,-0.027702,-0.177007,-51.520870,-25.649799,79.587669,,,,,,
1465313339.84,2.010626,0.037571,-2.508075,-0.137009,-0.930048,0.028475,0.904186,-0.037562,0.425485,0.526921,-0.022161,-0.160470,-51.520870,-25.649799,79.587669,,,,,,
1465313339.85,2.000810,0.038259,-2.507000,-0.124272,-0.985228,0.013932,0.908295,-0.038249,0.416579,0.539383,-0.018956,-0.138930,-51.520870,-25.649799,79.587669,,,,,,
1465313339.86,1.990449,0.038856,-2.505829,-0.132851,-1.051026,0.003691,0.912541,-0.038847,0.407136,0.544048,-0.024783,-0.142350,-51.520870,-25.649799,79.587669,,,,,,
1465313339.87,1.979107,0.039343,-2.504573,-0.132962,-1.160356,-0.008396,0.917082,-0.039333,0.396753,0.556489,-0.021793,-0.110574,-48.495773,-26.007988,81.352661,,,,,,
1465313339.88,1.967203,0.039694,-2.503183,-0.147849,-1.177282,-0.028530,0.921728,-0.039684,0.385802,0.567850,-0.020467,-0.067565,-48.495773,-26.007988,81.352661,,,,,,
1465313339.89,1.955189,0.039709,-2.501573,-0.147778,-1.192024,-0.073144,0.926295,-0.039699,0.374701,0.578313,0.019267,-0.038351,-48.495773,-26.007988,81.352661,,,,,,
1465313339.90,1.942905,0.039338,-2.499794,-0.149909,-1.249264,-0.107914,0.930842,-0.039328,0.363299,0.600347,0.004523,-0.020389,-46.593758,-26.247232,82.380913,,,,,,
1465313339.91,1.929330,0.038899,-2.497983,-0.153306,-1.398997,-0.099527,0.935704,-0.038889,0.350636,0.594570,-0.041616,-0.009480,-46.593758,-26.247232,82.380913,,,,,,
1465313339.93,1.893819,0.038597,-2.494988,-0.124428,-2.060658,-0.043191,0.947574,-0.038588,0.317198,0.583615,-0.055468,0.039247,-31.341442,-43.236351,100.605293,,,,,,
1465313339.92,1.913421,0.038633,-2.496356,-0.143015,-1.645405,-0.074554,0.941173,-0.038623,0.335709,0.599949,-0.049847,0.006820,-31.341442,-43.236351,100.605293,,,,,,
1465313339.94,1.871689,0.038647,-2.493452,-0.151289,-2.247534,-0.037788,0.954359,-0.038638,0.296152,0.600145,-0.025648,0.043692,-31.341442,-43.236351,100.605293,,,,,,
1465313339.95,1.848008,0.038586,-2.492042,-0.126963,-2.401466,-0.051700,0.961106,-0.038576,0.273471,0.590194,-0.016142,0.092282,-24.018110,-43.896435,102.319710,,,,,,
1465313339.96,1.823289,0.038371,-2.490545,-0.148316,-2.463014,-0.060916,0.967580,-0.038362,0.249634,0.559535,-0.015807,0.159133,-24.018110,-43.896435,102.319710,,,,,,
1465313339.97,1.798669,0.038188,-2.488862,-0.154688,-2.444968,-0.057842,0.973439,-0.038179,0.225741,0.506221,-0.031203,0.170454,-24.018110,-43.896435,102.319710,,,,,,
1465313339.99,1.749568,0.037742,-2.485782,-0.165297,-2.404632,-0.051719,0.983362,-0.037733,0.177695,0.482901,-0.031557,0.258096,-19.007414,-44.198776,103.238937,,,,,,
1465313339.98,1.773984,0.037938,-2.487407,-0.131318,-2.481093,-0.053334,0.978724,-0.037929,0.201647,0.495748,-0.011617,0.218931,-19.007414,-44.198776,103.238937,,,,,,
1465313340.00,1.725994,0.037409,-2.484211,-0.140702,-2.336660,-0.062765,0.987290,-0.037401,0.154468,0.501678,-0.013060,0.263150,-19.007414,-44.198776,103.238937,,,,,,
1465313340.01,1.702288,0.036961,-2.482750,-0.142882,-2.382308,-0.065674,0.990690,-0.036952,0.131023,0.508501,-0.031194,0.211232,-8.827996,-44.853554,104.323143,,,,,,
1465313340.02,1.677618,0.036466,-2.481083,-0.157930,-2.500151,-0.068143,0.993639,-0.036458,0.106548,0.517653,-0.033824,0.193486,-8.827996,-44.853554,104.323143,,,,,,
1465313340.03,1.651821,0.035991,-2.479648,-0.136745,-2.574512,-0.059140,0.996074,-0.035983,0.080884,0.462163,-0.027890,0.276950,-8.827996,-44.853554,104.323143,,,,,,
1465313340.04,1.627167,0.035594,-2.478074,-0.161043,-2.403581,-0.048528,0.997779,-0.035587,0.056305,0.435204,-0.037533,0.331802,-3.727712,-45.172771,104.492188,,,,,,
1465313340.05,1.603741,0.035258,-2.476563,-0.139691,-2.338854,-0.037203,0.998836,-0.035250,0.032919,0.421177,-0.043882,0.298014,-3.727712,-45.172771,104.492188,,,,,,
1465313340.06,1.580325,0.034926,-2.475142,-0.147143,-2.333550,-0.034051,0.999345,-0.034919,0.009523,0.431304,-0.016915,0.314696,-3.727712,-45.172771,104.492188,,,,,,
1465313340.07,1.558014,0.034623,-2.473586,-0.158654,-2.167912,-0.031908,0.999319,-0.034616,-0.012775,0.408564,-0.030157,0.337451,6.490785,-45.779778,104.092133,,,,,,
1465313340.08,1.537558,0.034292,-2.472225,-0.130766,-2.001229,-0.030796,0.998860,-0.034285,-0.033213,0.400951,-0.025529,0.341624,6.490785,-45.779778,104.092133,,,,,,
1465313340.09,1.518596,0.033856,-2.470903,-0.134835,-1.857869,-0.037022,0.998066,-0.033850,-0.052147,0.401211,-0.008814,0.364403,6.490785,-45.779778,104.092133,,,,,,
1465313340.10,1.501716,0.033335,-2.469575,-0.134528,-1.623193,-0.044880,0.997061,-0.033328,-0.068987,0.389032,-0.015530,0.388384,10.949416,-46.078041,103.585793,,,,,,
1465313340.11,1.487360,0.032742,-2.468433,-0.119259,-1.348170,-0.055105,0.995987,-0.032736,-0.083295,0.350830,-0.012842,0.429792,10.949416,-46.078041,103.585793,,,,,,
1465313340.12,1.475629,0.032063,-2.467330,-0.110448,-1.117757,-0.058670,0.994963,-0.032058,-0.094975,0.336015,-0.016801,0.444096,10.949416,-46.078041,103.585793,,,,,,
1465313340.13,1.466394,0.031293,-2.466353,-0.100536,-0.867156,-0.067683,0.994068,-0.031288,-0.104162,0.334072,-0.004158,0.455465,17.403811,-46.568935,102.476997,,,,,,
1465313340.14,1.459707,0.030466,-2.465508,-0.094856,-0.594255,-0.076840,0.993375,-0.030461,-0.110809,0.310474,-0.013851,0.474701,17.403811,-46.568935,102.476997,,,,,,
1465313340.15,1.455360,0.029564,-2.464754,-0.083923,-0.375515,-0.083524,0.992911,-0.029560,-0.115129,0.300470,-0.009823,0.488481,17.403811,-46.568935,102.476997,,,,,,
1465313340.16,1.452855,0.028651,-2.464120,-0.071994,-0.200326,-0.083546,0.992645,-0.028647,-0.117620,0.274551,-0.011422,0.492330,19.092014,-46.745461,102.095291,,,,,,
1465313340.17,1.452458,0.027685,-2.463474,-0.072798,0.003546,-0.086954,0.992626,-0.027682,-0.118017,0.289845,-0.016462,0.493444,19.092014,-46.745461,102.095291,,,,,,
1465313340.18,1.453436,0.026702,-2.462981,-0.057727,0.124602,-0.094085,0.992767,-0.026699,-0.117049,0.280853,-0.010380,0.500442,19.092014,-46.745461,102.095291,,,,,,
1465313340.19,1.455260,0.025696,-2.462513,-0.060816,0.205306,-0.096723,0.993005,-0.025693,-0.115242,0.278250,-0.014056,0.504692,19.885798,-46.977848,101.836777,,,,,,
1465313340.20,1.457333,0.024670,-2.462056,-0.053364,0.204241,-0.096709,0.993268,-0.024667,-0.113185,0.271625,-0.015280,0.495342,19.885798,-46.977848,101.836777,,,,,,
1465313340.21,1.459028,0.023611,-2.461708,-0.044903,0.152220,-0.100632,0.993483,-0.023609,-0.111505,0.266664,-0.005597,0.509790,19.885798,-46.977848,101.836777,,,,,,
1465313340.22,1.460443,0.022510,-2.461395,-0.041722,0.133121,-0.105832,0.993665,-0.022508,-0.110102,0.249438,0.000261,0.531153,19.576370,-47.057529,101.859932,,,,,,
1465313340.23,1.461377,0.021431,-2.461195,-0.032190,0.087467,-0.108729,0.993791,-0.021430,-0.109176,0.214232,-0.008523,0.540817,19.576370,-47.057529,101.859932,,,,,,
1465313340.24,1.461420,0.020327,-2.461050,-0.024883,-0.027214,-0.106938,0.993819,-0.020325,-0.109136,0.214357,-0.003066,0.546743,19.576370,-47.057529,101.859932,,,,,,
1465313340.25,1.460046,0.019222,-2.460926,-0.024002,-0.173744,-0.106018,0.993690,-0.019221,-0.110503,0.179009,-0.014882,0.543166,19.355766,-47.126678,101.870125,,,,,,
1465313340.27,1.454592,0.016949,-2.460725,-0.014614,-0.342551,-0.113466,0.993113,-0.016948,-0.115926,0.126592,-0.001911,0.600195,19.355766,-47.126678,101.870125,,,,,,
1465313340.26,1.457737,0.018103,-2.460766,-0.026224,-0.254428,-0.109772,0.993453,-0.018103,-0.112800,0.159211,-0.012217,0.574882,19.355766,-47.126678,101.870125,,,,,,
1465313340.28,1.450550,0.015754,-2.460703,-0.018951,-0.416855,-0.120455,0.992656,-0.015753,-0.119942,0.063954,-0.004892,0.615273,19.832832,-47.137848,101.773155,,,,,,
1465313340.29,1.445754,0.014551,-2.460757,-0.005200,-0.492244,-0.122098,0.992087,-0.014550,-0.124703,0.007485,-0.003928,0.628243,19.832832,-47.137848,101.773155,,,,,,
1465313340.30,1.440632,0.013370,-2.460930,0.005405,-0.520927,-0.118714,0.991452,-0.013370,-0.129786,-0.042050,0.003665,0.640498,19.832832,-47.137848,101.773155,,,,,,
1465313340.31,1.435174,0.012239,-2.461136,0.008540,-0.561289,-0.114200,0.990743,-0.012239,-0.135197,-0.091955,0.007203,0.643711,19.832832,-47.137848,101.773155,,,,,,
1465313340.32,1.429309,0.011193,-2.461470,0.021262,-0.593170,-0.106536,0.989945,-0.011193,-0.141007,-0.143998,0.011956,0.645676,21.793144,-47.081425,101.397690,,,,,,
1465313340.33,1.423561,0.010210,-2.461898,0.028743,-0.564516,-0.102450,0.989129,-0.010209,-0.146696,-0.180734,0.014985,0.669996,21.793144,-47.081425,101.397690,,,,,,
1465313340.34,1.418430,0.009281,-2.462453,0.042678,-0.484897,-0.099743,0.988372,-0.009281,-0.151771,-0.240936,0.015400,0.682075,23.045448,-47.007191,101.154945,,,,,,
1465313340.36,1.411905,0.007471,-2.463676,0.059991,-0.253450,-0.094790,0.987376,-0.007471,-0.158219,-0.347147,0.016718,0.655824,23.045448,-47.007191,101.154945,,,,,,
1465313340.35,1.414610,0.008357,-2.463009,0.041784,-0.346865,-0.099545,0.987793,-0.008357,-0.155547,-0.300125,0.009867,0.675246,23.045448,-47.007191,101.154945,,,,,,
1465313340.37,1.410469,0.006648,-2.464466,0.064423,-0.109059,-0.091434,0.987153,-0.006648,-0.159638,-0.395601,0.016474,0.651169,24.993084,-46.746822,100.812561,,,,,,
1465313340.38,1.410467,0.005875,-2.465294,0.070981,0.033208,-0.088061,0.987158,-0.005875,-0.159641,-0.441290,0.005463,0.625675,24.993084,-46.746822,100.812561,,,,,,
1465313340.39,1.411696,0.005140,-2.466300,0.091361,0.154240,-0.087736,0.987357,-0.005140,-0.158428,-0.473136,0.016950,0.609401,24.993084,-46.746822,100.812561,,,,,,
1465313340.40,1.414380,0.004448,-2.467310,0.087287,0.312433,-0.082345,0.987782,-0.004448,-0.155778,-0.530797,0.012398,0.572632,24.993084,-46.746822,100.812561,,,,,,
1465313340.41,1.418826,0.003768,-2.468317,0.091765,0.486567,-0.083433,0.988468,-0.003768,-0.151385,-0.585437,0.001296,0.515643,24.911005,-46.343830,101.018730,,,,,,
1465313340.42,1.424488,0.003137,-2.469621,0.128079,0.587402,-0.077642,0.989311,-0.003137,-0.145786,-0.615303,0.024591,0.449131,24.911005,-46.343830,101.018730,,,,,,
1465313340.43,1.431578,0.002583,-2.470867,0.109102,0.748785,-0.071222,0.990321,-0.002583,-0.138769,-0.644939,0.002949,0.416387,23.965050,-46.092449,101.362000,,,,,,
1465313340.44,1.440355,0.002052,-2.472155,0.125289,0.925031,-0.070183,0.991502,-0.002052,-0.130072,-0.668245,0.008781,0.389517,23.965050,-46.092449,101.362000,,,,,,
1465313340.45,1.450656,0.001582,-2.473661,0.145669,1.059843,-0.061428,0.992791,-0.001582,-0.119852,-0.686348,0.018061,0.321054,23.965050,-46.092449,101.362000,,,,,,
1465313340.46,1.462554,0.001156,-2.475039,0.129889,1.225469,-0.053967,0.994147,-0.001156,-0.108031,-0.704398,0.008465,0.268706,23.965050,-46.092449,101.362000,,,,,,
1465313340.47,1.475768,0.000809,-2.476435,0.137480,1.348611,-0.046216,0.995488,-0.000809,-0.094886,-0.710911,0.001770,0.194556,20.208427,-45.511772,102.437256,,,,,,
1465313340.48,1.489980,0.000537,-2.477936,0.149295,1.443085,-0.039345,0.996736,-0.000537,-0.080729,-0.714784,0.002917,0.119257,20.208427,-45.511772,102.437256,,,,,,
1465313340.49,1.505024,0.000329,-2.479444,0.148312,1.524815,-0.029214,0.997838,-0.000329,-0.065725,-0.712941,-0.006842,0.085790,17.430607,-45.204586,103.081581,,,,,,
1465313340.50,1.521556,0.000144,-2.480899,0.146382,1.692566,-0.024946,0.998788,-0.000144,-0.049221,-0.711038,0.005531,0.068920,17.430607,-45.204586,103.081581,,,,,,
1465313340.51,1.539854,0.000007,-2.482452,0.156177,1.871988,-0.019675,0.999521,-0.000007,-0.030937,-0.718729,0.003730,0.016884,17.430607,-45.204586,103.081581,,,,,,
1465313340.52,1.559449,-0.000088,-2.483969,0.149903,1.978145,-0.010767,0.999936,0.000088,-0.011347,-0.687558,0.001834,-0.089071,14.191888,-44.892185,103.712944,,,,,,
1465313340.53,1.579138,-0.000124,-2.485511,0.158370,1.951573,-0.002076,0.999965,0.000124,0.008342,-0.646877,-0.006762,-0.196071,14.191888,-44.892185,103.712944,,,,,,
1465313340.54,1.598519,-0.000121,-2.487207,0.167945,1.953677,0.003242,0.999616,0.000121,0.027719,-0.636029,-0.004440,-0.202951,14.191888,-44.892185,103.712944,,,,,,
1465313340.55,1.619802,-0.000106,-2.488619,0.136286,2.192575,0.010228,0.998800,0.000106,0.048986,-0.631017,-0.011290,-0.187657,6.179660,-44.231110,104.778397,,,,,,
1465313340.56,1.643356,-0.000094,-2.490105,0.155678,2.380493,0.013327,0.997369,0.000094,0.072496,-0.590340,0.000105,-0.274416,6.179660,-44.231110,104.778397,,,,,,
1465313340.57,1.666337,-0.000000,-2.491664,0.150173,2.254109,0.025823,0.995439,0.000000,0.095396,-0.527590,-0.007782,-0.399580,6.179660,-44.231110,104.778397,,,,,,
1465313340.58,1.688473,0.000228,-2.493032,0.132016,2.216865,0.037748,0.993084,-0.000228,0.117406,-0.498974,-0.010133,-0.427006,1.466560,-43.928139,105.077400,,,,,,
