timestamp,attitude_roll,attitude_pitch,attitude_yaw,rotation_rate_x,rotation_rate_y,rotation_rate_z,gravity_x,gravity_y,gravity_z,user_acc_x,user_acc_y,user_acc_z,magnetic_field_x,magnetic_field_y,magnetic_field_z,latitude(degree),longitude(degree),altitude(meter),speed(m/s),course(degree),timestamp
1465847134.91,-0.535407,-0.010892,-1.520997,0.004799,-0.059561,0.007774,-0.510161,0.010891,-0.860010,0.003569,0.001468,0.003702,33.917568,373.373810,-25.705727,,,,,,
1465847134.93,-0.535334,-0.010776,-1.521075,-0.002471,0.047752,-0.017389,-0.510098,0.010776,-0.860049,0.006864,-0.001498,0.003100,33.917568,373.373810,-25.705727,,,,,,
1465847134.92,-0.535754,-0.010889,-1.520944,0.008072,-0.011756,-0.002103,-0.510460,0.010889,-0.859833,-0.000237,0.003638,0.009796,33.917568,373.373810,-25.705727,,,,,,
1465847134.94,-0.534676,-0.010693,-1.521187,0.003927,0.063662,-0.012160,-0.509533,0.010693,-0.860384,0.002255,-0.000057,0.002047,33.944611,373.367584,-25.759850,,,,,,
1465847134.95,-0.534052,-0.010648,-1.521267,-0.008851,0.074265,-0.004788,-0.508997,0.010648,-0.860703,-0.003058,-0.002546,0.002793,33.944611,373.367584,-25.759850,,,,,,
1465847134.96,-0.533112,-0.010708,-1.521324,-0.004551,0.110358,-0.002881,-0.508187,0.010708,-0.861180,-0.001426,0.000431,0.006490,33.944611,373.367584,-25.759850,,,,,,
,,,,,,,,,,,,,,,,29.719953,-95.399051,10.281824,-1.000000,-1.000000,1465847178.63
1465847134.97,-0.531723,-0.010735,-1.521380,-0.003445,0.137974,-0.006247,-0.506990,0.010735,-0.861885,0.005083,0.001777,0.004189,33.856205,373.382721,-25.656015,,,,,,
1465847134.98,-0.530243,-0.010777,-1.521487,-0.008757,0.144353,-0.008421,-0.505713,0.010777,-0.862634,0.003638,0.000804,0.004221,33.856205,373.382721,-25.656015,,,,,,
1465847134.99,-0.528725,-0.010816,-1.521619,-0.010867,0.158160,-0.009574,-0.504404,0.010816,-0.863400,-0.000617,0.000064,0.003705,33.856205,373.382721,-25.656015,,,,,,
1465847135.00,-0.526971,-0.010826,-1.521788,-0.008700,0.179410,-0.015027,-0.502888,0.010825,-0.864284,0.002506,-0.000358,0.007244,33.890484,373.389923,-25.505802,,,,,,
1465847135.01,-0.525072,-0.010842,-1.521990,-0.008677,0.191102,-0.019358,-0.501246,0.010842,-0.865237,0.001856,0.001839,0.003939,33.890484,373.389923,-25.505802,,,,,,
1465847135.02,-0.523148,-0.010800,-1.522242,-0.006533,0.192180,-0.025750,-0.499580,0.010799,-0.866200,-0.000252,0.000904,0.005864,33.890484,373.389923,-25.505802,,,,,,
1465847135.03,-0.521864,-0.010544,-1.522554,0.015716,0.069062,-0.047309,-0.498469,0.010544,-0.866843,0.008174,0.001068,-0.001336,33.830688,373.421783,-25.116289,,,,,,
1465847135.04,-0.522034,-0.010339,-1.522841,0.000560,-0.108286,-0.032373,-0.498618,0.010339,-0.866760,0.028464,0.003516,-0.015152,33.830688,373.421783,-25.116289,,,,,,
1465847135.05,-0.523252,-0.010087,-1.523061,0.000472,-0.165645,-0.023499,-0.499674,0.010087,-0.866155,0.017237,-0.009507,-0.015040,33.830688,373.421783,-25.116289,,,,,,
1465847135.06,-0.524818,-0.009936,-1.523232,0.014313,-0.170952,-0.026645,-0.501030,0.009935,-0.865373,0.012825,0.004850,0.003419,33.578960,373.444519,-25.115818,,,,,,
1465847135.07,-0.526293,-0.009785,-1.523354,-0.001628,-0.125324,-0.013109,-0.502307,0.009785,-0.864634,-0.002255,-0.002048,0.000330,33.578960,373.444519,-25.115818,,,,,,
1465847135.08,-0.527206,-0.009770,-1.523455,0.002727,-0.044637,-0.011482,-0.503096,0.009770,-0.864175,-0.009294,0.002467,0.012124,33.578960,373.444519,-25.115818,,,,,,
1465847135.09,-0.527415,-0.009732,-1.523530,0.002791,0.009508,-0.009692,-0.503277,0.009732,-0.864070,-0.006458,0.002796,0.011928,33.578960,373.444519,-25.115818,,,,,,
,,,,,,,,,,,,,,,,29.719954,-95.399053,10.281824,-1.000000,-1.000000,1465847190.93
1465847135.10,-0.527343,-0.009689,-1.523601,0.000657,0.007382,-0.008617,-0.503216,0.009688,-0.864107,0.000240,0.000352,0.004442,32.231056,373.390381,-25.238777,,,,,,
1465847135.11,-0.527355,-0.009604,-1.523654,0.002753,-0.015984,-0.006339,-0.503226,0.009603,-0.864101,0.005011,-0.001593,-0.000690,32.231056,373.390381,-25.238777,,,,,,
1465847135.12,-0.527505,-0.009520,-1.523713,-0.001527,-0.032970,-0.006237,-0.503357,0.009520,-0.864026,0.007995,-0.003035,-0.003817,32.231056,373.390381,-25.238777,,,,,,
1465847135.13,-0.527820,-0.009496,-1.523762,0.001663,-0.034036,-0.005163,-0.503629,0.009496,-0.863868,0.003934,0.000300,0.001869,32.093117,373.399445,-25.280415,,,,,,
1465847135.14,-0.528059,-0.009454,-1.523795,0.001674,-0.025541,-0.005216,-0.503835,0.009454,-0.863748,0.005269,0.000174,0.003488,32.093117,373.399445,-25.280415,,,,,,
1465847135.15,-0.528197,-0.009456,-1.523842,-0.000455,-0.023419,-0.004167,-0.503954,0.009456,-0.863678,0.007403,0.001348,0.001221,32.040314,373.402374,-25.304028,,,,,,
1465847135.16,-0.528463,-0.009425,-1.523880,0.001653,-0.042529,-0.005109,-0.504184,0.009425,-0.863545,0.007709,0.000295,0.000233,32.040314,373.402374,-25.304028,,,,,,
1465847135.17,-0.528844,-0.009392,-1.523902,0.000557,-0.063769,-0.002848,-0.504513,0.009392,-0.863353,0.011944,-0.000359,-0.003407,32.040314,373.402374,-25.304028,,,,,,
,,,,,,,,,,,,,,,,29.719954,-95.399056,10.281824,-1.000000,-1.000000,1465847190.93
1465847135.18,-0.529448,-0.009377,-1.523912,0.001570,-0.105178,-0.002588,-0.505035,0.009377,-0.863048,0.019424,0.000251,-0.005238,31.997429,373.405609,-25.310484,,,,,,
1465847135.19,-0.530471,-0.009341,-1.523907,0.002556,-0.166763,-0.001136,-0.505917,0.009341,-0.862531,0.028104,-0.000018,-0.011126,31.997429,373.405609,-25.310484,,,,,,
1465847135.20,-0.532187,-0.009337,-1.523886,0.004582,-0.248520,-0.000621,-0.507397,0.009337,-0.861662,0.032452,0.001573,-0.011477,31.997429,373.405609,-25.310484,,,,,,
1465847135.21,-0.534695,-0.009318,-1.523867,0.002342,-0.335586,0.000987,-0.509556,0.009318,-0.860387,0.037129,0.000386,-0.015681,31.884359,373.405365,-25.456587,,,,,,
1465847135.22,-0.538064,-0.009275,-1.523829,0.004361,-0.423713,0.001542,-0.512452,0.009275,-0.858666,0.038835,-0.001035,-0.016533,31.884359,373.405365,-25.456587,,,,,,
1465847135.23,-0.542360,-0.009237,-1.523772,0.004258,-0.502289,0.004164,-0.516137,0.009237,-0.856456,0.035073,-0.001195,-0.013493,31.884359,373.405365,-25.456587,,,,,,
1465847135.24,-0.547373,-0.009194,-1.523711,0.006317,-0.560684,0.003467,-0.520424,0.009194,-0.853859,0.032356,-0.000984,-0.011162,31.740438,373.402679,-25.674400,,,,,,
1465847135.25,-0.553062,-0.009197,-1.523646,0.006247,-0.615896,0.003814,-0.525273,0.009197,-0.850884,0.030278,0.002201,-0.006614,31.740438,373.402679,-25.674400,,,,,,
1465847135.26,-0.559193,-0.009191,-1.523557,0.007271,-0.645631,0.006130,-0.530479,0.009191,-0.847648,0.024925,0.001414,-0.005379,31.740438,373.402679,-25.674400,,,,,,
1465847135.27,-0.565753,-0.009183,-1.523470,0.006154,-0.687040,0.006389,-0.536029,0.009183,-0.844150,0.026889,0.001529,-0.004941,31.260324,373.391205,-26.419729,,,,,,
,,,,,,,,,,,,,,,,29.719941,-95.399132,10.128992,-1.000000,-1.000000,1465847191.15
1465847135.28,-0.572732,-0.009156,-1.523378,0.007177,-0.722076,0.005545,-0.541908,0.009156,-0.840388,0.019950,-0.000580,-0.006337,31.260324,373.391205,-26.419729,,,,,,
1465847135.29,-0.580003,-0.009116,-1.523283,0.006087,-0.739070,0.007779,-0.548004,0.009116,-0.836426,0.018615,-0.003180,-0.004150,31.260324,373.391205,-26.419729,,,,,,
1465847135.30,-0.587482,-0.009112,-1.523190,0.006052,-0.766676,0.007952,-0.554244,0.009112,-0.832305,0.024184,0.000105,-0.005418,31.260324,373.391205,-26.419729,,,,,,
1465847135.31,-0.595477,-0.009112,-1.523092,0.005977,-0.828257,0.007274,-0.560880,0.009111,-0.827847,0.033476,0.001371,-0.007343,30.597956,373.375854,-27.394049,,,,,,
1465847135.32,-0.604292,-0.009109,-1.522962,0.006928,-0.915330,0.009950,-0.568156,0.009109,-0.822870,0.041591,0.003541,-0.014898,30.597956,373.375854,-27.394049,,,,,,
1465847135.33,-0.614205,-0.009095,-1.522825,0.011059,-1.016207,0.011651,-0.576285,0.009095,-0.817198,0.044715,0.001647,-0.014254,30.202692,373.366547,-27.954012,,,,,,
1465847135.34,-0.625085,-0.009091,-1.522660,0.009875,-1.109648,0.013301,-0.585142,0.009091,-0.810880,0.052259,0.001346,-0.015948,30.202692,373.366547,-27.954012,,,,,,
1465847135.35,-0.637005,-0.009101,-1.522463,0.011854,-1.224332,0.017215,-0.594766,0.009100,-0.803848,0.062448,-0.001059,-0.022294,30.202692,373.366547,-27.954012,,,,,,
1465847135.36,-0.650449,-0.009095,-1.522247,0.013771,-1.395280,0.017225,-0.605519,0.009095,-0.795779,0.084462,-0.000856,-0.031064,29.702271,373.354095,-28.647322,,,,,,
1465847135.37,-0.666012,-0.009107,-1.522019,0.013500,-1.611888,0.018583,-0.617829,0.009107,-0.786260,0.095841,0.001452,-0.036220,29.702271,373.354095,-28.647322,,,,,,
1465847135.38,-0.683656,-0.009151,-1.521777,0.012178,-1.811515,0.023027,-0.631605,0.009151,-0.775236,0.091474,-0.000209,-0.034166,29.702271,373.354095,-28.647322,,,,,,
1465847135.39,-0.702876,-0.009205,-1.521465,0.016249,-1.954872,0.028188,-0.646387,0.009205,-0.762954,0.086832,0.000271,-0.026597,28.244011,373.318268,-30.527924,,,,,,
1465847135.40,-0.723419,-0.009269,-1.521153,0.016079,-2.091842,0.027982,-0.661922,0.009269,-0.749515,0.094387,0.000908,-0.027081,28.244011,373.318268,-30.527924,,,,,,
1465847135.41,-0.745533,-0.009322,-1.520849,0.016951,-2.251104,0.025789,-0.678334,0.009322,-0.734694,0.096028,0.000215,-0.028184,28.244011,373.318268,-30.527924,,,,,,
1465847135.42,-0.769070,-0.009399,-1.520492,0.019966,-2.383848,0.033011,-0.695437,0.009399,-0.718526,0.067721,-0.000900,0.004567,27.211815,373.293213,-31.747831,,,,,,
1465847135.43,-0.793636,-0.009502,-1.520099,0.020903,-2.482602,0.035760,-0.712875,0.009502,-0.701226,0.090332,0.002217,-0.005820,27.211815,373.293213,-31.747831,,,,,,
1465847135.44,-0.819552,-0.009587,-1.519699,0.022849,-2.633370,0.033514,-0.730806,0.009587,-0.682518,0.084413,-0.000920,-0.005059,27.211815,373.293213,-31.747831,,,,,,
1465847135.45,-0.847257,-0.009723,-1.519298,0.020481,-2.817073,0.038922,-0.749432,0.009723,-0.662010,0.083752,-0.001315,0.002297,24.495228,373.234436,-34.528969,,,,,,
1465847135.46,-0.876698,-0.009890,-1.518825,0.026648,-2.986976,0.044251,-0.768593,0.009889,-0.639662,0.099709,-0.002306,-0.002855,24.495228,373.234436,-34.528969,,,,,,
1465847135.47,-0.907758,-0.010091,-1.518383,0.021128,-3.145179,0.044174,-0.788086,0.010091,-0.615483,0.106186,0.003947,0.005207,24.495228,373.234436,-34.528969,,,,,,
1465847135.48,-0.940592,-0.010324,-1.517892,0.024082,-3.329946,0.049593,-0.807864,0.010324,-0.589278,0.130725,0.004065,-0.000672,22.778406,373.199280,-36.050491,,,,,,
1465847135.49,-0.975603,-0.010585,-1.517390,0.026984,-3.566724,0.048952,-0.827994,0.010585,-0.560638,0.150564,0.003438,-0.001267,22.778406,373.199280,-36.050491,,,,,,
1465847135.50,-1.013661,-0.010800,-1.516894,0.028731,-3.882062,0.044545,-0.848724,0.010800,-0.528726,0.111923,0.004169,0.020852,22.778406,373.199280,-36.050491,,,,,,
1465847135.52,-1.095873,-0.011466,-1.515766,0.038938,-4.211265,0.060457,-0.889269,0.011465,-0.457240,0.153719,0.004999,0.021312,18.311575,373.121826,-39.255245,,,,,,
1465847135.51,-1.054067,-0.011126,-1.516393,0.028458,-4.080651,0.057499,-0.869386,0.011125,-0.494009,0.117600,0.001875,0.034399,18.311575,373.121826,-39.255245,,,,,,
1465847135.53,-1.139384,-0.011863,-1.515194,0.034425,-4.417246,0.059616,-0.908312,0.011863,-0.418125,0.167834,0.005456,0.018299,18.311575,373.121826,-39.255245,,,,,,
1465847135.54,-1.186101,-0.012257,-1.514589,0.041455,-4.749602,0.064901,-0.926843,0.012257,-0.375248,0.159998,-0.007679,0.039174,15.438698,373.076538,-40.887169,,,,,,
1465847135.55,-1.235808,-0.012797,-1.513974,0.037882,-5.044794,0.071006,-0.944337,0.012796,-0.328731,0.179475,0.011465,0.029491,15.438698,373.076538,-40.887169,,,,,,
1465847135.56,-1.288265,-0.013302,-1.513373,0.041829,-5.301737,0.067299,-0.960268,0.013302,-0.278762,0.134157,-0.003658,0.072601,15.438698,373.076538,-40.887169,,,,,,
1465847135.57,-1.342358,-0.013949,-1.512779,0.045888,-5.442992,0.079898,-0.973927,0.013949,-0.226434,0.169956,0.005232,0.066644,8.241334,372.980042,-43.751217,,,,,,
1465847135.58,-1.398101,-0.014666,-1.512124,0.044603,-5.611830,0.085214,-0.985019,0.014665,-0.171819,0.215992,0.006560,0.072775,8.241334,372.980042,-43.751217,,,,,,
1465847135.59,-1.456474,-0.015444,-1.511557,0.051642,-5.948412,0.083074,-0.993354,0.015444,-0.114060,0.239158,0.003950,0.043687,8.241334,372.980042,-43.751217,,,,,,
1465847135.61,-1.586781,-0.017284,-1.510543,0.051592,-6.830783,0.092865,-0.999723,0.017283,0.015982,0.272611,0.008016,0.081522,3.976307,372.929871,-44.762718,,,,,,
1465847135.60,-1.519641,-0.016315,-1.510978,0.041441,-6.423066,0.097749,-0.998559,0.016315,-0.051127,0.251367,0.002744,0.082560,3.976307,372.929871,-44.762718,,,,,,
1465847135.62,-1.658205,-0.018434,-1.509952,0.060620,-7.242820,0.114619,-0.996013,0.018433,0.087282,0.345134,0.013290,0.105192,3.976307,372.929871,-44.762718,,,,,,
1465847135.63,-1.734346,-0.019746,-1.509537,0.062074,-7.781184,0.122248,-0.986463,0.019744,0.162790,0.431669,0.007065,0.075385,-6.342281,372.843323,-45.208675,,,,,,
1465847135.64,-1.817950,-0.021232,-1.509194,0.061054,-8.560606,0.148425,-0.969394,0.021231,0.244590,0.546161,0.006571,0.119546,-6.342281,372.843323,-45.208675,,,,,,
1465847135.65,-1.910856,-0.022931,-1.509101,0.059777,-9.567215,0.162188,-0.942487,0.022929,0.333456,0.696927,0.013906,0.125208,-6.342281,372.843323,-45.208675,,,,,,
1465847135.66,-2.016287,-0.024680,-1.509133,0.061343,-10.875340,0.164007,-0.902125,0.024677,0.430769,0.768503,0.018414,0.235124,-12.510786,372.813904,-44.153095,,,,,,
1465847135.68,-2.268502,-0.028515,-1.509938,0.079185,-13.614823,0.189721,-0.766007,0.028511,0.642200,0.809799,0.020454,0.502468,-19.815441,372.813446,-41.396633,,,,,,
1465847135.67,-2.135510,-0.026521,-1.509460,0.064894,-12.273762,0.182361,-0.844445,0.026518,0.534986,0.795235,0.018572,0.375582,-19.815441,372.813446,-41.396633,,,,,,
1465847135.69,-2.412918,-0.030349,-1.510813,0.064002,-14.686172,0.195360,-0.665575,0.030344,0.745714,0.766252,0.010840,0.718336,-19.815441,372.813446,-41.396633,,,,,,
1465847135.70,-2.566531,-0.032302,-1.511949,0.096952,-15.556909,0.215757,-0.543603,0.032296,0.838721,0.740197,0.018897,0.826547,-28.229912,372.847656,-35.831654,,,,,,
1465847135.71,-2.727171,-0.034129,-1.513421,0.083370,-16.202471,0.217663,-0.402426,0.034122,0.914816,0.707495,0.019268,0.994516,-28.229912,372.847656,-35.831654,,,,,,
1465847135.72,-2.894235,-0.035510,-1.514958,0.078359,-16.892485,0.165570,-0.244688,0.035502,0.968952,0.565520,0.057637,1.044079,-28.229912,372.847656,-35.831654,,,,,,
1465847135.73,-3.065878,-0.035799,-1.515569,0.005927,-17.065266,0.072909,-0.075594,0.035792,0.996496,-0.284651,-0.055750,1.487650,-28.229912,372.847656,-35.831654,,,,,,
1465847135.74,3.057724,-0.037966,-1.517992,0.299222,-15.514651,0.257207,0.083710,0.037957,0.995767,-0.077835,0.100883,1.002249,-41.412083,373.052887,-14.586638,,,,,,
1465847135.75,2.918699,-0.039167,-1.520137,0.051869,-13.334473,0.180484,0.220883,0.039157,0.974514,-0.152845,-0.069049,1.116352,-41.412083,373.052887,-14.586638,,,,,,
1465847135.76,2.796381,-0.038934,-1.521698,0.068559,-11.944527,0.151559,0.338139,0.038924,0.940291,-0.166539,0.089448,0.799059,-41.412083,373.052887,-14.586638,,,,,,
1465847135.77,2.682788,-0.040063,-1.524270,0.213102,-11.238610,0.187725,0.442522,0.040052,0.895863,0.023131,-0.016264,0.716594,-41.412083,373.052887,-14.586638,,,,,,
1465847135.78,2.570307,-0.039877,-1.525601,-0.000786,-11.242575,0.123670,0.540284,0.039866,0.840538,-0.121247,0.004491,0.644493,-40.568039,373.323029,8.965141,,,,,,
1465847135.80,2.358641,-0.039638,-1.529093,0.128725,-9.807160,0.143537,0.704821,0.039628,0.708278,-0.272097,-0.016511,0.629354,-40.568039,373.323029,8.965141,,,,,,
1465847135.79,2.460025,-0.039519,-1.527060,0.102885,-10.909255,0.134456,0.629519,0.039509,0.775980,-0.216082,0.038952,0.620230,-40.568039,373.323029,8.965141,,,,,,
1465847135.81,2.270640,-0.039131,-1.530177,0.030377,-8.465979,0.107351,0.764358,0.039121,0.643605,-0.386107,0.035662,0.475887,-31.179136,373.613464,23.174093,,,,,,
1465847135.82,2.197024,-0.038602,-1.531267,0.066305,-6.992202,0.093886,0.809641,0.038592,0.585656,-0.412302,-0.004153,0.518272,-31.179136,373.613464,23.174093,,,,,,
1465847135.83,2.136509,-0.038472,-1.532349,0.076430,-5.724391,0.077430,0.843582,0.038463,0.535621,-0.504852,0.001134,0.378671,-31.179136,373.613464,23.174093,,,,,,
1465847135.84,2.089398,-0.038011,-1.533001,0.027012,-4.379058,0.067879,0.867886,0.038002,0.495308,-0.535260,0.007195,0.335854,-26.256674,373.701660,27.456398,,,,,,
1465847135.86,2.038189,-0.037619,-1.533863,0.015827,-1.471734,0.012378,0.892114,0.037610,0.450241,-0.573404,0.010913,0.253067,-26.256674,373.701660,27.456398,,,,,,
1465847135.85,2.056547,-0.037647,-1.533574,0.035260,-2.908445,0.051212,0.883698,0.037638,0.466542,-0.518006,-0.009775,0.307354,-26.256674,373.701660,27.456398,,,,,,
1465847135.87,2.034932,-0.037553,-1.533893,-0.000360,0.053026,0.001735,0.893578,0.037544,0.447335,-0.586129,-0.006477,0.263664,-20.821747,373.802979,30.561419,,,,,,
1465847135.88,2.047057,-0.037628,-1.533825,-0.005862,1.605391,-0.010136,0.888086,0.037619,0.458135,-0.562983,0.010141,0.247950,-20.821747,373.802979,30.561419,,,,,,
1465847135.89,2.074450,-0.037761,-1.533583,-0.019938,3.102564,-0.028055,0.875201,0.037752,0.482285,-0.486392,0.007887,0.233002,-21.101265,373.801544,30.386608,,,,,,
1465847135.90,2.115042,-0.037994,-1.533115,-0.032181,4.353415,-0.050814,0.854901,0.037985,0.517399,-0.413830,0.001123,0.213207,-21.101265,373.801544,30.386608,,,,,,
1465847135.91,2.166767,-0.038341,-1.532313,-0.053150,5.436508,-0.073595,0.826996,0.038332,0.560900,-0.416351,0.004591,0.265715,-21.101265,373.801544,30.386608,,,,,,
1465847135.92,2.229469,-0.038583,-1.531494,-0.051778,6.546065,-0.070972,0.790217,0.038573,0.611612,-0.333445,-0.006774,0.300482,-21.101265,373.801544,30.386608,,,,,,
1465847135.93,2.303116,-0.038942,-1.530512,-0.053581,7.631270,-0.092682,0.743062,0.038932,0.668089,-0.258733,0.006798,0.319276,-27.076191,373.710266,26.527311,,,,,,
1465847135.94,2.386868,-0.039260,-1.529270,-0.069378,8.595436,-0.113647,0.684560,0.039250,0.727899,-0.190419,0.002528,0.374716,-27.076191,373.710266,26.527311,,,,,,
1465847135.95,2.478769,-0.039472,-1.527968,-0.070548,9.370536,-0.112123,0.614866,0.039462,0.787644,-0.092664,0.008268,0.386596,-27.076191,373.710266,26.527311,,,,,,
1465847135.96,2.576803,-0.039586,-1.526552,-0.073033,9.920577,-0.125155,0.534819,0.039576,0.844039,0.006456,0.015783,0.398819,-31.676104,373.622345,22.342352,,,,,,
1465847135.97,2.678932,-0.039548,-1.525096,-0.072588,10.274160,-0.128436,0.445981,0.039537,0.894169,0.097644,0.010420,0.419644,-31.676104,373.622345,22.342352,,,,,,
1465847135.98,2.783352,-0.039387,-1.523735,-0.067042,10.480098,-0.111627,0.350356,0.039377,0.935789,0.203142,0.004416,0.424944,-31.676104,373.622345,22.342352,,,,,,
1465847135.99,2.888004,-0.039107,-1.522248,-0.074501,10.429214,-0.140055,0.250688,0.039097,0.967278,0.286819,0.008495,0.386558,-39.796215,373.403656,9.064997,,,,,,
1465847136.01,3.089983,-0.038287,-1.519720,-0.046580,9.805860,-0.113765,0.051549,0.038278,0.997937,0.445384,0.007864,0.325199,-39.796215,373.403656,9.064997,,,,,,
1465847136.00,2.990740,-0.038669,-1.520884,-0.065254,10.197675,-0.116241,0.150169,0.038659,0.987904,0.341774,0.003470,0.372859,-39.796215,373.403656,9.064997,,,,,,
1465847136.02,-3.100116,-0.037778,-1.518484,-0.055937,9.111489,-0.125386,-0.041435,0.037769,0.998427,0.489479,0.013927,0.226076,-41.820980,373.290741,1.105967,,,,,,
1465847136.03,-3.014884,-0.037166,-1.517511,-0.045283,8.309750,-0.093736,-0.126283,0.037157,0.991298,0.524156,-0.000887,0.201802,-41.820980,373.290741,1.105967,,,,,,
1465847136.04,-2.938758,-0.036737,-1.516644,-0.028348,7.373242,-0.092103,-0.201311,0.036729,0.978839,0.549471,0.011215,0.097288,-42.169918,373.194611,-6.609478,,,,,,
1465847136.05,-2.872444,-0.036141,-1.515899,-0.042389,6.365598,-0.085798,-0.265737,0.036133,0.963368,0.580984,0.006195,0.041164,-42.169918,373.194611,-6.609478,,,,,,
1465847136.06,-2.817232,-0.035696,-1.515237,-0.016146,5.230494,-0.070137,-0.318500,0.035689,0.947251,0.567752,0.007692,-0.040482,-42.169918,373.194611,-6.609478,,,,,,
1465847136.07,-2.773624,-0.035313,-1.514761,-0.021887,4.067791,-0.051142,-0.359496,0.035306,0.932478,0.559692,0.009158,-0.087798,-42.169918,373.194611,-6.609478,,,,,,
1465847136.08,-2.741816,-0.034967,-1.514432,-0.016994,2.881742,-0.039441,-0.388975,0.034960,0.920585,0.563505,-0.002916,-0.140784,-40.046505,373.064301,-17.762360,,,,,,
1465847136.09,-2.722075,-0.034785,-1.514189,-0.005746,1.671267,-0.026515,-0.407074,0.034778,0.912733,0.561966,0.002331,-0.176939,-40.046505,373.064301,-17.762360,,,,,,
1465847136.10,-2.714620,-0.034690,-1.514029,0.000147,0.434252,-0.014494,-0.413868,0.034683,0.909676,0.526921,-0.002227,-0.193184,-40.046505,373.064301,-17.762360,,,,,,
1465847136.11,-2.719117,-0.034704,-1.514006,0.002922,-0.733759,0.002414,-0.409773,0.034697,0.911527,0.486281,0.000078,-0.195432,-38.582817,373.015259,-21.614143,,,,,,
1465847136.13,-2.759210,-0.035092,-1.514322,0.016360,-2.729997,0.029850,-0.372902,0.035085,0.927207,0.437691,0.008754,-0.162116,-38.582817,373.015259,-21.614143,,,,,,
1465847136.12,-2.734287,-0.034837,-1.514115,0.011186,-1.769051,0.019560,-0.395896,0.034830,0.917634,0.458290,0.007987,-0.177522,-38.582817,373.015259,-21.614143,,,,,,
1465847136.14,-2.793530,-0.035384,-1.514622,0.017310,-3.664396,0.039969,-0.340864,0.035376,0.939447,0.411756,0.006768,-0.126855,-38.949162,373.018524,-20.888897,,,,,,
1465847136.16,-2.888751,-0.036229,-1.515592,0.030036,-5.379255,0.065639,-0.249992,0.036221,0.967570,0.373375,-0.001370,-0.041865,-38.949162,373.018524,-20.888897,,,,,,
1465847136.15,-2.836951,-0.035774,-1.515047,0.024682,-4.562711,0.055190,-0.299759,0.035767,0.953344,0.389359,0.003906,-0.094686,-38.949162,373.018524,-20.888897,,,,,,
1465847136.17,-2.948100,-0.036698,-1.516217,0.034438,-6.103424,0.076571,-0.192158,0.036690,0.980678,0.324925,0.004097,0.009206,-41.035126,373.077576,-15.015127,,,,,,
1465847136.18,-3.013661,-0.037234,-1.516973,0.042212,-6.693797,0.082411,-0.127494,0.037226,0.991140,0.312416,0.003973,0.056543,-41.035126,373.077576,-15.015127,,,,,,
1465847136.19,-3.084495,-0.037683,-1.517703,0.035211,-7.190702,0.080198,-0.057026,0.037675,0.997662,0.239323,0.000442,0.109043,-42.027260,373.132721,-10.094292,,,,,,
1465847136.20,3.124217,-0.038077,-1.518626,0.041175,-7.507160,0.096026,0.017362,0.038068,0.999124,0.179339,0.011356,0.156714,-42.027260,373.132721,-10.094292,,,,,,
1465847136.21,3.047927,-0.038552,-1.519671,0.058004,-7.665389,0.101293,0.093459,0.038543,0.994877,0.159287,-0.000167,0.207073,-42.027260,373.132721,-10.094292,,,,,,
1465847136.22,2.970022,-0.038866,-1.520613,0.037609,-7.817182,0.089452,0.170602,0.038856,0.984574,0.100471,0.014138,0.227813,-42.434830,373.199127,-4.230199,,,,,,
1465847136.23,2.891614,-0.039108,-1.521632,0.051427,-7.825701,0.095905,0.247194,0.039098,0.968177,0.022261,0.004145,0.273477,-42.434830,373.199127,-4.230199,,,,,,
1465847136.24,2.814919,-0.039377,-1.522691,0.053859,-7.584672,0.094396,0.320645,0.039367,0.946381,-0.038159,0.008287,0.293396,-42.434830,373.199127,-4.230199,,,,,,
1465847136.25,2.741936,-0.039527,-1.523761,0.052219,-7.185448,0.097213,0.388799,0.039516,0.920475,-0.088963,0.005405,0.289791,-42.434830,373.199127,-4.230199,,,,,,
1465847136.26,2.673419,-0.039574,-1.524790,0.044285,-6.742634,0.080590,0.450904,0.039563,0.891695,-0.094443,-0.001996,0.282758,-40.429935,373.361328,7.934657,,,,,,
1465847136.28,2.552051,-0.039572,-1.526474,0.055344,-5.559800,0.076376,0.555545,0.039562,0.830545,-0.248095,0.005559,0.278342,-40.429935,373.361328,7.934657,,,,,,
1465847136.27,2.609513,-0.039560,-1.525537,0.035334,-6.248874,0.071098,0.506929,0.039549,0.861080,-0.215563,0.010133,0.291905,-40.429935,373.361328,7.934657,,,,,,
1465847136.29,2.502731,-0.039515,-1.527235,0.030870,-4.711387,0.063580,0.595816,0.039504,0.802149,-0.281562,0.000275,0.256872,-35.848846,373.511963,17.316889,,,,,,
1465847136.31,2.429820,-0.039315,-1.528344,0.025594,-2.993355,0.041091,0.652673,0.039305,0.756620,-0.328622,-0.001143,0.216708,-35.848846,373.511963,17.316889,,,,,,
1465847136.30,2.461893,-0.039405,-1.527824,0.027684,-3.869352,0.049780,0.628071,0.039395,0.777158,-0.307911,0.011768,0.213290,-35.848846,373.511963,17.316889,,,,,,
1465847136.32,2.406415,-0.039256,-1.528658,0.011823,-2.105651,0.024865,0.670202,0.039246,0.741140,-0.372381,0.003463,0.180200,-33.714157,373.565704,20.204189,,,,,,
1465847136.33,2.392913,-0.039157,-1.528869,0.008828,-1.092698,0.021703,0.680150,0.039147,0.732027,-0.387990,-0.000634,0.185591,-33.714157,373.565704,20.204189,,,,,,
1465847136.34,2.389864,-0.039173,-1.529011,0.008040,-0.041481,0.003400,0.682379,0.039163,0.729949,-0.366827,-0.001367,0.156770,-32.274696,373.598816,21.874018,,,,,,
1465847136.35,2.396899,-0.039177,-1.528896,-0.009878,0.940716,-0.010229,0.677227,0.039167,0.734731,-0.359859,0.002718,0.151576,-32.274696,373.598816,21.874018,,,,,,
1465847136.36,2.413156,-0.039229,-1.528681,-0.010856,1.848576,-0.022311,0.665192,0.039218,0.745642,-0.339203,0.001965,0.134790,-32.274696,373.598816,21.874018,,,,,,
1465847136.37,2.438242,-0.039279,-1.528381,-0.018283,2.722438,-0.025670,0.646278,0.039269,0.762091,-0.310890,0.004509,0.141977,-32.407913,373.599884,21.657827,,,,,,
1465847136.38,2.471551,-0.039328,-1.527985,-0.021525,3.520936,-0.038132,0.620538,0.039318,0.783190,-0.246210,0.003376,0.128447,-32.407913,373.599884,21.657827,,,,,,
1465847136.39,2.511789,-0.039406,-1.527379,-0.032386,4.179294,-0.055045,0.588529,0.039396,0.807516,-0.208829,0.000826,0.133448,-32.407913,373.599884,21.657827,,,,,,
1465847136.40,2.557965,-0.039448,-1.526723,-0.033796,4.754789,-0.057591,0.550626,0.039438,0.833820,-0.165754,0.004096,0.139172,-32.407913,373.599884,21.657827,,,,,,
1465847136.41,2.609692,-0.039473,-1.526003,-0.037363,5.304808,-0.062109,0.506777,0.039463,0.861174,-0.127367,-0.000507,0.160097,-35.847870,373.522430,17.091843,,,,,,
1465847136.42,2.666323,-0.039485,-1.525238,-0.036770,5.768830,-0.070341,0.457221,0.039474,0.888476,-0.068412,0.005280,0.152799,-35.847870,373.522430,17.091843,,,,,,
1465847136.43,2.726930,-0.039440,-1.524376,-0.040558,6.144710,-0.072702,0.402568,0.039430,0.914541,-0.032161,0.005263,0.175059,-35.847870,373.522430,17.091843,,,,,,
1465847136.44,2.790155,-0.039381,-1.523624,-0.032845,6.351758,-0.073993,0.343981,0.039371,0.938151,0.080168,0.004391,0.148290,-37.984169,373.463440,13.358265,,,,,,
1465847136.45,2.853662,-0.039199,-1.522605,-0.054133,6.331638,-0.089854,0.283750,0.039188,0.958097,0.109682,0.004681,0.142733,-37.984169,373.463440,13.358265,,,,,,
1465847136.46,2.916445,-0.038972,-1.521773,-0.037219,6.263625,-0.071315,0.223081,0.038962,0.974021,0.125231,0.005670,0.129235,-37.984169,373.463440,13.358265,,,,,,
1465847136.48,3.039265,-0.038517,-1.520197,-0.045011,5.987568,-0.072785,0.102073,0.038507,0.994031,0.231179,0.008383,0.095172,-41.325565,373.325897,4.021383,,,,,,
1465847136.47,2.978747,-0.038821,-1.520992,-0.029832,6.199930,-0.077295,0.162005,0.038811,0.986026,0.194761,0.005485,0.137539,-41.325565,373.325897,4.021383,,,,,,
1465847136.49,3.096403,-0.038226,-1.519494,-0.028470,5.602111,-0.065029,0.045142,0.038217,0.998249,0.277414,0.001380,0.076900,-41.325565,373.325897,4.021383,,,,,,
1465847136.50,-3.134793,-0.037996,-1.518843,-0.024895,5.044683,-0.068981,-0.006795,0.037987,0.999255,0.337178,0.004601,0.032178,-42.074543,373.262970,-0.840137,,,,,,
1465847136.52,-3.050319,-0.037482,-1.517778,-0.018904,3.907431,-0.043747,-0.091082,0.037474,0.995138,0.300784,0.004839,-0.013632,-42.074543,373.262970,-0.840137,,,,,,
1465847136.51,-3.089026,-0.037690,-1.518175,-0.025690,4.417147,-0.060788,-0.052505,0.037681,0.997909,0.305282,0.003610,0.014847,-42.074543,373.262970,-0.840137,,,,,,
1465847136.53,-3.015230,-0.037315,-1.517349,-0.012127,3.359552,-0.045626,-0.125939,0.037306,0.991336,0.331093,0.005830,-0.032962,-42.061344,373.165985,-8.613283,,,,,,
1465847136.54,-2.986386,-0.037064,-1.517051,-0.022548,2.712881,-0.027743,-0.154478,0.037055,0.987301,0.348311,0.002618,-0.065426,-42.061344,373.165985,-8.613283,,,,,,
1465847136.55,-2.965047,-0.036929,-1.516818,-0.003302,1.925019,-0.024911,-0.175510,0.036921,0.983785,0.374439,0.005484,-0.098531,-42.061344,373.165985,-8.613283,,,,,,
1465847136.56,-2.952284,-0.036842,-1.516605,-0.006519,1.057528,-0.019474,-0.188052,0.036834,0.981468,0.377902,0.003235,-0.122810,-41.717476,373.136841,-11.169428,,,,,,
1465847136.57,-2.947896,-0.036769,-1.516526,-0.004365,0.242039,-0.005842,-0.192358,0.036761,0.980636,0.357565,0.001020,-0.127761,-41.717476,373.136841,-11.169428,,,,,,
1465847136.58,-2.950966,-0.036817,-1.516536,0.007493,-0.484252,0.002983,-0.189346,0.036808,0.981220,0.345840,0.001293,-0.127812,-41.717476,373.136841,-11.169428,,,,,,
1465847136.60,-2.978483,-0.037022,-1.516781,0.011013,-1.907096,0.021490,-0.162276,0.037014,0.986051,0.308470,0.005573,-0.118879,-41.502045,373.115814,-12.584862,,,,,,
1465847136.59,-2.961160,-0.036901,-1.516617,0.005526,-1.196733,0.011707,-0.179333,0.036893,0.983096,0.332364,0.001559,-0.129398,-41.502045,373.115814,-12.584862,,,,,,
1465847136.61,-3.002653,-0.037204,-1.517003,0.014428,-2.581340,0.024658,-0.138397,0.037196,0.989678,0.286621,0.001180,-0.102822,-41.502045,373.115814,-12.584862,,,,,,
1465847136.62,-3.032793,-0.037387,-1.517262,0.013721,-3.141977,0.030302,-0.108509,0.037378,0.993392,0.237354,0.004126,-0.075653,-41.729671,373.125458,-11.499389,,,,,,
1465847136.63,-3.067272,-0.037595,-1.517663,0.018527,-3.532761,0.046595,-0.074200,0.037586,0.996535,0.184155,-0.000232,-0.038847,-41.729671,373.125458,-11.499389,,,,,,
1465847136.64,-3.105086,-0.037812,-1.518085,0.017074,-3.860852,0.041196,-0.036472,0.037803,0.998619,0.182316,0.005837,-0.020943,-41.729671,373.125458,-11.499389,,,,,,
1465847136.65,3.137053,-0.038046,-1.518578,0.024104,-4.182608,0.052801,0.004536,0.038036,0.999266,0.145091,0.001972,0.006776,-42.350773,373.177460,-6.417046,,,,,,
1465847136.66,3.093040,-0.038316,-1.519176,0.031187,-4.466134,0.062038,0.048498,0.038306,0.998088,0.131220,0.007714,0.023045,-42.350773,373.177460,-6.417046,,,,,,
1465847136.67,3.046238,-0.038567,-1.519781,0.027659,-4.746425,0.055276,0.095139,0.038557,0.994717,0.124160,0.001192,0.031253,-42.350773,373.177460,-6.417046,,,,,,
1465847136.68,2.996996,-0.038775,-1.520343,0.029508,-4.971525,0.055626,0.143985,0.038766,0.988820,0.076184,0.004386,0.066554,-42.345535,373.221191,-3.005261,,,,,,
1465847136.69,2.946745,-0.039013,-1.521017,0.034763,-5.012961,0.064406,0.193469,0.039003,0.980331,0.016171,0.004225,0.084275,-42.345535,373.221191,-3.005261,,,,,,
1465847136.70,2.897482,-0.039189,-1.521684,0.031729,-4.891902,0.059386,0.241507,0.039179,0.969608,-0.013236,0.001714,0.124081,-42.345535,373.221191,-3.005261,,,,,,
1465847136.71,2.849836,-0.039310,-1.522286,0.025576,-4.709260,0.055041,0.287413,0.039300,0.957000,-0.052442,0.011008,0.113862,-41.293919,373.321014,4.733812,,,,,,
1465847136.72,2.804493,-0.039448,-1.522921,0.035462,-4.463995,0.055642,0.330494,0.039438,0.942984,-0.101749,0.001257,0.147272,-41.293919,373.321014,4.733812,,,,,,
1465847136.73,2.762315,-0.039560,-1.523552,0.030565,-4.122095,0.054557,0.369960,0.039550,0.928206,-0.124125,0.001451,0.136934,-40.272678,373.370300,8.301811,,,,,,
1465847136.74,2.723753,-0.039596,-1.524182,0.026748,-3.764274,0.055503,0.405469,0.039585,0.913252,-0.128644,-0.001835,0.137392,-40.272678,373.370300,8.301811,,,,,,
1465847136.75,2.688485,-0.039628,-1.524610,0.018667,-3.457338,0.028023,0.437418,0.039618,0.898385,-0.114527,-0.002371,0.124122,-40.272678,373.370300,8.301811,,,,,,
1465847136.76,2.656849,-0.039629,-1.524946,0.015974,-3.040077,0.036048,0.465616,0.039619,0.884100,-0.205774,0.004815,0.131815,-40.272678,373.370300,8.301811,,,,,,
1465847136.77,2.631155,-0.039637,-1.525412,0.023160,-2.394522,0.038393,0.488176,0.039627,0.871845,-0.238695,0.003022,0.140530,-37.977432,373.451019,13.721104,,,,,,
1465847136.78,2.612483,-0.039636,-1.525681,0.010221,-1.696873,0.020167,0.504368,0.039625,0.862579,-0.226613,0.003359,0.124970,-37.977432,373.451019,13.721104,,,,,,
1465847136.79,2.601634,-0.039635,-1.525790,0.005674,-1.081012,0.014171,0.513696,0.039625,0.857056,-0.232843,0.004809,0.107146,-37.977432,373.451019,13.721104,,,,,,
1465847136.81,2.594129,-0.039632,-1.525935,-0.002471,0.057260,0.001701,0.520114,0.039622,0.853177,-0.227725,0.000905,0.092731,-37.096512,373.480225,15.250320,,,,,,
1465847136.80,2.595039,-0.039651,-1.525903,0.007445,-0.521436,0.008534,0.519337,0.039641,0.853649,-0.234501,0.000459,0.104740,-37.096512,373.480225,15.250320,,,,,,
1465847136.82,2.599245,-0.039619,-1.525870,-0.003833,0.662500,-0.006354,0.515743,0.039608,0.855827,-0.215252,-0.001446,0.087319,-37.096512,373.480225,15.250320,,,,,,
1465847136.83,2.610347,-0.039624,-1.525754,-0.006279,1.254993,-0.012201,0.506210,0.039614,0.861500,-0.200027,0.002149,0.084118,-36.827805,373.487823,15.708836,,,,,,
1465847136.84,2.626938,-0.039637,-1.525542,-0.010928,1.784850,-0.020851,0.491848,0.039627,0.869779,-0.177181,0.002045,0.079058,-36.827805,373.487823,15.708836,,,,,,
1465847136.85,2.648280,-0.039656,-1.525246,-0.013535,2.244627,-0.029059,0.473174,0.039645,0.880077,-0.150298,0.002087,0.071782,-36.827805,373.487823,15.708836,,,,,,
1465847136.87,2.704056,-0.039655,-1.524460,-0.018861,3.084529,-0.038590,0.423376,0.039645,0.905086,-0.112509,0.003431,0.091832,-37.358307,373.474701,14.737741,,,,,,
1465847136.86,2.674239,-0.039656,-1.524882,-0.017263,2.664048,-0.033822,0.450171,0.039645,0.892062,-0.139563,0.000714,0.091535,-37.358307,373.474701,14.737741,,,,,,
1465847136.88,2.737916,-0.039611,-1.524119,-0.017337,3.473110,-0.027187,0.392494,0.039601,0.918902,-0.020454,0.005825,0.064833,-37.358307,373.474701,14.737741,,,,,,
1465847136.89,2.774069,-0.039592,-1.523606,-0.024538,3.633516,-0.053747,0.359024,0.039581,0.932489,-0.003646,0.000397,0.057105,-39.244656,373.417908,10.729298,,,,,,
1465847136.90,2.810352,-0.039475,-1.522975,-0.033075,3.617594,-0.053656,0.324963,0.039465,0.944903,-0.015698,0.000315,0.063657,-39.244656,373.417908,10.729298,,,,,,
1465847136.91,2.847115,-0.039364,-1.522505,-0.022352,3.703550,-0.038218,0.290016,0.039354,0.956212,0.022744,0.002913,0.067881,-39.244656,373.417908,10.729298,,,,,,
1465847136.92,2.885239,-0.039301,-1.521988,-0.021086,3.845864,-0.050818,0.253359,0.039291,0.966574,0.040250,0.002198,0.064264,-40.305008,373.372345,8.049482,,,,,,
1465847136.93,2.924352,-0.039165,-1.521472,-0.025270,3.913806,-0.045926,0.215371,0.039155,0.975747,0.079155,0.006270,0.040259,-40.305008,373.372345,8.049482,,,,,,
1465847136.94,2.962843,-0.039059,-1.520981,-0.020072,3.809753,-0.047397,0.177664,0.039050,0.983316,0.114038,0.006452,0.028128,-40.305008,373.372345,8.049482,,,,,,
1465847136.95,2.999189,-0.038904,-1.520471,-0.024631,3.568729,-0.046955,0.141815,0.038894,0.989129,0.118591,0.001358,0.013191,-41.764198,373.292725,2.122016,,,,,,
1465847136.96,3.033032,-0.038740,-1.520063,-0.019608,3.342538,-0.037015,0.108266,0.038730,0.993367,0.158549,0.002651,0.002818,-41.764198,373.292725,2.122016,,,,,,
1465847136.97,3.064563,-0.038605,-1.519663,-0.017799,3.082404,-0.038575,0.076896,0.038595,0.996292,0.177178,-0.000036,-0.016403,-41.764198,373.292725,2.122016,,,,,,
1465847136.99,3.116370,-0.038384,-1.519042,-0.010356,2.228705,-0.031085,0.025201,0.038374,0.998946,0.228201,0.001329,-0.063094,-42.137833,373.256165,-0.655058,,,,,,
1465847136.98,3.092766,-0.038475,-1.519349,-0.014013,2.717122,-0.028830,0.048771,0.038465,0.998069,0.217678,0.008837,-0.046989,-42.137833,373.256165,-0.655058,,,,,,
1465847137.00,3.134365,-0.038280,-1.518762,-0.012105,1.682938,-0.027664,0.007223,0.038271,0.999241,0.208628,0.004042,-0.068318,-42.137833,373.256165,-0.655058,,,,,,
1465847137.01,-3.135415,-0.038155,-1.518538,-0.010546,1.234845,-0.020594,-0.006173,0.038145,0.999253,0.201348,0.005342,-0.062257,-42.339516,373.203888,-4.736972,,,,,,
1465847137.02,-3.125662,-0.038119,-1.518418,-0.001407,0.893978,-0.009932,-0.015919,0.038110,0.999147,0.212788,-0.000695,-0.064256,-42.339516,373.203888,-4.736972,,,,,,
1465847137.03,-3.119494,-0.038084,-1.518337,-0.004013,0.512795,-0.008608,-0.022081,0.038075,0.999031,0.218095,0.001995,-0.075920,-42.339516,373.203888,-4.736972,,,,,,
1465847137.04,-3.129740,-0.038268,-1.518746,-0.002491,0.032788,-0.002402,-0.011843,0.038258,0.999198,0.204272,0.000499,-0.079718,-42.347626,373.190155,-5.657576,,,,,,
1465847137.05,-3.133072,-0.038281,-1.518771,0.001156,-0.450343,0.003825,-0.008514,0.038272,0.999231,0.196976,0.002515,-0.077371,-42.347626,373.190155,-5.657576,,,,,,
1465847137.06,-3.140829,-0.038326,-1.518841,0.003813,-0.877192,0.007569,-0.000763,0.038317,0.999265,0.179001,0.002424,-0.068494,-42.247467,373.203247,-5.539379,,,,,,
1465847137.08,3.116286,-0.038430,-1.519112,0.009391,-1.511113,0.019001,0.025286,0.038421,0.998942,0.136564,0.001985,-0.042368,-42.247467,373.203247,-5.539379,,,,,,
1465847137.07,3.130924,-0.038350,-1.518938,0.002309,-1.225466,0.010816,0.010661,0.038340,0.999208,0.152105,0.000905,-0.050599,-42.247467,373.203247,-5.539379,,,,,,
1465847137.09,3.099255,-0.038545,-1.519371,0.013316,-1.767027,0.026997,0.042294,0.038535,0.998362,0.152592,0.003228,-0.044611,-42.247467,373.203247,-5.539379,,,,,,
1465847137.10,3.079176,-0.038662,-1.519631,0.012916,-2.092989,0.024783,0.062329,0.038652,0.997307,0.139651,0.004149,-0.039818,-42.289230,373.217865,-4.030651,,,,,,
1465847137.11,3.055492,-0.038767,-1.519905,0.013524,-2.457187,0.027068,0.085930,0.038758,0.995547,0.117546,0.004089,-0.029559,-42.221725,373.238495,-2.558098,,,,,,
1465847137.12,3.028225,-0.038900,-1.520227,0.014239,-2.734324,0.029871,0.113039,0.038890,0.992829,0.086058,0.004887,-0.006745,-42.221725,373.238495,-2.558098,,,,,,
1465847137.13,2.999816,-0.039022,-1.520594,0.018326,-2.861760,0.037061,0.141195,0.039012,0.989213,0.059245,-0.001201,0.010055,-42.221725,373.238495,-2.558098,,,,,,
1465847137.14,2.970881,-0.039138,-1.520968,0.018289,-2.897850,0.033030,0.169754,0.039128,0.984709,0.030091,-0.000065,0.024614,-42.221725,373.238495,-2.558098,,,,,,
1465847137.15,2.941766,-0.039264,-1.521318,0.020401,-2.911654,0.033118,0.198346,0.039254,0.979346,0.005099,0.001487,0.034876,-42.221725,373.238495,-2.558098,,,,,,
1465847137.16,2.912813,-0.039377,-1.521707,0.018299,-2.885117,0.036143,0.226614,0.039367,0.973189,-0.009771,0.001832,0.041673,-41.789795,373.291779,1.758277,,,,,,
1465847137.17,2.884266,-0.039473,-1.522063,0.017302,-2.839444,0.030534,0.254298,0.039463,0.966320,-0.039149,0.004727,0.043979,-41.789795,373.291779,1.758277,,,,,,
1465847137.18,2.856713,-0.039529,-1.522391,0.014263,-2.714153,0.030809,0.280822,0.039519,0.958946,-0.071426,0.001039,0.061379,-41.368942,373.320984,4.029776,,,,,,
1465847137.19,2.831193,-0.039621,-1.522748,0.019867,-2.486935,0.031519,0.305200,0.039611,0.951464,-0.091272,0.002625,0.067152,-41.368942,373.320984,4.029776,,,,,,
1465847137.21,2.788578,-0.039720,-1.523347,0.012060,-1.932649,0.020583,0.345455,0.039709,0.937595,-0.114681,0.000620,0.065350,-40.849445,373.348236,6.215787,,,,,,
1465847137.20,2.808577,-0.039675,-1.523085,0.015969,-2.199184,0.029710,0.326637,0.039664,0.944317,-0.099693,0.000955,0.064395,-40.849445,373.348236,6.215787,,,,,,
1465847137.22,2.771277,-0.039766,-1.523588,0.013462,-1.658714,0.022060,0.361623,0.039755,0.931476,-0.129156,0.002160,0.063290,-40.849445,373.348236,6.215787,,,,,,
1465847137.23,2.757049,-0.039787,-1.523864,0.011724,-1.339122,0.024312,0.374839,0.039777,0.926236,-0.105903,0.000979,0.058429,-40.849445,373.348236,6.215787,,,,,,
1465847137.24,2.746193,-0.039802,-1.524021,0.005714,-1.051345,0.013985,0.384872,0.039792,0.922112,-0.101318,0.002323,0.048241,-39.786121,373.395660,9.433001,,,,,,
1465847137.25,2.737608,-0.039160,-1.526450,0.063701,-0.797769,0.458457,0.392784,0.039150,0.918797,0.822228,0.039860,-0.350194,-39.786121,373.395660,9.433001,,,,,,
1465847137.26,2.702561,-0.037725,-1.529749,-0.099479,-5.007772,0.112141,0.424760,0.037716,0.904520,2.346617,0.051990,-0.763819,-39.786121,373.395660,9.433001,,,,,,
1465847137.27,2.594547,-0.035409,-1.517163,-1.054812,-11.717186,-1.259257,0.519840,0.035402,0.853529,-3.936619,0.129927,1.036912,-39.786121,373.395660,9.433001,,,,,,
1465847137.28,2.550112,-0.033246,-1.522483,0.807173,-0.975568,1.270360,0.557283,0.033239,0.829657,-1.564012,-0.136679,1.497629,-36.641815,373.648560,11.845867,,,,,,
1465847137.29,2.620180,-0.036505,-1.533456,0.366834,8.790761,0.180412,0.497773,0.036497,0.866539,1.773147,0.125322,-0.285149,-36.641815,373.648560,11.845867,,,,,,
1465847137.30,2.703451,-0.033090,-1.521367,-0.949787,7.291122,-0.979197,0.424025,0.033084,0.905046,-0.144789,-0.217670,-0.184221,-35.731750,373.379242,20.183411,,,,,,
1465847137.31,2.732769,-0.033614,-1.522329,0.497881,1.488208,0.396653,0.397306,0.033608,0.917071,0.271304,-0.109764,-0.003222,-35.731750,373.379242,20.183411,,,,,,
1465847137.33,2.687024,-0.036508,-1.524732,-0.339092,-2.718027,-0.039773,0.438783,0.036500,0.897852,0.241485,-0.083283,-0.308572,-38.747131,373.333893,14.719414,,,,,,
1465847137.32,2.715874,-0.038331,-1.526204,0.395806,-2.470041,-0.001210,0.412672,0.038321,0.910073,0.749361,0.080102,-0.278634,-38.747131,373.333893,14.719414,,,,,,
1465847137.34,2.669231,-0.036507,-1.523844,0.111864,-1.436612,-0.063326,0.454687,0.036499,0.889903,-0.466589,0.015564,0.269780,-38.747131,373.333893,14.719414,,,,,,
1465847137.35,2.665022,-0.038581,-1.525913,0.258979,-0.140746,0.118165,0.458393,0.038571,0.887912,-0.213764,-0.048581,0.197873,-38.747131,373.333893,14.719414,,,,,,
1465847137.36,2.666174,-0.038462,-1.526646,-0.038691,0.093222,0.035503,0.457372,0.038452,0.888444,0.214976,0.057785,-0.137589,-37.979618,373.422241,14.476638,,,,,,
1465847137.37,2.661539,-0.038605,-1.525967,0.012736,-0.699628,-0.084014,0.461483,0.038596,0.886309,0.117070,0.080514,-0.117663,-37.979618,373.422241,14.476638,,,,,,
1465847137.38,2.649598,-0.039315,-1.526054,0.062965,-1.265825,0.003679,0.472020,0.039305,0.880711,-0.073216,0.098421,-0.062031,-37.979618,373.422241,14.476638,,,,,,
1465847137.39,2.639495,-0.039024,-1.526208,-0.043062,-0.868728,0.026629,0.480899,0.039014,0.875908,-0.131594,0.033984,0.001427,-37.457840,373.496765,13.902574,,,,,,
1465847137.40,2.636173,-0.038524,-1.526247,-0.029412,-0.154174,0.033870,0.483815,0.038515,0.874322,-0.150579,-0.026475,0.057639,-37.457840,373.496765,13.902574,,,,,,
1465847137.41,2.638295,-0.038238,-1.526529,-0.012892,0.283281,0.031143,0.481965,0.038229,0.875356,-0.045151,-0.041281,0.076426,-37.457840,373.496765,13.902574,,,,,,
1465847137.42,2.639766,-0.037797,-1.526476,-0.052515,0.078414,0.017486,0.480684,0.037788,0.876079,-0.032915,-0.016197,-0.013668,-37.061722,373.508606,14.627390,,,,,,
1465847137.43,2.638595,-0.037261,-1.526498,-0.037936,-0.159479,0.033895,0.481720,0.037252,0.875533,-0.051300,0.021524,-0.015304,-37.061722,373.508606,14.627390,,,,,,
1465847137.44,2.638380,-0.036870,-1.526526,-0.036554,0.055072,0.008068,0.481915,0.036861,0.875442,-0.103497,-0.007366,0.051880,-36.908726,373.521271,14.690935,,,,,,
1465847137.45,2.643471,-0.036420,-1.526497,-0.035830,0.674030,0.030799,0.477459,0.036412,0.877899,-0.089291,-0.007893,0.072128,-36.908726,373.521271,14.690935,,,,,,
1465847137.46,2.652994,-0.036207,-1.526537,-0.014078,0.996880,0.002184,0.469081,0.036199,0.882413,0.024770,-0.003591,0.007907,-36.908726,373.521271,14.690935,,,,,,
1465847137.47,2.661589,-0.036105,-1.526151,-0.029194,0.763406,-0.037880,0.461482,0.036097,0.886415,0.051031,-0.001552,-0.012468,-36.908726,373.521271,14.690935,,,,,,
1465847137.48,2.666562,-0.036013,-1.525906,-0.015827,0.432034,-0.005984,0.457069,0.036006,0.888702,0.016014,0.019201,-0.029296,-36.800743,373.530975,14.714760,,,,,,
1465847137.49,2.670203,-0.035855,-1.525912,-0.015947,0.356611,0.007262,0.453833,0.035847,0.890365,0.034250,0.017223,-0.029495,-36.800743,373.530975,14.714760,,,,,,
1465847137.51,2.677413,-0.035365,-1.525975,-0.004286,0.355476,0.031763,0.447409,0.035357,0.893630,0.021112,0.000302,-0.015075,-37.173290,373.506836,14.387245,,,,,,
1465847137.50,2.673812,-0.035581,-1.525782,-0.031904,0.362999,0.004013,0.450622,0.035574,0.892006,-0.020537,-0.002279,0.014213,-37.173290,373.506836,14.387245,,,,,,
1465847137.52,2.680307,-0.035170,-1.526077,-0.017147,0.250429,0.008991,0.444824,0.035163,0.894927,0.063950,-0.016593,-0.006133,-37.173290,373.506836,14.387245,,,,,,
1465847137.53,2.680287,-0.034019,-1.526058,-0.008795,0.102856,-0.000719,0.444860,0.034012,0.894954,0.025538,-0.013291,0.008626,-37.173290,373.506836,14.387245,,,,,,
1465847137.54,2.680884,-0.034161,-1.526231,0.027322,0.055024,0.011326,0.444323,0.034154,0.895215,0.024732,0.009898,-0.001081,-37.170235,373.517029,14.128280,,,,,,
1465847137.55,2.679903,-0.035063,-1.526342,-0.000338,0.052939,-0.000397,0.445188,0.035056,0.894751,0.015292,0.011407,-0.016913,-37.170235,373.517029,14.128280,,,,,,
1465847137.56,2.680294,-0.034995,-1.526352,-0.002506,0.033807,0.007171,0.444839,0.034987,0.894927,-0.010894,0.000886,-0.004210,-36.959221,373.526855,14.418806,,,,,,
1465847137.57,2.680935,-0.034770,-1.526509,0.016618,0.011484,0.013717,0.444269,0.034763,0.895219,-0.004266,-0.004306,0.006835,-36.959221,373.526855,14.418806,,,,,,
1465847137.58,2.680765,-0.034780,-1.526610,0.001680,-0.026710,0.005426,0.444420,0.034773,0.895143,0.016014,-0.010298,-0.002443,-36.959221,373.526855,14.418806,,,,,,
1465847137.59,2.679898,-0.034610,-1.526638,0.010165,-0.062799,-0.000726,0.445199,0.034603,0.894763,0.004004,-0.003612,-0.002108,-36.959221,373.526855,14.418806,,,,,,
1465847137.60,2.679058,-0.035290,-1.526726,0.018680,-0.064931,0.000361,0.445940,0.035283,0.894367,-0.001192,0.008235,-0.007694,-36.933968,373.539551,14.152519,,,,,,
1465847137.61,2.678757,-0.035943,-1.526723,-0.000477,-0.060670,-0.000750,0.446199,0.035936,0.894212,-0.012727,0.010116,-0.012041,-36.933968,373.539551,14.152519,,,,,,
1465847137.62,2.678981,-0.036150,-1.526745,-0.001550,-0.054318,0.007725,0.445995,0.036142,0.894305,-0.021068,0.004141,-0.008990,-36.956066,373.542145,14.025646,,,,,,
1465847137.63,2.679230,-0.035931,-1.526833,0.000566,-0.056452,0.013063,0.445776,0.035923,0.894423,-0.017660,-0.003605,0.000642,-36.956066,373.542145,14.025646,,,,,,
1465847137.64,2.679477,-0.036100,-1.526879,-0.006887,-0.058565,0.012004,0.445553,0.036092,0.894528,-0.020046,0.005305,-0.001049,-36.956066,373.542145,14.025646,,,,,,
1465847137.65,2.679371,-0.035729,-1.526957,-0.010045,-0.028831,0.011814,0.445653,0.035721,0.894493,-0.007817,-0.005036,-0.002082,-36.956066,373.542145,14.025646,,,,,,
1465847137.66,2.679480,-0.036573,-1.526955,-0.008960,-0.023506,0.006460,0.445542,0.036565,0.894514,-0.016953,0.020243,-0.015745,-37.045624,373.544861,13.713587,,,,,,
1465847137.67,2.679778,-0.036555,-1.526994,-0.018515,0.005136,0.014784,0.445276,0.036546,0.894647,-0.012003,0.004072,-0.008295,-37.045624,373.544861,13.713587,,,,,,
1465847137.69,2.680859,-0.035503,-1.527009,-0.014251,0.004088,0.010537,0.444325,0.035496,0.895162,-0.011738,-0.011768,0.012461,-37.099289,373.545776,13.542548,,,,,,
1465847137.68,2.680117,-0.036184,-1.527011,-0.017437,0.011516,0.011551,0.444979,0.036176,0.894810,-0.009706,-0.004072,-0.007649,-37.099289,373.545776,13.542548,,,,,,
1465847137.70,2.680847,-0.035475,-1.527079,-0.007905,-0.026712,0.012865,0.444336,0.035467,0.895158,-0.007599,0.002527,-0.004167,-37.099289,373.545776,13.542548,,,,,,
1465847137.71,2.680644,-0.035191,-1.527114,-0.015370,-0.041564,0.009757,0.444523,0.035183,0.895076,-0.005314,-0.002804,0.000508,-37.099289,373.545776,13.542548,,,,,,
1465847137.72,2.680048,-0.035336,-1.527172,-0.012211,-0.061754,0.015209,0.445054,0.035328,0.894807,-0.007752,0.008220,-0.014802,-36.893646,373.555298,13.838575,,,,,,
1465847137.73,2.679270,-0.035247,-1.527251,-0.013297,-0.078743,0.015315,0.445751,0.035240,0.894463,-0.006039,0.002083,-0.012291,-36.893646,373.555298,13.838575,,,,,,
1465847137.75,2.677721,-0.034539,-1.527370,-0.006931,-0.098913,0.013319,0.447147,0.034532,0.893794,-0.008884,-0.005831,-0.002085,-36.828651,373.559479,13.899076,,,,,,
1465847137.74,2.678501,-0.034876,-1.527286,-0.017568,-0.091476,0.013261,0.446445,0.034869,0.894131,-0.006504,-0.004413,-0.003415,-36.828651,373.559479,13.899076,,,,,,
1465847137.76,2.677117,-0.034328,-1.527394,-0.011183,-0.102079,0.008012,0.447690,0.034321,0.893530,-0.012967,-0.002537,0.003595,-36.828651,373.559479,13.899076,,,,,,
1465847137.77,2.676659,-0.034270,-1.527396,-0.010117,-0.101015,0.008006,0.448100,0.034263,0.893327,-0.021266,0.001763,-0.001969,-36.828651,373.559479,13.899076,,,,,,
1465847137.78,2.676267,-0.034333,-1.527456,-0.007980,-0.087225,0.013244,0.448449,0.034326,0.893149,-0.022973,0.005500,-0.007910,-36.545021,373.571960,14.306172,,,,,,
1465847137.79,2.675978,-0.034228,-1.527502,-0.014355,-0.076601,0.013171,0.448709,0.034221,0.893023,-0.023706,0.001530,-0.009890,-36.545021,373.571960,14.306172,,,,,,
1465847137.80,2.675578,-0.033971,-1.527574,-0.013284,-0.065991,0.016299,0.449070,0.033965,0.892851,-0.016758,-0.002578,-0.011061,-36.545021,373.571960,14.306172,,,,,,
1465847137.81,2.675096,-0.033698,-1.527616,-0.013286,-0.074472,0.012094,0.449505,0.033691,0.892642,-0.012722,-0.003357,-0.007007,-36.403305,373.580200,14.450949,,,,,,
1465847137.82,2.674516,-0.033524,-1.527670,-0.012249,-0.093589,0.014344,0.450025,0.033518,0.892387,-0.015043,0.000036,-0.005805,-36.403305,373.580200,14.450949,,,,,,
1465847137.83,2.673787,-0.033541,-1.527722,-0.012251,-0.098891,0.012248,0.450675,0.033535,0.892058,-0.015724,0.006260,-0.009032,-36.403305,373.580200,14.450949,,,,,,
1465847137.84,2.673305,-0.033313,-1.527750,-0.012230,-0.085080,0.010033,0.451108,0.033307,0.891847,-0.017865,-0.002393,-0.001619,-36.280739,373.585449,14.622490,,,,,,
1465847137.86,2.672482,-0.032804,-1.527832,-0.001543,-0.062767,0.003517,0.451850,0.032798,0.891491,-0.005836,-0.008048,-0.005093,-36.280739,373.585449,14.622490,,,,,,
1465847137.85,2.673049,-0.033057,-1.527790,-0.002627,-0.070214,0.008885,0.451341,0.033051,0.891739,-0.019471,-0.005830,0.000229,-36.280739,373.585449,14.622490,,,,,,
1465847137.87,2.671574,-0.032573,-1.527837,0.003744,-0.098859,-0.000509,0.452662,0.032567,0.891087,-0.003428,-0.009251,-0.006871,-36.075451,373.594025,14.908792,,,,,,
1465847137.88,2.670297,-0.032556,-1.527860,0.007941,-0.147704,-0.000199,0.453800,0.032551,0.890509,-0.009540,-0.003696,-0.008337,-36.075451,373.594025,14.908792,,,,,,
1465847137.89,2.668711,-0.032507,-1.527916,0.005769,-0.176380,0.003172,0.455213,0.032502,0.889789,-0.013502,-0.004242,-0.012195,-36.075451,373.594025,14.908792,,,,,,
1465847137.90,2.667118,-0.032685,-1.527951,0.001504,-0.181685,0.003201,0.456627,0.032679,0.889058,-0.018227,0.005651,-0.014042,-35.991154,373.595886,15.065068,,,,,,
1465847137.91,2.665687,-0.032980,-1.528008,0.000436,-0.175330,0.009547,0.457894,0.032974,0.888395,-0.026254,0.011795,-0.017438,-35.991154,373.595886,15.065068,,,,,,
1465847137.92,2.664177,-0.033073,-1.528108,-0.005941,-0.159410,0.013698,0.459234,0.033067,0.887700,-0.019613,0.006651,-0.021916,-35.991154,373.595886,15.065068,,,,,,
1465847137.93,2.662619,-0.032785,-1.528131,-0.011257,-0.163637,0.007333,0.460621,0.032779,0.886991,-0.011647,-0.006701,-0.014463,-35.905212,373.603912,15.070757,,,,,,
1465847137.95,2.659048,-0.032547,-1.528191,-0.010253,-0.208238,0.009743,0.463789,0.032541,0.885348,-0.014861,-0.001474,-0.013903,-35.905212,373.603912,15.070757,,,,,,
1465847137.94,2.660953,-0.032685,-1.528151,-0.005958,-0.182752,0.007458,0.462100,0.032679,0.886226,-0.016040,-0.000987,-0.017482,-35.905212,373.603912,15.070757,,,,,,
1465847137.96,2.656665,-0.032516,-1.528270,-0.006047,-0.245412,0.013173,0.465898,0.032510,0.884241,-0.013658,0.003058,-0.021357,-35.774818,373.606812,15.307560,,,,,,
1465847137.97,2.653862,-0.032465,-1.528383,-0.005036,-0.283647,0.016607,0.468375,0.032460,0.882933,-0.009894,0.002407,-0.019103,-35.774818,373.606812,15.307560,,,,,,
1465847137.98,2.650570,-0.032255,-1.528533,-0.004033,-0.329311,0.019024,0.471283,0.032250,0.881392,-0.008881,-0.004051,-0.020064,-35.774818,373.606812,15.307560,,,,,,
1465847137.99,2.646546,-0.032065,-1.528700,0.003369,-0.377086,0.015073,0.474829,0.032060,0.879494,0.006083,-0.005861,-0.015984,-35.412895,373.622772,15.752130,,,,,,
1465847138.00,2.642065,-0.032019,-1.528832,0.007578,-0.426977,0.009003,0.478765,0.032014,0.877359,0.003489,-0.003129,-0.016031,-35.412895,373.622772,15.752130,,,,,,
1465847138.01,2.637411,-0.032100,-1.528985,0.014972,-0.470521,0.011413,0.482843,0.032095,0.875119,-0.010644,0.000223,-0.013669,-35.412895,373.622772,15.752130,,,,,,
1465847138.02,2.632667,-0.032298,-1.529182,0.013885,-0.482212,0.015743,0.486986,0.032293,0.872813,-0.019319,0.006510,-0.018244,-35.137482,373.635010,16.076321,,,,,,
1465847138.04,2.623520,-0.032193,-1.529624,0.017087,-0.471599,0.017808,0.494950,0.032187,0.868325,-0.018250,-0.009177,-0.011254,-34.921814,373.647644,16.250742,,,,,,
1465847138.03,2.628124,-0.032312,-1.529384,0.013893,-0.473719,0.016754,0.490945,0.032306,0.870591,-0.025506,-0.002323,-0.012697,-34.921814,373.647644,16.250742,,,,,,
1465847138.05,2.618592,-0.031972,-1.529822,0.014959,-0.483255,0.009364,0.499227,0.031966,0.865881,-0.008077,-0.016433,-0.015799,-34.921814,373.647644,16.250742,,,,,,
1465847138.06,2.613663,-0.031914,-1.529973,0.018126,-0.504492,0.009500,0.503489,0.031908,0.863412,-0.015162,-0.008562,-0.009195,-34.921814,373.647644,16.250742,,,,,,
1465847138.07,2.608631,-0.031933,-1.530150,0.020243,-0.516170,0.008511,0.507827,0.031927,0.860867,-0.021362,-0.007833,-0.014020,-34.279579,373.678986,16.885878,,,,,,
1465847138.08,2.603358,-0.032064,-1.530374,0.017016,-0.528933,0.017104,0.512357,0.032059,0.858174,-0.022169,0.001968,-0.028187,-34.279579,373.678986,16.885878,,,,,,
1465847138.09,2.597839,-0.032062,-1.530574,0.009520,-0.562907,0.017309,0.517086,0.032056,0.855333,-0.005886,-0.001661,-0.040483,-34.279579,373.678986,16.885878,,,,,,
1465847138.10,2.591744,-0.032072,-1.530811,0.014761,-0.622383,0.021945,0.522289,0.032066,0.852165,-0.005215,0.008766,-0.044456,-34.003975,373.693848,17.112595,,,,,,
1465847138.11,2.585060,-0.032030,-1.531047,0.005103,-0.683959,0.021258,0.527974,0.032025,0.848656,0.008342,0.020130,-0.046639,-34.003975,373.693848,17.112595,,,,,,
1465847138.12,2.577512,-0.032044,-1.531257,-0.003512,-0.751929,0.028062,0.534365,0.032038,0.844647,-0.002764,0.030279,-0.050595,-34.003975,373.693848,17.112595,,,,,,
1465847138.13,2.569642,-0.031818,-1.531544,-0.002525,-0.795495,0.040045,0.540999,0.031813,0.840421,-0.013976,0.023744,-0.035428,-33.267944,373.727295,17.814854,,,,,,
1465847138.14,2.561450,-0.031580,-1.531932,0.001684,-0.825246,0.046622,0.547870,0.031575,0.835967,-0.015002,0.006999,-0.028381,-33.267944,373.727295,17.814854,,,,,,
1465847138.15,2.552846,-0.031303,-1.532266,-0.006879,-0.869822,0.041571,0.555047,0.031298,0.831230,-0.004251,-0.000826,-0.029396,-33.267944,373.727295,17.814854,,,,,,
1465847138.16,2.543868,-0.031045,-1.532574,0.000543,-0.899548,0.038572,0.562492,0.031040,0.826220,-0.014275,-0.014561,-0.014147,-32.672112,373.753815,18.352867,,,,,,
1465847138.17,2.534901,-0.030904,-1.532958,0.011199,-0.891062,0.039594,0.569881,0.030899,0.821146,-0.020961,-0.006516,-0.003519,-32.672112,373.753815,18.352867,,,,,,
1465847138.18,2.526266,-0.030747,-1.533258,0.001681,-0.852809,0.030829,0.576952,0.030742,0.816199,-0.023959,0.002796,-0.014075,-32.672112,373.753815,18.352867,,,,,,
1465847138.19,2.518285,-0.030573,-1.533541,0.003901,-0.774248,0.034596,0.583451,0.030569,0.811573,-0.050095,0.002619,-0.010456,-31.422955,373.805054,19.457756,,,,,,
1465847138.20,2.511457,-0.030410,-1.533880,0.009363,-0.660643,0.036018,0.588982,0.030405,0.807574,-0.070076,-0.010843,0.006498,-31.422955,373.805054,19.457756,,,,,,
1465847138.21,2.505817,-0.030254,-1.534172,0.003144,-0.532150,0.030948,0.593530,0.030249,0.804243,-0.067391,-0.023810,0.003481,-31.422955,373.805054,19.457756,,,,,,
1465847138.22,2.501151,-0.030135,-1.534432,0.007514,-0.445081,0.029342,0.597278,0.030131,0.801468,-0.064075,-0.023158,-0.004944,-30.653006,373.515503,18.224070,,,,,,
1465847138.23,2.497231,-0.029967,-1.534748,0.002266,-0.372897,0.036335,0.600418,0.029962,0.799124,-0.060593,-0.004206,-0.023993,-30.653006,373.515503,18.224070,,,,,,
1465847138.24,2.494334,-0.029989,-1.534973,-0.006183,-0.320859,0.034935,0.602731,0.029985,0.797381,-0.040673,0.010832,-0.018313,-30.653006,373.515503,18.224070,,,,,,
1465847138.25,2.491211,-0.029812,-1.535290,0.009792,-0.312381,0.038091,0.605222,0.029807,0.795499,-0.035641,0.027169,-0.008634,-29.917023,373.555450,18.624647,,,,,,
1465847138.26,2.488027,-0.029599,-1.535660,0.003386,-0.316643,0.044498,0.607755,0.029594,0.793573,-0.046643,0.023598,-0.010019,-29.917023,373.555450,18.624647,,,,,,
1465847138.27,2.485014,-0.029325,-1.536185,0.015099,-0.286968,0.062420,0.610148,0.029321,0.791745,-0.062464,0.029685,0.008991,-29.917023,373.555450,18.624647,,,,,,
1465847138.28,2.483723,-0.029369,-1.536617,0.009852,-0.255055,0.044118,0.611169,0.029365,0.790956,-0.036019,0.010293,0.036437,-29.506817,373.580688,18.772139,,,,,,
1465847138.29,2.481105,-0.029030,-1.537076,-0.002961,-0.251919,0.064310,0.613243,0.029026,0.789361,-0.078499,0.039455,0.040275,-29.506817,373.580688,18.772139,,,,,,
1465847138.30,2.479721,-0.028515,-1.537501,-0.014462,-0.088386,0.060080,0.614345,0.028512,0.788522,-0.086208,-0.005044,0.075079,-29.506817,373.580688,18.772139,,,,,,
1465847138.31,2.479557,-0.028567,-1.538129,0.066590,-0.008748,0.043694,0.614473,0.028563,0.788421,-0.062914,-0.111693,0.160936,-28.559855,373.647278,18.911789,,,,,,
1465847138.32,2.478520,-0.026485,-1.538746,0.065599,-0.007579,0.003241,0.615325,0.026481,0.787828,0.044190,-0.100151,-0.002382,-28.559855,373.647278,18.911789,,,,,,
1465847138.33,2.478026,-0.027270,-1.538756,0.075228,-0.075358,-0.062320,0.615701,0.027266,0.787508,0.109427,-0.107619,-0.123430,-28.559855,373.647278,18.911789,,,,,,
1465847138.34,2.475831,-0.028894,-1.539032,0.154896,-0.253731,-0.079218,0.617400,0.028890,0.786118,0.108201,-0.027470,-0.254838,-27.704042,373.694031,19.256804,,,,,,
1465847138.35,2.473803,-0.030075,-1.538867,0.054942,-0.167643,-0.091567,0.618972,0.030070,0.784837,0.058549,-0.041758,-0.130785,-27.704042,373.694031,19.256804,,,,,,
1465847138.36,2.472391,-0.031491,-1.538709,0.136965,-0.145371,-0.096947,0.620052,0.031486,0.783929,0.012165,-0.000648,-0.196160,-27.704042,373.694031,19.256804,,,,,,
1465847138.38,2.470298,-0.034263,-1.538654,0.019901,-0.129336,-0.115260,0.621635,0.034257,0.782558,-0.038719,0.054031,-0.212733,-28.757111,373.678680,17.967716,,,,,,
1465847138.37,2.471411,-0.033219,-1.539163,0.151894,-0.084929,-0.070700,0.620786,0.033213,0.783276,0.063281,0.001410,-0.243329,-28.757111,373.678680,17.967716,,,,,,
1465847138.39,2.468731,-0.035032,-1.538237,0.050643,-0.147557,-0.058699,0.622844,0.035025,0.781562,-0.090526,0.133753,-0.134498,-28.757111,373.678680,17.967716,,,,,,
1465847138.40,2.467909,-0.035686,-1.538622,0.068741,-0.057471,-0.001766,0.623472,0.035678,0.781032,-0.098218,0.175778,-0.163417,-29.379700,373.665039,17.229359,,,,,,
1465847138.41,2.467601,-0.035574,-1.538746,-0.022845,-0.025653,0.027748,0.623715,0.035567,0.780842,-0.147992,0.194200,-0.239903,-29.379700,373.665039,17.229359,,,,,,
1465847138.42,2.468610,-0.034489,-1.538946,-0.089826,0.167429,0.098853,0.622950,0.034482,0.781501,-0.128962,0.244388,-0.129325,-29.379700,373.665039,17.229359,,,,,,
1465847138.43,2.471880,-0.032637,-1.538724,-0.181159,0.349052,0.094429,0.620430,0.032631,0.783583,-0.346870,0.214119,-0.001433,-29.317989,373.673767,17.144701,,,,,,
1465847138.44,2.476055,-0.029931,-1.538730,-0.211068,0.466590,0.216074,0.617206,0.029927,0.786233,-0.406009,0.094005,-0.020638,-29.317989,373.673767,17.144701,,,,,,
1465847138.45,2.483791,-0.026332,-1.540288,-0.205461,0.938665,0.367464,0.611167,0.026329,0.791064,0.016153,-0.066018,-0.095873,-29.317989,373.673767,17.144701,,,,,,
1465847138.46,2.496276,-0.021924,-1.539361,-0.448447,1.242030,0.136463,0.601307,0.021922,0.798717,-0.177036,-0.059062,0.055012,-28.456657,373.684784,18.315893,,,,,,
1465847138.47,2.507529,-0.018217,-1.539341,-0.224209,1.101423,0.259980,0.592325,0.018216,0.805493,-0.051599,-0.190976,0.006030,-28.456657,373.684784,18.315893,,,,,,
1465847138.48,2.518818,-0.015313,-1.540194,-0.207046,1.116429,0.205616,0.583223,0.015312,0.812168,0.160765,-0.110008,-0.041843,-28.456657,373.684784,18.315893,,,,,,
1465847138.49,2.528202,-0.012510,-1.539523,-0.267782,0.881082,0.082491,0.575598,0.012509,0.817637,0.074121,-0.237027,0.007055,-25.583336,373.740051,21.200142,,,,,,
1465847138.50,2.536664,-0.011012,-1.539454,-0.062335,0.854417,0.089249,0.568669,0.011012,0.822493,0.142528,-0.192195,0.083620,-25.583336,373.740051,21.200142,,,,,,
1465847138.51,2.544928,-0.011332,-1.540107,0.078314,0.800432,0.003508,0.561851,0.011332,0.827161,0.261483,-0.105982,-0.004728,-25.583336,373.740051,21.200142,,,,,,
1465847138.52,2.550806,-0.012221,-1.539693,0.048339,0.502370,-0.100033,0.556973,0.012221,0.830441,0.198322,-0.011290,-0.002514,-25.270666,373.702118,22.219700,,,,,,
1465847138.53,2.552370,-0.014044,-1.539601,0.185129,0.037264,-0.108689,0.555660,0.014044,0.831291,0.067493,0.070063,-0.113548,-25.270666,373.702118,22.219700,,,,,,
1465847138.54,2.550509,-0.016063,-1.540091,0.177230,-0.236817,-0.055884,0.557189,0.016062,0.830230,-0.007888,0.088964,-0.243347,-25.270666,373.702118,22.219700,,,,,,
1465847138.55,2.547922,-0.017015,-1.540418,0.070690,-0.232617,-0.019825,0.559326,0.017015,0.828773,-0.061111,0.059462,-0.245597,-26.642927,373.034210,18.829145,,,,,,
1465847138.56,2.547034,-0.017440,-1.540750,0.061260,-0.055387,0.014181,0.560058,0.017439,0.828270,-0.079055,0.058153,-0.227256,-26.642927,373.034210,18.829145,,,,,,
1465847138.57,2.546910,-0.017601,-1.541303,0.027198,-0.005539,0.040445,0.560159,0.017600,0.828198,-0.063180,-0.010199,-0.230984,-26.642927,373.034210,18.829145,,,,,,
1465847138.58,2.547394,-0.017008,-1.541430,-0.055766,0.067758,0.043096,0.559764,0.017007,0.828478,-0.047236,-0.008722,-0.161852,-26.661600,373.056366,18.357864,,,,,,
1465847138.59,2.549091,-0.016492,-1.541467,-0.034258,0.217497,0.029405,0.558362,0.016492,0.829434,-0.049237,0.002002,-0.113766,-26.661600,373.056366,18.357864,,,,,,
1465847138.60,2.552730,-0.016064,-1.541599,-0.030840,0.412838,0.038828,0.555344,0.016063,0.831466,-0.023621,-0.009700,-0.154052,-26.661600,373.056366,18.357864,,,,,,
1465847138.61,2.558624,-0.015333,-1.541471,-0.078436,0.640131,0.021388,0.550440,0.015333,0.834734,0.023184,0.028109,-0.122057,-26.217411,373.082977,18.456547,,,,,,
1465847138.62,2.566180,-0.014693,-1.541089,-0.070751,0.794142,0.001270,0.544122,0.014692,0.838877,0.004767,0.031893,-0.083811,-26.217411,373.082977,18.456547,,,,,,
1465847138.63,2.574752,-0.014176,-1.540881,-0.051517,0.874785,0.016750,0.536915,0.014175,0.843517,0.006054,0.001679,-0.145550,-26.217411,373.082977,18.456547,,,,,,
1465847138.64,2.584471,-0.013422,-1.540704,-0.084362,1.008558,0.023328,0.528698,0.013421,0.848704,0.063023,-0.041741,-0.142512,-26.344446,373.065155,18.635086,,,,,,
1465847138.65,2.595547,-0.012594,-1.540280,-0.087369,1.122234,0.000259,0.519271,0.012593,0.854517,0.097871,-0.031545,-0.103830,-26.344446,373.065155,18.635086,,,,,,
1465847138.66,2.606573,-0.012154,-1.539965,-0.045872,1.096736,-0.001669,0.509820,0.012154,0.860195,0.114371,-0.007821,-0.110317,-26.551926,373.050751,18.628675,,,,,,
1465847138.68,2.626085,-0.011081,-1.539242,-0.079111,0.896098,-0.010024,0.492946,0.011081,0.869989,0.173390,0.017270,-0.194071,-26.551926,373.050751,18.628675,,,,,,
1465847138.67,2.616841,-0.011693,-1.539680,-0.060887,1.009675,-0.001138,0.500964,0.011693,0.865389,0.144254,0.004268,-0.165255,-26.551926,373.050751,18.628675,,,,,,
1465847138.69,2.634346,-0.010363,-1.538815,-0.084584,0.797318,0.003364,0.485746,0.010363,0.874038,0.175570,0.013654,-0.152099,-26.551926,373.050751,18.628675,,,,,,
1465847138.70,2.640585,-0.009552,-1.538674,-0.076432,0.549838,0.032600,0.480287,0.009551,0.877059,0.235380,0.009568,-0.226455,-27.347534,372.997833,18.536783,,,,,,
1465847138.71,2.635208,-0.007822,-1.538543,-0.102342,0.254645,0.026976,0.485004,0.007822,0.874477,0.256604,-0.026621,-0.158352,-27.347534,372.997833,18.536783,,,,,,
1465847138.72,2.635642,-0.006954,-1.538453,-0.068628,-0.021455,0.034063,0.484627,0.006954,0.874693,0.249412,-0.035351,-0.038664,-27.347534,372.997833,18.536783,,,,,,
1465847138.73,2.633599,-0.006743,-1.538709,0.016255,-0.267818,0.029306,0.486414,0.006743,0.873702,0.260641,0.009141,-0.020553,-27.034927,372.957672,19.763935,,,,,,
1465847138.74,2.629066,-0.007019,-1.538981,0.029862,-0.502401,0.000987,0.490369,0.007019,0.871487,0.280734,0.021805,-0.122265,-27.034927,372.957672,19.763935,,,,,,
1465847138.75,2.623081,-0.007022,-1.538792,-0.012847,-0.626561,-0.016373,0.495575,0.007022,0.868537,0.199493,-0.002505,-0.079382,-27.034927,372.957672,19.763935,,,,,,
1465847138.76,2.616227,-0.007233,-1.539092,0.046606,-0.695725,0.026698,0.501516,0.007233,0.865118,0.192118,0.005477,-0.129217,-26.744694,372.975372,19.823517,,,,,,
1465847138.77,2.606945,-0.007282,-1.539313,-0.014089,-0.722213,0.012966,0.509524,0.007282,0.860425,0.204541,0.008816,-0.124326,-26.744694,372.975372,19.823517,,,,,,
1465847138.78,2.599170,-0.006819,-1.539210,-0.046126,-0.791226,0.017624,0.516200,0.006819,0.856441,0.205845,0.008760,-0.132304,-26.744694,372.975372,19.823517,,,,,,
1465847138.79,2.591209,-0.006406,-1.539135,-0.037606,-0.796528,0.013408,0.523004,0.006406,0.852306,0.213492,-0.001493,-0.067089,-25.978359,371.832123,19.568583,,,,,,
1465847138.80,2.582531,-0.005898,-1.539077,-0.050532,-0.895304,0.026788,0.530382,0.005898,0.847738,0.213453,-0.021340,-0.111212,-25.978359,371.832123,19.568583,,,,,,
1465847138.81,2.573043,-0.005137,-1.538930,-0.079335,-0.949425,0.020712,0.538403,0.005137,0.842672,0.274570,-0.008570,-0.087468,-25.978359,371.832123,19.568583,,,,,,
1465847138.82,2.562790,-0.004465,-1.538489,-0.074104,-1.060852,-0.002002,0.547016,0.004465,0.837110,0.237545,-0.001367,-0.009595,-25.509607,371.824554,20.314819,,,,,,
1465847138.83,2.551101,-0.003988,-1.538374,-0.042380,-1.193664,0.024410,0.556765,0.003988,0.830661,0.228285,-0.006658,-0.039523,-25.509607,371.824554,20.314819,,,,,,
1465847138.84,2.538893,-0.003330,-1.538076,-0.080720,-1.230758,0.006509,0.566865,0.003330,0.823804,0.247573,0.015957,-0.038022,-25.509607,371.824554,20.314819,,,,,,
1465847138.85,2.526314,-0.002646,-1.537655,-0.077560,-1.261546,0.004576,0.577184,0.002646,0.816610,0.226115,0.001398,-0.027929,-24.364046,371.781250,22.405851,,,,,,
1465847138.86,2.513882,-0.002009,-1.537267,-0.072213,-1.239256,0.006570,0.587292,0.002009,0.809373,0.197574,0.005071,0.052718,-24.364046,371.781250,22.405851,,,,,,
1465847138.87,2.501424,-0.001508,-1.537061,-0.049874,-1.240356,0.016180,0.597330,0.001508,0.801994,0.192678,-0.001402,0.011086,-24.364046,371.781250,22.405851,,,,,,
1465847138.88,2.489863,-0.000926,-1.536670,-0.077378,-1.124559,-0.001605,0.606562,0.000926,0.795035,0.195516,0.003285,0.048989,-23.751219,371.748108,23.582426,,,,,,
1465847138.89,2.479226,-0.000405,-1.536264,-0.058122,-1.047065,0.001121,0.614985,0.000405,0.788539,0.193090,0.003028,0.023381,-23.751219,371.748108,23.582426,,,,,,
1465847138.90,2.469343,0.000090,-1.535815,-0.073981,-0.968466,-0.005774,0.622748,-0.000090,0.782422,0.185190,-0.007402,0.048312,-23.751219,371.748108,23.582426,,,,,,
1465847138.91,2.460229,0.000745,-1.535306,-0.082415,-0.884609,0.004336,0.629852,-0.000745,0.776715,0.166855,-0.010867,0.045765,-22.613934,371.688141,25.562952,,,,,,
1465847138.92,2.452565,0.001324,-1.534858,-0.072624,-0.725332,-0.000911,0.635786,-0.001324,0.771864,0.180376,-0.001392,0.064608,-22.613934,371.688141,25.562952,,,,,,
1465847138.93,2.446244,0.001917,-1.534361,-0.079935,-0.606415,0.001529,0.640652,-0.001917,0.767829,0.188709,-0.010565,0.043054,-22.613934,371.688141,25.562952,,,,,,
1465847138.94,2.440682,0.002606,-1.533749,-0.097941,-0.538439,-0.003173,0.644912,-0.002606,0.764253,0.184266,-0.014606,0.032088,-22.164808,371.648193,26.519241,,,,,,
1465847138.95,2.435921,0.003491,-1.533106,-0.111706,-0.450349,0.013292,0.648541,-0.003491,0.761171,0.174197,-0.015873,0.040617,-22.164808,371.648193,26.519241,,,,,,
1465847138.96,2.432285,0.004585,-1.532471,-0.129684,-0.330395,0.026360,0.651302,-0.004585,0.758805,0.156407,-0.020989,0.058151,-22.164808,371.648193,26.519241,,,,,,
1465847138.97,2.429906,0.005917,-1.531917,-0.133848,-0.210485,0.053279,0.653101,-0.005917,0.757248,0.144141,-0.015048,0.081726,-21.506681,371.543274,28.460239,,,,,,
1465847138.98,2.428616,0.007361,-1.531607,-0.135876,-0.104347,0.068578,0.654071,-0.007361,0.756398,0.225080,-0.026392,0.029262,-21.506681,371.543274,28.460239,,,,,,
1465847138.99,2.427831,0.009052,-1.530737,-0.195411,-0.073455,0.042778,0.654655,-0.009052,0.755874,0.199273,-0.021465,0.086686,-21.506681,371.543274,28.460239,,,,,,
1465847139.00,2.427281,0.010807,-1.530176,-0.157122,-0.047032,0.079906,0.655059,-0.010807,0.755500,0.218293,-0.021755,0.087044,-20.970470,371.490540,29.528894,,,,,,
1465847139.01,2.426666,0.012537,-1.529593,-0.180554,-0.076709,0.065167,0.655510,-0.012537,0.755082,0.298912,-0.010458,0.053527,-20.970470,371.490540,29.528894,,,,,,
1465847139.02,2.424537,0.014523,-1.528578,-0.224417,-0.265650,0.052470,0.657099,-0.014523,0.753664,0.279684,-0.026127,0.100568,-20.970470,371.490540,29.528894,,,,,,
1465847139.03,2.420164,0.016440,-1.527881,-0.167272,-0.496175,0.084842,0.660369,-0.016439,0.750762,0.240068,0.008993,0.192506,-19.950563,371.311035,32.357639,,,,,,
1465847139.04,2.413498,0.018042,-1.527654,-0.140920,-0.713849,0.083040,0.665340,-0.018041,0.746322,0.281437,0.017308,0.122895,-19.950563,371.311035,32.357639,,,,,,
1465847139.05,2.405414,0.019845,-1.526849,-0.198507,-0.830542,0.056039,0.671329,-0.019843,0.740894,0.256375,0.028266,0.145382,-19.950563,371.311035,32.357639,,,,,,
1465847139.06,2.396356,0.021453,-1.526225,-0.143279,-0.930397,0.063107,0.677990,-0.021452,0.734758,0.241398,0.017774,0.155012,-18.979483,371.235321,33.779167,,,,,,
1465847139.07,2.386253,0.022895,-1.525707,-0.144476,-1.042936,0.059554,0.685356,-0.022893,0.727848,0.236396,0.019581,0.208370,-18.979483,371.235321,33.779167,,,,,,
1465847139.08,2.374362,0.024097,-1.525066,-0.122287,-1.235037,0.025654,0.693943,-0.024095,0.719627,0.247769,0.029664,0.215126,-18.979483,371.235321,33.779167,,,,,,
1465847139.09,2.361071,0.024629,-1.524423,-0.065915,-1.354923,-0.019309,0.703437,-0.024626,0.710331,0.232324,0.058364,0.270855,-16.776432,371.056274,36.779362,,,,,,
1465847139.10,2.346835,0.024602,-1.523789,-0.046771,-1.431279,-0.056067,0.713478,-0.024600,0.700246,0.165993,0.021335,0.261195,-16.776432,371.056274,36.779362,,,,,,
1465847139.11,2.332150,0.024261,-1.522049,-0.134912,-1.470135,-0.196419,0.723690,-0.024259,0.689699,-0.030941,0.001645,0.323011,-16.776432,371.056274,36.779362,,,,,,
1465847139.12,2.319612,0.023724,-1.518877,-0.173813,-1.144025,-0.241081,0.732289,-0.023722,0.680580,-0.692632,0.062418,0.853279,-15.956743,371.000427,37.695835,,,,,,
1465847139.13,2.311406,0.022444,-1.517741,0.036353,-0.683533,-0.161796,0.737871,-0.022442,0.674568,-1.157640,-0.013965,1.018501,-15.956743,371.000427,37.695835,,,,,,
1465847139.14,2.309375,0.021526,-1.516236,-0.075699,-0.040022,-0.167009,0.739255,-0.021524,0.673081,-1.586118,0.039133,1.295318,-16.408127,370.822021,39.226837,,,,,,
1465847139.16,2.332155,0.018669,-1.515718,0.211985,2.027872,-0.050892,0.723773,-0.018667,0.689786,-2.150500,0.045950,1.623370,-16.408127,370.822021,39.226837,,,,,,
1465847139.15,2.314949,0.020425,-1.515036,0.022224,0.804028,-0.159431,0.735509,-0.020423,0.677207,-1.988621,0.051002,1.483559,-16.408127,370.822021,39.226837,,,,,,
1465847139.17,2.362185,0.017828,-1.516860,0.090947,3.324092,0.050496,0.702746,-0.017827,0.711217,-1.985568,-0.075907,1.374156,-16.408127,370.822021,39.226837,,,,,,
1465847139.19,2.445722,0.023589,-1.519883,-0.219498,4.276730,0.413575,0.640876,-0.023586,0.767282,-0.643302,-0.145588,0.592642,-19.066385,370.763611,38.571220,,,,,,
1465847139.18,2.402437,0.019571,-1.518231,-0.073452,4.201643,0.277942,0.673535,-0.019570,0.738896,-1.426144,-0.249946,0.924190,-19.066385,370.763611,38.571220,,,,,,
1465847139.20,2.482346,0.027326,-1.522505,-0.076917,3.383629,0.438479,0.612293,-0.027323,0.790159,0.075939,0.048716,0.383990,-20.812147,370.853912,36.757854,,,,,,
1465847139.21,2.506687,0.029677,-1.526183,0.053508,2.082896,0.431864,0.592840,-0.029673,0.804773,0.822458,0.054117,-0.018946,-20.812147,370.853912,36.757854,,,,,,
1465847139.22,2.518837,0.031864,-1.529173,-0.023307,0.957688,0.343044,0.582980,-0.031859,0.811862,1.399885,0.031477,-0.539432,-20.812147,370.853912,36.757854,,,,,,
1465847139.23,2.522129,0.032845,-1.531215,0.075003,0.130945,0.184402,0.580285,-0.032839,0.813751,1.736365,0.105196,-0.845153,-18.974321,371.081116,35.435619,,,,,,
1465847139.25,2.503471,0.030646,-1.533252,0.108475,-1.651053,-0.089661,0.595408,-0.030641,0.802839,1.862219,0.052217,-1.259642,-18.974321,371.081116,35.435619,,,,,,
1465847139.24,2.517575,0.032045,-1.532906,0.181783,-0.682089,0.058680,0.584000,-0.032039,0.811121,1.898956,0.120922,-1.080561,-18.974321,371.081116,35.435619,,,,,,
1465847139.26,2.480629,0.029069,-1.532308,0.053380,-2.450276,-0.189019,0.613618,-0.029065,0.789068,1.457854,-0.019046,-1.122518,-17.762432,371.209991,34.706863,,,,,,
1465847139.27,2.453979,0.027936,-1.530903,-0.014031,-2.687074,-0.169506,0.634448,-0.027933,0.772461,0.719144,-0.073523,-0.639252,-17.762432,371.209991,34.706863,,,,,,
1465847139.28,2.429510,0.027506,-1.529262,-0.095576,-2.305899,-0.152818,0.653165,-0.027503,0.756716,0.025791,-0.074624,-0.164630,-17.762432,371.209991,34.706863,,,,,,
1465847139.29,2.412550,0.027601,-1.527624,-0.109543,-1.461923,-0.098516,0.665903,-0.027597,0.745528,-0.520242,-0.030386,0.296678,-16.769230,371.158020,35.741211,,,,,,
1465847139.30,2.405513,0.028137,-1.526847,-0.093582,-0.442908,0.006877,0.671122,-0.028133,0.740813,-0.796214,-0.036229,0.496477,-16.769230,371.158020,35.741211,,,,,,
1465847139.31,2.407614,0.029488,-1.526328,-0.152257,0.414886,0.064241,0.669538,-0.029483,0.742193,-0.880796,-0.055844,0.588313,-16.769230,371.158020,35.741211,,,,,,
1465847139.32,2.416775,0.031410,-1.526321,-0.125015,1.064432,0.155995,0.662672,-0.031405,0.748251,-0.835402,-0.009565,0.609812,-16.416252,371.059692,36.907059,,,,,,
1465847139.33,2.430083,0.033237,-1.527398,-0.061877,1.399789,0.205048,0.652617,-0.033231,0.756958,-0.514602,-0.003390,0.383865,-16.416252,371.059692,36.907059,,,,,,
1465847139.34,2.444554,0.035143,-1.528103,-0.111814,1.421159,0.165479,0.641553,-0.035136,0.766273,-0.171079,-0.000600,0.199547,-16.416252,371.059692,36.907059,,,,,,
1465847139.35,2.456948,0.036971,-1.528865,-0.079163,1.151421,0.175719,0.631966,-0.036963,0.774115,0.126274,0.009665,-0.046850,-15.816740,370.982269,37.932926,,,,,,
1465847139.36,2.465576,0.038475,-1.529385,-0.092302,0.772519,0.121667,0.625228,-0.038466,0.779494,0.314683,0.012160,-0.177138,-15.816740,370.982269,37.932926,,,,,,
1465847139.37,2.470549,0.039549,-1.529563,-0.062842,0.397849,0.065501,0.621317,-0.039539,0.782561,0.438390,0.042194,-0.236586,-15.816740,370.982269,37.932926,,,,,,
1465847139.38,2.472218,0.040292,-1.529544,-0.064223,0.079423,0.025983,0.619992,-0.040281,0.783574,0.508090,0.063169,-0.326634,-50.194641,368.694214,47.488590,,,,,,
1465847139.39,2.470948,0.040885,-1.528878,-0.084683,-0.190115,-0.026634,0.620972,-0.040874,0.782766,0.381958,0.057536,-0.207556,-50.194641,368.694214,47.488590,,,,,,
1465847139.40,2.467165,0.040718,-1.528441,0.008749,-0.438559,-0.048400,0.623933,-0.040706,0.780417,0.193831,0.040752,-0.035468,-50.194641,368.694214,47.488590,,,,,,
1465847139.41,2.461906,0.040472,-1.528298,0.004299,-0.541637,-0.016889,0.628034,-0.040461,0.777133,-0.003691,0.022272,0.045514,-50.027264,368.615509,48.269745,,,,,,
1465847139.42,2.456716,0.040503,-1.527991,-0.030745,-0.488494,-0.030031,0.632059,-0.040492,0.773862,-0.131845,-0.012365,0.084064,-50.027264,368.615509,48.269745,,,,,,
1465847139.43,2.453197,0.040442,-1.527669,-0.001789,-0.305908,-0.020502,0.634779,-0.040431,0.771635,-0.297484,0.007975,0.253710,-50.027264,368.615509,48.269745,,,,,,
1465847139.44,2.451588,0.040342,-1.528275,0.056847,-0.118218,0.058213,0.636023,-0.040331,0.770616,-0.388113,-0.014631,0.302214,-49.699738,368.585693,48.832504,,,,,,
1465847139.45,2.451907,0.040458,-1.528735,0.002852,0.088925,0.033442,0.635774,-0.040447,0.770815,-0.300249,-0.017033,0.229689,-49.699738,368.585693,48.832504,,,,,,
1465847139.46,2.467410,0.039028,-1.529574,0.051010,0.249357,0.013320,0.623784,-0.039018,0.780622,-0.165242,0.023500,0.188173,-49.699738,368.585693,48.832504,,,,,,
1465847139.47,2.470199,0.038489,-1.530349,0.095704,0.262020,0.033510,0.621617,-0.038480,0.782375,-0.044087,0.016385,0.082813,-50.099983,368.703949,47.512753,,,,,,
1465847139.48,2.471590,0.038243,-1.530669,0.009331,0.109249,0.003513,0.620534,-0.038234,0.783247,0.082698,-0.039785,-0.085569,-50.099983,368.703949,47.512753,,,,,,
1465847139.49,2.472203,0.038075,-1.530607,0.024225,0.054107,-0.024867,0.620058,-0.038065,0.783632,0.115965,0.006068,-0.058702,-50.099983,368.703949,47.512753,,,,,,
1465847139.50,2.469287,0.035451,-1.530879,0.107375,0.165467,-0.002069,0.622400,-0.035444,0.781896,0.096487,0.034086,-0.013861,-50.159492,368.783539,46.827408,,,,,,
1465847139.51,2.470783,0.034652,-1.531326,0.061608,0.141133,-0.025380,0.621247,-0.034645,0.782849,0.188049,-0.025307,-0.155758,-50.159492,368.783539,46.827408,,,,,,
1465847139.52,2.471402,0.034334,-1.531110,0.013568,0.020147,-0.037442,0.620769,-0.034327,0.783241,0.226048,0.006892,-0.186623,-50.159492,368.783539,46.827408,,,,,,
1465847139.53,2.471055,0.033679,-1.530905,0.043358,-0.042438,-0.064696,0.621055,-0.033673,0.783044,0.218042,0.018048,-0.193154,-50.918018,368.832550,45.606968,,,,,,
1465847139.54,2.460324,0.032352,-1.531124,0.118736,-0.084172,0.019731,0.629449,-0.032346,0.776368,0.194815,0.009992,-0.086060,-50.918018,368.832550,45.606968,,,,,,
1465847139.55,2.457731,0.031440,-1.531268,0.037741,-0.315309,-0.086409,0.631479,-0.031435,0.774756,0.385993,-0.051374,-0.331625,-50.918018,368.832550,45.606968,,,,,,
1465847139.56,2.453508,0.030785,-1.529752,-0.050601,-0.414860,-0.163578,0.634758,-0.030780,0.772098,0.227333,0.044971,-0.226474,-50.866062,368.840942,45.597015,,,,,,
1465847139.57,2.451215,0.029993,-1.528877,0.024138,-0.144319,-0.099204,0.636542,-0.029989,0.770659,-0.089667,-0.009699,0.023988,-50.866062,368.840942,45.597015,,,,,,
1465847139.58,2.465766,0.031614,-1.529213,0.017871,0.093371,-0.016605,0.625230,-0.031609,0.779800,-0.226579,-0.041572,0.167877,-50.866062,368.840942,45.597015,,,,,,
1465847139.59,2.477374,0.032830,-1.529278,-0.021511,0.083932,-0.031484,0.616112,-0.032824,0.786974,-0.174141,-0.025312,0.128233,-51.835938,368.712372,45.544868,,,,,,
1465847139.60,2.488404,0.031479,-1.529607,0.049763,0.062660,-0.011057,0.607421,-0.031474,0.793756,-0.165816,0.021372,0.160727,-51.835938,368.712372,45.544868,,,,,,
1465847139.61,2.489794,0.031154,-1.530180,0.077522,0.164509,0.013879,0.606323,-0.031149,0.794608,-0.085678,0.010245,0.088937,-51.835938,368.712372,45.544868,,,,,,
1465847139.62,2.492129,0.031072,-1.530370,0.021299,0.298378,-0.007241,0.604467,-0.031067,0.796024,0.041513,0.004211,-0.053653,-52.768082,368.739899,44.232491,,,,,,
1465847139.63,2.495997,0.030768,-1.530262,0.020427,0.411000,-0.033495,0.601389,-0.030763,0.798364,0.124273,0.003190,-0.124444,-52.768082,368.739899,44.232491,,,,,,
1465847139.64,2.500159,0.030277,-1.530170,0.037455,0.403562,-0.034495,0.598071,-0.030273,0.800871,0.143155,0.010741,-0.100966,-52.768082,368.739899,44.232491,,,,,,
1465847139.65,2.502889,0.029913,-1.529994,0.007423,0.215632,-0.036540,0.595889,-0.029909,0.802510,0.182584,-0.012526,-0.137440,-53.382431,368.781982,43.130882,,,,,,
1465847139.67,2.495588,0.030146,-1.529174,-0.013445,-0.279207,-0.024941,0.601727,-0.030141,0.798133,0.137500,-0.002787,-0.086051,-53.382431,368.781982,43.130882,,,,,,
1465847139.66,2.497844,0.030120,-1.529496,-0.027004,-0.048798,-0.023206,0.599926,-0.030116,0.799488,0.175983,-0.022252,-0.150334,-53.382431,368.781982,43.130882,,,,,,
1465847139.68,2.491593,0.029968,-1.529119,0.015088,-0.431091,-0.012251,0.604914,-0.029963,0.795727,0.064916,0.016841,-0.009564,-53.516743,368.736084,43.356163,,,,,,
1465847139.69,2.486668,0.029889,-1.529009,-0.008421,-0.504335,-0.015009,0.608828,-0.029885,0.792740,0.020613,0.003289,0.007645,-53.516743,368.736084,43.356163,,,,,,
1465847139.70,2.477705,0.029947,-1.528515,-0.015775,-0.463937,-0.039752,0.615907,-0.029943,0.787250,-0.036439,0.005193,0.044568,-53.516743,368.736084,43.356163,,,,,,
1465847139.71,2.473781,0.029491,-1.528302,0.037593,-0.366266,-0.044569,0.619000,-0.029487,0.784837,-0.110577,0.035621,0.128478,-52.958248,368.668823,44.595974,,,,,,
1465847139.72,2.470858,0.028834,-1.528207,0.041984,-0.270688,-0.051550,0.621303,-0.028830,0.783040,-0.159282,0.026602,0.156291,-52.958248,368.668823,44.595974,,,,,,
1465847139.73,2.468548,0.028116,-1.527992,0.047517,-0.117771,-0.061020,0.623123,-0.028112,0.781619,-0.240295,0.020940,0.201795,-52.958248,368.668823,44.595974,,,,,,
1465847139.74,2.470126,0.026893,-1.528389,0.139372,0.156055,-0.034970,0.621910,-0.026890,0.782627,-0.301979,0.038838,0.269070,-52.996220,368.650024,44.706142,,,,,,
1465847139.75,2.473246,0.025960,-1.528935,0.069299,0.350339,-0.013905,0.619480,-0.025957,0.784583,-0.229878,-0.041411,0.131600,-52.996220,368.650024,44.706142,,,,,,
1465847139.76,2.476545,0.026317,-1.528572,-0.071335,0.302587,0.001157,0.616883,-0.026314,0.786615,-0.097260,-0.089836,-0.014490,-52.996220,368.650024,44.706142,,,,,,
1465847139.77,2.478769,0.026523,-1.528575,0.010497,0.201640,0.014645,0.615129,-0.026520,0.787981,-0.081041,-0.009079,0.005064,-53.715801,368.679413,43.591309,,,,,,
1465847139.78,2.483905,0.025337,-1.529188,0.044456,0.146362,0.038441,0.611093,-0.025334,0.791154,0.061683,-0.002818,-0.019822,-53.715801,368.679413,43.591309,,,,,,
1465847139.79,2.484749,0.025384,-1.529427,0.000751,0.061516,0.011254,0.610424,-0.025381,0.791668,0.139591,0.027517,-0.058468,-53.715801,368.679413,43.591309,,,,,,
1465847139.81,2.474384,0.022576,-1.529566,0.097421,-0.183741,-0.027565,0.618638,-0.022574,0.785352,0.232452,0.045004,-0.089643,-54.075634,368.722870,42.770851,,,,,,
1465847139.80,2.484457,0.025095,-1.529430,0.040059,-0.062641,-0.021991,0.610659,-0.025092,0.791496,0.163449,0.035529,-0.054542,-54.075634,368.722870,42.770851,,,,,,
1465847139.82,2.471765,0.021412,-1.529733,0.104834,-0.287678,-0.071612,0.620709,-0.021411,0.783749,0.303577,0.051303,-0.132366,-54.075634,368.722870,42.770851,,,,,,
1465847139.83,2.467785,0.019593,-1.529805,0.160106,-0.440470,-0.119564,0.623846,-0.019592,0.781302,0.311838,0.032882,-0.171591,-54.292847,368.760681,42.165657,,,,,,
1465847139.84,2.462213,0.017374,-1.529530,0.146193,-0.585778,-0.174017,0.628216,-0.017373,0.777845,0.221562,0.037636,-0.110502,-54.292847,368.760681,42.165657,,,,,,
1465847139.85,2.455946,0.014990,-1.529269,0.185512,-0.632541,-0.165169,0.633102,-0.014990,0.773923,0.211212,0.008505,-0.142072,-54.292847,368.760681,42.165657,,,,,,
1465847139.86,2.449611,0.012329,-1.529425,0.212111,-0.637880,-0.158723,0.638016,-0.012328,0.769924,0.286804,-0.026749,-0.218487,-54.881844,368.741028,41.570648,,,,,,
1465847139.87,2.441841,0.010156,-1.529207,0.134154,-0.817296,-0.154482,0.643995,-0.010156,0.764963,0.314730,-0.045402,-0.253015,-54.881844,368.741028,41.570648,,,,,,
1465847139.88,2.431348,0.008263,-1.528892,0.129483,-1.132672,-0.143993,0.651997,-0.008263,0.758177,0.320400,-0.015831,-0.225492,-54.881844,368.741028,41.570648,,,,,,
1465847139.90,2.402401,0.004694,-1.528663,0.091660,-1.526670,-0.109626,0.673684,-0.004694,0.739005,0.225853,-0.027380,-0.196097,-55.941818,368.662201,40.850521,,,,,,
1465847139.89,2.417671,0.006259,-1.528826,0.148244,-1.441690,-0.133521,0.662315,-0.006258,0.749200,0.264718,-0.039457,-0.212746,-55.941818,368.662201,40.850521,,,,,,
1465847139.91,2.387968,0.003400,-1.528643,0.099236,-1.384469,-0.082835,0.684282,-0.003400,0.729209,0.254179,-0.025592,-0.231590,-55.941818,368.662201,40.850521,,,,,,
1465847139.92,2.375119,0.002336,-1.528788,0.073778,-1.267728,-0.058046,0.693597,-0.002336,0.720359,0.326041,-0.035033,-0.300666,-55.684677,368.624420,41.537144,,,,,,
1465847139.93,2.362210,0.001858,-1.528674,0.019367,-1.312370,-0.031209,0.702839,-0.001858,0.711347,0.420330,-0.042774,-0.330197,-55.684677,368.624420,41.537144,,,,,,
1465847139.94,2.347401,0.001558,-1.528593,0.009501,-1.541709,-0.031909,0.713297,-0.001558,0.700860,0.451330,-0.037352,-0.341958,-55.684677,368.624420,41.537144,,,,,,
1465847139.95,2.330771,0.001313,-1.526892,-0.163901,-1.670734,-0.186682,0.724853,-0.001313,0.688902,-0.017288,0.009857,0.096132,-54.159760,368.596405,43.743530,,,,,,
1465847139.96,2.316430,0.001235,-1.524582,-0.102932,-1.315289,-0.105824,0.734658,-0.001235,0.678437,-0.366799,0.022689,0.423583,-54.159760,368.596405,43.743530,,,,,,
1465847139.97,2.307114,0.000600,-1.526496,0.241152,-0.827633,0.109673,0.740946,-0.000600,0.671564,0.085439,-0.039409,0.001913,-54.159760,368.596405,43.743530,,,,,,
1465847139.98,2.298622,0.000769,-1.526686,-0.110084,-0.908902,-0.004064,0.746623,-0.000769,0.665248,0.230032,-0.011469,-0.054194,-53.869411,368.313477,46.404388,,,,,,
1465847139.99,2.283666,0.001415,-1.525161,-0.138597,-1.648830,-0.048416,0.756487,-0.001415,0.654007,0.065748,0.042461,0.038300,-53.869411,368.313477,46.404388,,,,,,
1465847140.00,2.266073,0.001192,-1.525706,0.134662,-1.834982,0.025406,0.767876,-0.001192,0.640598,0.057167,-0.073332,0.001828,-53.869411,368.313477,46.404388,,,,,,
1465847140.01,2.250036,0.001356,-1.525776,-0.082067,-1.454748,0.022806,0.778050,-0.001356,0.628201,0.104640,0.069960,0.173160,-51.212490,368.392273,48.728951,,,,,,
1465847140.02,2.235252,0.001480,-1.525228,-0.049981,-1.438667,-0.039001,0.787252,-0.001480,0.616630,0.023600,0.037384,0.033135,-51.212490,368.392273,48.728951,,,,,,
1465847140.03,2.222444,0.001351,-1.525547,0.116038,-1.415539,0.015306,0.795085,-0.001351,0.606496,0.129521,-0.093422,-0.026006,-51.212490,368.392273,48.728951,,,,,,
1465847140.04,2.204612,0.001047,-1.525688,-0.059005,-1.811408,-0.017513,0.805773,-0.001047,0.592224,0.085035,0.094416,0.119019,-51.212490,368.392273,48.728951,,,,,,
1465847140.05,2.185739,0.001377,-1.525369,0.003654,-1.896457,0.009695,0.816806,-0.001377,0.576911,0.041883,-0.084347,0.008477,-51.212490,368.392273,48.728951,,,,,,
1465847140.06,2.168795,0.001113,-1.525620,0.030653,-1.623534,-0.011150,0.826464,-0.001113,0.562989,0.036100,0.018630,0.101714,-51.212490,368.392273,48.728951,,,,,,
1465847140.07,2.154250,0.001173,-1.525403,-0.038267,-1.370831,0.002098,0.834564,-0.001173,0.550909,0.039169,0.030730,0.122614,-46.279579,368.385559,53.482506,,,,,,
1465847140.09,2.124568,0.000713,-1.524411,-0.116841,-1.349295,-0.092851,0.850547,-0.000713,0.525899,-0.250571,0.027263,0.204174,-46.279579,368.385559,53.482506,,,,,,
1465847140.08,2.139387,0.000998,-1.525658,0.043482,-1.601210,-0.022986,0.842660,-0.000998,0.538444,0.024207,-0.074258,-0.072380,-46.279579,368.385559,53.482506,,,,,,
1465847140.10,2.119442,0.000787,-1.524252,0.020563,-0.250753,0.030259,0.853232,-0.000787,0.521532,-0.141577,0.021874,0.207304,-44.714828,368.387329,54.785618,,,,,,
1465847140.11,2.121331,0.000445,-1.524766,0.047904,0.247353,-0.021802,0.852245,-0.000445,0.523143,-0.075603,-0.037274,0.054707,-44.714828,368.387329,54.785618,,,,,,
1465847140.12,2.123577,0.000619,-1.524059,-0.095880,0.214504,-0.019611,0.851067,-0.000619,0.525056,-0.004525,-0.014610,0.014083,-43.950058,368.286407,56.067745,,,,,,
1465847140.13,2.126423,0.000564,-1.523494,-0.012684,0.290982,-0.045554,0.849570,-0.000564,0.527476,0.066980,0.029113,0.082784,-43.950058,368.286407,56.067745,,,,,,
1465847140.15,2.136973,-0.000465,-1.523136,-0.010514,0.381155,-0.008863,0.843958,0.000465,0.536409,0.044226,-0.037346,0.029890,-43.950058,368.286407,56.067745,,,,,,
1465847140.14,2.133548,-0.000396,-1.523318,0.005392,0.266580,-0.047513,0.845790,0.000396,0.533515,-0.024837,0.009354,0.102730,-43.950058,368.286407,56.067745,,,,,,
1465847140.16,2.141619,-0.000597,-1.522822,-0.026314,0.468315,-0.040294,0.841456,0.000597,0.540325,0.142629,0.017164,0.023655,-45.288498,368.210144,55.500771,,,,,,
1465847140.17,2.144059,-0.001030,-1.522265,-0.019210,0.142420,-0.068048,0.840136,0.001030,0.542375,0.059278,-0.000145,0.037749,-45.288498,368.210144,55.500771,,,,,,
1465847140.18,2.143869,-0.001338,-1.521917,-0.007778,-0.031806,-0.036075,0.840238,0.001338,0.542216,-0.008726,0.006139,0.078420,-45.895824,368.173096,55.247143,,,,,,
1465847140.19,2.147317,-0.001187,-1.521810,0.003145,0.202835,-0.029019,0.838364,0.001187,0.545110,0.005203,-0.009045,0.059718,-45.895824,368.173096,55.247143,,,,,,
1465847140.20,2.151450,-0.001414,-1.521397,-0.028434,0.471522,-0.043509,0.836104,0.001414,0.548570,0.006227,-0.003214,0.065368,-45.895824,368.173096,55.247143,,,,,,
1465847140.21,2.156671,-0.001666,-1.521012,-0.011342,0.520350,-0.041669,0.833228,0.001666,0.552927,0.027566,-0.000613,0.045934,-45.895824,368.173096,55.247143,,,,,,
1465847140.22,2.161552,-0.001919,-1.520713,-0.014601,0.474683,-0.037128,0.830519,0.001919,0.556988,0.032656,-0.005688,0.055271,-46.975658,368.063904,55.066807,,,,,,
1465847140.23,2.166046,-0.001756,-1.520395,-0.025255,0.495878,-0.021305,0.828007,0.001756,0.560715,0.070873,-0.008501,0.029083,-46.975658,368.063904,55.066807,,,,,,
1465847140.24,2.171289,-0.002021,-1.519949,-0.014518,0.516135,-0.053354,0.825056,0.002021,0.565048,0.065814,0.012886,0.063248,-46.975658,368.063904,55.066807,,,,,,
1465847140.25,2.176144,-0.002400,-1.519608,-0.011365,0.491697,-0.047876,0.822302,0.002400,0.569047,0.006083,-0.008992,0.064224,-48.544472,367.953918,54.437691,,,,,,
1465847140.26,2.182258,-0.002674,-1.519261,-0.006918,0.652010,-0.042490,0.818807,0.002674,0.574063,0.016688,-0.007221,0.064594,-48.544472,367.953918,54.437691,,,,,,
1465847140.27,2.190964,-0.003138,-1.518894,-0.003375,0.910063,-0.056878,0.813777,0.003138,0.581168,0.016835,0.013692,0.095528,-49.480167,367.897949,53.971355,,,,,,
1465847140.28,2.201853,-0.003527,-1.518733,0.010717,1.141473,-0.038091,0.807400,0.003527,0.589995,0.091191,-0.018649,0.050035,-49.480167,367.897949,53.971355,,,,,,
1465847140.29,2.213776,-0.003919,-1.518339,-0.014738,1.179781,-0.063904,0.800306,0.003919,0.599579,0.193956,-0.008909,0.036896,-49.480167,367.897949,53.971355,,,,,,
1465847140.30,2.223684,-0.004476,-1.517709,-0.013967,0.908024,-0.085616,0.794325,0.004476,0.607477,0.198244,0.000605,0.040854,-50.896385,367.851257,52.963253,,,,,,
1465847140.31,2.230966,-0.004997,-1.517437,0.019755,0.693411,-0.043788,0.789878,0.004997,0.613244,0.213784,-0.011742,0.061180,-50.896385,367.851257,52.963253,,,,,,
1465847140.32,2.237219,-0.005634,-1.517210,0.017561,0.580967,-0.081405,0.786026,0.005634,0.618168,0.308594,-0.011295,0.029278,-50.896385,367.851257,52.963253,,,,,,
1465847140.33,2.241520,-0.006229,-1.516622,-0.016762,0.390904,-0.073860,0.783357,0.006229,0.621541,0.278563,-0.035648,0.059840,-53.692009,367.718414,51.092209,,,,,,
1465847140.34,2.243857,-0.007022,-1.516047,0.019233,0.160589,-0.113894,0.781898,0.007022,0.623367,0.285973,0.004895,0.088502,-53.692009,367.718414,51.092209,,,,,,
1465847140.35,2.244405,-0.008115,-1.515542,0.021236,0.074555,-0.103772,0.781550,0.008115,0.623790,0.107809,-0.038175,0.150029,-53.692009,367.718414,51.092209,,,,,,
1465847140.36,2.247776,-0.008931,-1.515240,0.039740,0.430191,-0.084695,0.779437,0.008931,0.626417,0.199109,-0.005467,0.161898,-54.695393,367.617737,50.751221,,,,,,
1465847140.37,2.253473,-0.010188,-1.514977,0.052777,0.579999,-0.121813,0.775847,0.010188,0.630839,0.264681,-0.033900,0.145360,-54.695393,367.617737,50.751221,,,,,,
1465847140.38,2.257716,-0.011319,-1.514265,0.010984,0.339037,-0.137374,0.773154,0.011319,0.634118,0.285364,-0.014477,0.138725,-54.695393,367.617737,50.751221,,,,,,
1465847140.39,2.259432,-0.012525,-1.513593,0.029903,0.151074,-0.130854,0.772053,0.012524,0.635434,0.211528,-0.016385,0.206363,-54.695393,367.617737,50.751221,,,,,,
1465847140.40,2.261859,-0.013723,-1.513290,0.059833,0.281596,-0.108225,0.770496,0.013723,0.637297,0.236080,-0.005925,0.241777,-57.029015,367.434509,49.494144,,,,,,
1465847140.41,2.265136,-0.014999,-1.512761,0.026947,0.332658,-0.137318,0.768390,0.014998,0.639806,0.213238,-0.016189,0.237819,-57.029015,367.434509,49.494144,,,,,,
1465847140.42,2.268546,-0.015983,-1.512136,0.021571,0.340009,-0.106501,0.766192,0.015983,0.642413,0.230878,0.005013,0.276258,-58.141869,367.330139,48.971249,,,,,,
1465847140.43,2.270567,-0.017328,-1.511780,0.066083,0.128767,-0.133872,0.764875,0.017327,0.643946,0.223040,0.014091,0.239706,-58.141869,367.330139,48.971249,,,,,,
1465847140.44,2.270872,-0.018270,-1.511201,-0.003325,0.032069,-0.093950,0.764666,0.018269,0.644168,0.140089,0.011913,0.244931,-58.141869,367.330139,48.971249,,,,,,
1465847140.45,2.271391,-0.019036,-1.510575,0.012687,0.040597,-0.108890,0.764321,0.019035,0.644555,0.155861,0.047356,0.257148,-58.141869,367.330139,48.971249,,,,,,
1465847140.46,2.271157,-0.019764,-1.510119,0.002925,-0.030662,-0.063746,0.764460,0.019763,0.644368,0.052938,0.042448,0.294979,-60.350456,367.107544,47.957958,,,,,,
1465847140.48,2.268475,-0.020384,-1.509432,-0.009080,-0.237755,-0.045428,0.766176,0.020383,0.642307,0.096556,0.026630,0.359081,-61.038353,367.002350,47.892414,,,,,,
1465847140.47,2.270506,-0.020029,-1.509786,-0.005702,-0.094407,-0.048452,0.764876,0.020028,0.643866,0.111345,0.039436,0.312234,-61.038353,367.002350,47.892414,,,,,,
1465847140.49,2.264288,-0.020689,-1.509098,-0.007248,-0.474538,-0.043941,0.768854,0.020687,0.639089,0.032919,0.022525,0.349756,-61.038353,367.002350,47.892414,,,,,,
1465847140.50,2.259870,-0.020792,-1.508856,-0.009351,-0.416202,-0.020891,0.771668,0.020791,0.635685,0.013442,0.016669,0.437298,-61.245182,366.940277,48.103539,,,,,,
1465847140.51,2.255721,-0.021144,-1.508695,0.014095,-0.424664,-0.036781,0.774293,0.021142,0.632474,-0.019777,0.004218,0.441959,-61.245182,366.940277,48.103539,,,,,,
1465847140.52,2.250920,-0.021466,-1.508539,0.009724,-0.508553,-0.033066,0.777316,0.021464,0.628744,-0.042788,-0.005091,0.464731,-61.245182,366.940277,48.103539,,,,,,
1465847140.53,2.245247,-0.021869,-1.508400,0.016040,-0.595574,-0.050610,0.780863,0.021868,0.624319,-0.040003,-0.019502,0.499827,-61.245182,366.940277,48.103539,,,,,,
1465847140.54,2.237833,-0.022584,-1.508287,0.038201,-0.765454,-0.056973,0.785458,0.022582,0.618502,-0.142194,-0.001967,0.436521,-61.245182,366.940277,48.103539,,,,,,
1465847140.55,2.230719,-0.023156,-1.508244,0.028709,-0.687946,-0.054276,0.789828,0.023154,0.612891,-0.161288,-0.030097,0.491342,-60.635448,366.816620,49.789665,,,,,,
1465847140.56,2.223649,-0.024071,-1.508178,0.061711,-0.740968,-0.084779,0.794124,0.024069,0.607279,-0.192852,0.002085,0.489569,-60.635448,366.816620,49.789665,,,,,,
1465847140.57,2.215280,-0.025037,-1.508438,0.075361,-0.837695,-0.049032,0.799159,0.025035,0.600598,-0.286128,-0.027995,0.440983,-60.635448,366.816620,49.789665,,,,,,
1465847140.58,2.206652,-0.026017,-1.508463,0.058361,-0.881097,-0.093484,0.804291,0.026014,0.593665,-0.296143,-0.013212,0.447045,-60.635448,366.816620,49.789665,,,,,,
1465847140.60,2.190977,-0.028256,-1.509125,0.091568,-0.688983,-0.074431,0.813449,0.028252,0.580950,-0.417239,-0.012490,0.436307,-60.635448,366.816620,49.789665,,,,,,
1465847140.59,2.198188,-0.027142,-1.508693,0.099894,-0.822807,-0.061874,0.809263,0.027139,0.586819,-0.408232,-0.006280,0.457126,-60.635448,366.816620,49.789665,,,,,,
1465847140.61,2.184224,-0.029373,-1.509495,0.099027,-0.672019,-0.067079,0.817327,0.029369,0.575425,-0.475362,-0.005016,0.390197,-59.752407,366.779236,51.114761,,,,,,
1465847140.62,2.178118,-0.030470,-1.510034,0.105515,-0.572248,-0.054925,0.820798,0.030465,0.570405,-0.546995,-0.019418,0.407928,-59.752407,366.779236,51.114761,,,,,,
1465847140.63,2.173471,-0.031584,-1.510743,0.136541,-0.430023,-0.040883,0.823412,0.031578,0.566565,-0.591158,0.010917,0.401651,-59.568069,366.805756,51.139931,,,,,,
1465847140.64,2.170378,-0.032834,-1.511642,0.132547,-0.261121,-0.068558,0.825127,0.032828,0.563993,-0.594948,-0.047293,0.324389,-59.568069,366.805756,51.139931,,,,,,
1465847140.65,2.169296,-0.033977,-1.512263,0.122129,-0.057309,-0.051749,0.825705,0.033970,0.563079,-0.658301,-0.029393,0.332383,-59.568069,366.805756,51.139931,,,,,,
1465847140.66,2.170097,-0.035260,-1.513352,0.163879,0.134836,-0.045461,0.825217,0.035253,0.563715,-0.660193,-0.036702,0.226538,-59.568069,366.805756,51.139931,,,,,,
1465847140.67,2.172080,-0.036453,-1.514188,0.126732,0.232535,-0.043982,0.824062,0.036445,0.565326,-0.717785,-0.025260,0.181775,-24.199154,364.838440,53.380310,,,,,,
1465847140.68,2.175233,-0.037485,-1.514941,0.123664,0.341887,-0.039349,0.822244,0.037476,0.567899,-0.750147,-0.001450,0.140566,-24.199154,364.838440,53.380310,,,,,,
1465847140.69,2.180495,-0.038168,-1.516157,0.135600,0.642160,0.035420,0.819223,0.038158,0.572204,-0.815332,-0.021511,0.046128,-24.199154,364.838440,53.380310,,,,,,
1465847140.70,2.188839,-0.038810,-1.516932,0.100830,0.852556,-0.017027,0.814401,0.038800,0.579004,-0.738824,0.068622,0.025045,-24.814886,364.951263,52.315842,,,,,,
1465847140.72,2.211139,-0.039229,-1.519555,0.118178,1.244106,0.069948,0.801274,0.039219,0.597010,-0.734944,0.035778,-0.154734,-24.814886,364.951263,52.315842,,,,,,
1465847140.71,2.199050,-0.039050,-1.518226,0.120135,1.096532,0.064489,0.808439,0.039040,0.587284,-0.808042,-0.041741,-0.041737,-24.814886,364.951263,52.315842,,,,,,
1465847140.73,2.225097,-0.039314,-1.520609,0.084393,1.432132,0.043188,0.792861,0.039304,0.608134,-0.697478,-0.012769,-0.191280,-26.190691,365.226593,49.656139,,,,,,
1465847140.74,2.241490,-0.039445,-1.521615,0.091130,1.733640,0.056206,0.782782,0.039435,0.621046,-0.780478,-0.018012,-0.203672,-26.190691,365.226593,49.656139,,,,,,
1465847140.75,2.262315,-0.039510,-1.522893,0.101276,2.238956,0.088174,0.769677,0.039500,0.637210,-0.777459,-0.013957,-0.278308,-26.190691,365.226593,49.656139,,,,,,
1465847140.76,2.289251,-0.039432,-1.524052,0.080748,2.823005,0.067459,0.752238,0.039421,0.657711,-0.636760,-0.051903,-0.322689,-27.284044,365.341827,48.198349,,,,,,
1465847140.77,2.320107,-0.039412,-1.524934,0.059876,3.162787,0.067436,0.731590,0.039401,0.680606,-0.585166,-0.045780,-0.394030,-27.284044,365.341827,48.198349,,,,,,
1465847140.78,2.352217,-0.039237,-1.526052,0.070528,3.217907,0.099035,0.709367,0.039227,0.703747,-0.461183,-0.009244,-0.502926,-27.284044,365.341827,48.198349,,,,,,
1465847140.79,2.383977,-0.038608,-1.527936,0.089408,3.149667,0.199540,0.686679,0.038599,0.725935,-0.213702,0.011603,-0.662825,-31.255316,365.579071,43.785831,,,,,,
1465847140.80,2.414050,-0.037525,-1.529398,-0.011910,2.962931,0.167612,0.664569,0.037516,0.746285,0.109525,0.028600,-0.863793,-31.255316,365.579071,43.785831,,,,,,
1465847140.81,2.442479,-0.036072,-1.530691,-0.016419,2.834332,0.213121,0.643121,0.036064,0.764915,0.241157,-0.002754,-0.810173,-31.255316,365.579071,43.785831,,,,,,
1465847140.82,2.470403,-0.034935,-1.532217,0.004895,2.774990,0.166679,0.621539,0.034928,0.782604,0.571958,-0.020921,-0.810726,-32.577335,365.739166,41.421326,,,,,,
1465847140.83,2.497492,-0.033775,-1.532526,-0.099377,2.685043,0.074532,0.600137,0.033769,0.799184,0.691504,-0.041337,-0.730397,-32.577335,365.739166,41.421326,,,,,,
1465847140.84,2.524121,-0.032604,-1.532318,-0.098279,2.669189,0.048021,0.578668,0.032598,0.814912,0.615531,-0.024008,-0.567124,-32.577335,365.739166,41.421326,,,,,,
1465847140.85,2.551140,-0.031749,-1.532238,-0.073734,2.696813,0.037228,0.556457,0.031744,0.830270,0.532731,0.014505,-0.414407,-35.021713,365.838959,38.437912,,,,,,
1465847140.86,2.577851,-0.030489,-1.531484,-0.179082,2.667270,-0.011657,0.534104,0.030484,0.844869,0.355346,0.032596,-0.381017,-35.021713,365.838959,38.437912,,,,,,
1465847140.87,2.604289,-0.029103,-1.530134,-0.169484,2.621707,-0.047553,0.511605,0.029099,0.858728,-0.016930,-0.002045,-0.161645,-35.021713,365.838959,38.437912,,,,,,
1465847140.88,2.629808,-0.028526,-1.529274,-0.076982,2.522905,-0.043647,0.489535,0.028523,0.871517,-0.381457,-0.015995,-0.132931,-36.878620,365.772308,37.319511,,,,,,
1465847140.89,2.654013,-0.027868,-1.528983,-0.068788,2.368760,0.022259,0.468307,0.027864,0.883126,-0.671706,-0.038530,-0.197305,-36.878620,365.772308,37.319511,,,,,,
1465847140.90,2.676277,-0.027002,-1.529342,-0.056378,2.182754,0.090498,0.448542,0.026999,0.893354,-0.757975,-0.035925,-0.395734,-36.878620,365.772308,37.319511,,,,,,
1465847140.92,2.712469,-0.025952,-1.531685,0.031084,1.573033,0.167856,0.415934,0.025949,0.909024,-0.516734,-0.098825,-0.666898,-40.493073,365.618500,35.008274,,,,,,
1465847140.91,2.696087,-0.026331,-1.530272,-0.003542,1.900223,0.115741,0.430765,0.026328,0.902080,-0.672144,-0.083701,-0.509456,-40.493073,365.618500,35.008274,,,,,,
1465847140.93,2.730016,-0.024550,-1.534956,-0.010543,1.844266,0.387519,0.399935,0.024548,0.916215,-0.036867,-0.111828,-0.660508,-40.493073,365.618500,35.008274,,,,,,
1465847140.94,2.745782,-0.023443,-1.536042,-0.078528,1.429008,0.050496,0.385450,0.023441,0.922431,0.709749,0.069592,-0.629279,-40.796772,365.725098,33.510376,,,,,,
1465847140.95,2.754319,-0.022990,-1.535651,-0.028245,0.663611,-0.012778,0.377565,0.022988,0.925698,0.576506,-0.030725,-0.400811,-40.796772,365.725098,33.510376,,,,,,
1465847140.96,2.758942,-0.023413,-1.536130,0.071490,0.454265,0.032277,0.373278,0.023411,0.927424,0.369916,-0.037617,-0.417658,-40.796772,365.725098,33.510376,,,,,,
1465847140.97,2.765866,-0.023223,-1.536517,-0.040969,0.811026,0.052281,0.366849,0.023221,0.929991,0.233004,-0.029249,-0.512052,-40.458099,365.912811,31.829000,,,,,,
1465847140.98,2.777221,-0.022278,-1.537021,-0.063950,1.222914,0.086930,0.356274,0.022277,0.934116,0.258823,-0.003447,-0.518253,-40.458099,365.912811,31.829000,,,,,,
1465847140.99,2.790161,-0.021484,-1.537670,-0.051103,1.279184,0.086590,0.344163,0.021483,0.938664,0.358702,0.011385,-0.456517,-40.458099,365.912811,31.829000,,,,,,
1465847141.00,2.801270,-0.020556,-1.538245,-0.071620,1.029705,0.075361,0.333720,0.020555,0.942448,0.447057,-0.016496,-0.386402,-42.561745,365.479065,14.069996,,,,,,
1465847141.01,2.808592,-0.019803,-1.538461,-0.061375,0.666637,0.051037,0.326816,0.019802,0.944881,0.428372,-0.019756,-0.407710,-42.561745,365.479065,14.069996,,,,,,
1465847141.02,2.816219,-0.018848,-1.539326,-0.067707,0.835253,0.127678,0.319606,0.018846,0.947363,0.359578,-0.029131,-0.418387,-42.561745,365.479065,14.069996,,,,,,
1465847141.04,2.834248,-0.015993,-1.540451,-0.142288,0.759964,0.105722,0.302491,0.015993,0.953018,0.519012,-0.007097,-0.420090,-41.879227,365.586151,13.316795,,,,,,
1465847141.03,2.826038,-0.017561,-1.539960,-0.110027,0.980861,0.083080,0.310296,0.017560,0.950478,0.509056,0.016955,-0.395302,-41.879227,365.586151,13.316795,,,,,,
1465847141.05,2.839315,-0.014396,-1.541202,-0.121442,0.413785,0.115365,0.297665,0.014395,0.954562,0.586796,-0.014548,-0.298571,-41.879227,365.586151,13.316795,,,,,,
1465847141.07,2.833427,-0.010646,-1.543637,-0.231572,-0.801927,0.123944,0.303294,0.010645,0.952838,0.832296,0.101171,-0.377032,-41.405170,365.636047,13.429081,,,,,,
1465847141.06,2.840161,-0.012895,-1.542975,-0.106217,0.078861,0.280342,0.296863,0.012894,0.954833,0.563595,-0.066468,-0.329390,-41.405170,365.636047,13.429081,,,,,,
1465847141.08,2.824472,-0.008373,-1.543710,-0.153957,-1.008813,0.050808,0.311821,0.008373,0.950104,0.801826,0.052418,0.025589,-41.405170,365.636047,13.429081,,,,,,
1465847141.10,2.792470,-0.011222,-1.543739,0.634739,-4.572297,-0.428477,0.342052,0.011221,0.939614,1.926625,0.615518,1.109962,-39.271282,365.763214,16.107796,,,,,,
1465847141.09,2.814406,-0.008036,-1.544493,-0.012200,-0.788207,0.114497,0.321370,0.008035,0.946920,0.601314,0.022772,0.018184,-39.271282,365.763214,16.107796,,,,,,
1465847141.11,2.731760,-0.007813,-1.547105,-0.799351,-4.980740,0.862767,0.398444,0.007813,0.917159,-0.770621,-1.649170,-2.822982,-39.271282,365.763214,16.107796,,,,,,
1465847141.12,2.722290,0.001729,-1.546344,-0.595214,-0.111677,-0.228822,0.407123,-0.001729,0.913372,1.221860,0.963338,0.436772,-39.082001,365.771729,16.373325,,,,,,
1465847141.13,2.727473,-0.001996,-1.544291,0.342257,0.637951,-0.015441,0.402384,0.001996,0.915469,-0.086542,-0.256315,0.623014,-39.082001,365.771729,16.373325,,,,,,
1465847141.14,2.728530,0.000843,-1.549246,-0.166818,-0.340080,0.508572,0.401416,-0.000843,0.915895,0.191785,-0.123928,0.264341,-39.082001,365.771729,16.373325,,,,,,
1465847141.15,2.709554,0.002196,-1.546430,-0.284602,-2.222383,-0.329171,0.418722,-0.002196,0.908112,1.250009,0.191969,-0.713638,-34.339432,365.948273,22.070206,,,,,,
1465847141.16,2.692601,0.004993,-1.544719,-0.255633,-1.390016,0.077579,0.434052,-0.004993,0.900874,0.433120,-0.196346,0.135411,-34.339432,365.948273,22.070206,,,,,,
1465847141.17,2.685782,0.003953,-1.546661,0.265022,-0.479355,0.110708,0.440187,-0.003953,0.897897,0.297499,-0.015533,0.430746,-34.339432,365.948273,22.070206,,,,,,
1465847141.19,2.674357,0.005345,-1.543491,-0.181137,-0.886211,-0.124558,0.450413,-0.005345,0.892804,0.604808,-0.071040,-0.014859,-34.357872,365.732208,25.375689,,,,,,
1465847141.18,2.682366,0.003933,-1.545885,-0.166691,-0.417940,-0.135996,0.443252,-0.003933,0.896389,0.702271,0.071209,-0.045879,-34.357872,365.732208,25.375689,,,,,,
1465847141.20,2.664859,0.004020,-1.543675,0.201903,-0.957784,-0.036442,0.458876,-0.004020,0.888491,0.501482,0.023063,0.272932,-34.357872,365.732208,25.375689,,,,,,
1465847141.21,2.655497,0.003228,-1.543371,-0.038602,-0.924633,-0.078404,0.467175,-0.003228,0.884159,0.574253,0.028070,0.093731,-34.143433,365.695740,26.177902,,,,,,
1465847141.22,2.646992,0.004280,-1.541316,-0.189543,-0.824575,-0.141984,0.474676,-0.004280,0.880150,0.595072,-0.018303,-0.020287,-34.143433,365.695740,26.177902,,,,,,
1465847141.23,2.639100,0.003964,-1.540375,0.038220,-0.784534,-0.071754,0.481608,-0.003964,0.876378,0.476598,-0.000263,0.249522,-34.384480,365.592834,27.276421,,,,,,
1465847141.24,2.630794,0.003569,-1.540044,-0.018321,-0.848255,-0.056509,0.488871,-0.003569,0.872349,0.531851,-0.015795,0.158230,-34.384480,365.592834,27.276421,,,,,,
1465847141.25,2.622190,0.004014,-1.538591,-0.124661,-0.843779,-0.120510,0.496358,-0.004014,0.868109,0.474498,-0.003615,0.248148,-34.384480,365.592834,27.276421,,,,,,
1465847141.26,2.615454,0.003971,-1.537090,-0.043435,-0.611264,-0.129338,0.502194,-0.003971,0.864746,0.388477,0.024814,0.381241,-34.471268,365.542969,27.830009,,,,,,
1465847141.27,2.610621,0.003263,-1.536244,0.023793,-0.453156,-0.105781,0.506369,-0.003263,0.862311,0.420633,-0.009142,0.292139,-34.471268,365.542969,27.830009,,,,,,
1465847141.28,2.606415,0.002951,-1.535147,-0.053857,-0.416975,-0.120987,0.509992,-0.002951,0.860174,0.442401,-0.018091,0.265024,-34.471268,365.542969,27.830009,,,,,,
1465847141.29,2.602331,0.002925,-1.533604,-0.070856,-0.403137,-0.130671,0.513501,-0.002925,0.858084,0.377109,-0.067235,0.335687,-35.437523,365.329224,29.379875,,,,,,
1465847141.31,2.594353,0.003235,-1.531456,-0.096437,-0.397862,-0.113698,0.520330,-0.003235,0.853959,0.412410,0.058625,0.438017,-35.437523,365.329224,29.379875,,,,,,
1465847141.30,2.598268,0.002945,-1.532663,-0.051835,-0.399104,-0.056166,0.516983,-0.002945,0.855991,0.424118,-0.034622,0.312604,-35.437523,365.329224,29.379875,,,,,,
1465847141.32,2.588883,0.002772,-1.529912,-0.018881,-0.592108,-0.149659,0.524994,-0.002772,0.851102,0.208130,-0.013844,0.446628,-35.974667,365.215240,30.134682,,,,,,
1465847141.33,2.584247,0.002452,-1.529260,-0.016672,-0.391666,-0.064693,0.528934,-0.002452,0.848659,0.244687,-0.018467,0.401173,-35.974667,365.215240,30.134682,,,,,,
1465847141.34,2.582770,0.002641,-1.528198,-0.081214,-0.082623,-0.076276,0.530186,-0.002641,0.847877,0.296443,-0.023604,0.385293,-35.974667,365.215240,30.134682,,,,,,
1465847141.35,2.582100,0.002777,-1.527105,-0.069476,-0.092132,-0.095365,0.530754,-0.002777,0.847521,0.310127,-0.011307,0.419919,-36.945122,365.006683,31.458229,,,,,,
1465847141.37,2.572062,0.002968,-1.525224,-0.039469,-0.778086,-0.085710,0.539234,-0.002968,0.842151,0.413113,0.009331,0.391156,-36.945122,365.006683,31.458229,,,,,,
1465847141.36,2.578902,0.002995,-1.526060,-0.069936,-0.409696,-0.062504,0.533461,-0.002995,0.845819,0.378267,-0.002849,0.396734,-36.945122,365.006683,31.458229,,,,,,
1465847141.38,2.561139,0.002840,-1.523757,-0.079277,-1.189902,-0.135325,0.548401,-0.002840,0.836210,0.233780,0.013308,0.474687,-37.414474,364.900665,32.126202,,,,,,
1465847141.39,2.547842,0.002569,-1.522701,-0.011423,-1.352509,-0.091660,0.559472,-0.002569,0.828846,0.165229,0.005957,0.503796,-37.414474,364.900665,32.126202,,,,,,
1465847141.40,2.534191,0.001940,-1.522416,0.037453,-1.369634,-0.051055,0.570735,-0.001940,0.821132,0.261891,-0.019270,0.417775,-37.414474,364.900665,32.126202,,,,,,
1465847141.41,2.518967,0.001607,-1.521606,-0.041522,-1.608342,-0.107117,0.583169,-0.001607,0.812349,0.262915,-0.011409,0.398680,-37.252716,364.727905,34.208641,,,,,,
1465847141.43,2.480270,0.000673,-1.519977,0.042076,-1.967364,-0.071784,0.614161,-0.000673,0.789180,0.196233,-0.010253,0.453617,-37.252716,364.727905,34.208641,,,,,,
1465847141.42,2.500065,0.001314,-1.520396,-0.036643,-1.959807,-0.102779,0.598420,-0.001314,0.801182,0.163925,-0.001555,0.465771,-37.252716,364.727905,34.208641,,,,,,
1465847141.44,2.460699,0.000066,-1.519301,-0.016433,-1.970444,-0.099498,0.629488,-0.000066,0.777011,0.191817,-0.015589,0.416456,-36.790680,364.630157,35.717491,,,,,,
1465847141.45,2.439489,-0.000269,-1.518126,-0.049673,-2.170023,-0.106795,0.645825,0.000269,0.763485,0.096103,-0.010218,0.459598,-36.790680,364.630157,35.717491,,,,,,
1465847141.47,2.394883,-0.001197,-1.517081,-0.008288,-2.222174,-0.069171,0.679227,0.001197,0.733927,0.121432,-0.010215,0.453039,-35.953018,364.582184,37.035717,,,,,,
1465847141.46,2.417136,-0.000736,-1.517540,0.011912,-2.242364,-0.066896,0.662729,0.000736,0.748859,0.093497,-0.005710,0.476467,-35.953018,364.582184,37.035717,,,,,,
1465847141.48,2.372144,-0.001519,-1.516210,-0.038157,-2.289015,-0.082620,0.695739,0.001519,0.718293,0.080262,-0.005914,0.481566,-35.953018,364.582184,37.035717,,,,,,
1465847141.49,2.348973,-0.002032,-1.515724,0.013948,-2.320933,-0.068530,0.712193,0.002032,0.701981,0.081233,-0.009601,0.491669,-35.953018,364.582184,37.035717,,,,,,
1465847141.50,2.325972,-0.002546,-1.515305,-0.000926,-2.298622,-0.070813,0.728149,0.002546,0.685415,0.104127,-0.010359,0.474024,-35.953018,364.582184,37.035717,,,,,,
1465847141.51,2.302815,-0.003101,-1.514486,-0.025381,-2.318702,-0.100516,0.743823,0.003101,0.668369,0.020230,0.000454,0.495846,-32.344036,364.389282,41.937370,,,,,,
1465847141.52,2.280193,-0.003713,-1.513880,0.003438,-2.226401,-0.078713,0.758750,0.003713,0.651372,-0.039527,0.004969,0.511775,-32.344036,364.389282,41.937370,,,,,,
1465847141.53,2.259566,-0.004243,-1.513544,0.005799,-2.013030,-0.061953,0.772022,0.004243,0.635582,-0.017230,-0.001634,0.498436,-32.532589,364.844269,42.733509,,,,,,
1465847141.54,2.240046,-0.004740,-1.512946,-0.020699,-1.942893,-0.078386,0.784279,0.004740,0.620390,-0.045738,-0.001902,0.504488,-32.532589,364.844269,42.733509,,,,,,
1465847141.55,2.220784,-0.005240,-1.512511,0.004857,-1.912164,-0.060458,0.796080,0.005240,0.605169,-0.046721,-0.006293,0.512599,-31.296310,364.797089,44.039875,,,,,,
1465847141.56,2.202212,-0.005843,-1.512276,0.016671,-1.838891,-0.066228,0.807179,0.005843,0.590278,-0.042896,-0.010787,0.510552,-31.296310,364.797089,44.039875,,,,,,
1465847141.57,2.184672,-0.006401,-1.511879,-0.004472,-1.723135,-0.070168,0.817405,0.006401,0.576028,-0.035972,-0.011100,0.510001,-31.296310,364.797089,44.039875,,,,,,
1465847141.58,2.168062,-0.007159,-1.511418,0.008452,-1.638141,-0.090913,0.826855,0.007159,0.562369,-0.082821,0.001904,0.525231,-31.296310,364.797089,44.039875,,,,,,
1465847141.59,2.152560,-0.007939,-1.511197,0.029862,-1.519277,-0.074606,0.835468,0.007939,0.549481,-0.084187,-0.006688,0.520267,-29.090714,364.719818,46.141502,,,,,,
1465847141.60,2.138381,-0.008744,-1.510888,0.011952,-1.390749,-0.090332,0.843169,0.008744,0.537577,-0.093627,-0.000122,0.525381,-29.090714,364.719818,46.141502,,,,,,
1465847141.62,2.111685,-0.010426,-1.510455,0.036530,-1.306902,-0.082318,0.857205,0.010425,0.514870,-0.101468,-0.009708,0.522926,-28.299458,364.693481,46.836761,,,,,,
1465847141.63,2.098770,-0.011355,-1.510188,0.021677,-1.289862,-0.098407,0.863774,0.011355,0.503752,-0.129399,-0.010104,0.537004,-28.299458,364.693481,46.836761,,,,,,
1465847141.61,2.124819,-0.009562,-1.510579,0.021574,-1.343002,-0.079978,0.850376,0.009562,0.526088,-0.105290,-0.003382,0.520344,-28.299458,364.693481,46.836761,,,,,,
1465847141.64,2.086099,-0.012359,-1.510064,0.047260,-1.255914,-0.092207,0.870077,0.012359,0.492760,-0.122305,-0.011733,0.534507,-28.299458,364.693481,46.836761,,,,,,
1465847141.65,2.073629,-0.013468,-1.509993,0.044094,-1.247395,-0.100779,0.876142,0.013467,0.481865,-0.139463,-0.013635,0.536659,-27.108063,364.650635,47.863819,,,,,,
1465847141.66,2.060835,-0.014604,-1.509878,0.049379,-1.295169,-0.106858,0.882221,0.014604,0.470610,-0.147144,-0.007417,0.560030,-27.108063,364.650635,47.863819,,,,,,
1465847141.67,2.047231,-0.015961,-1.510012,0.079108,-1.382217,-0.119056,0.888522,0.015960,0.458555,-0.175189,-0.013717,0.561983,-27.108063,364.650635,47.863819,,,,,,
1465847141.68,2.033165,-0.017374,-1.510135,0.071636,-1.402379,-0.122131,0.894863,0.017373,0.446002,-0.231808,-0.021493,0.576413,-26.644371,364.639465,48.207691,,,,,,
1465847141.69,2.019629,-0.018900,-1.510322,0.093035,-1.322748,-0.124738,0.900793,0.018899,0.433837,-0.321814,-0.019143,0.575410,-26.644371,364.639465,48.207691,,,,,,
1465847141.70,2.007776,-0.020432,-1.510769,0.106026,-1.143325,-0.120528,0.905845,0.020430,0.423116,-0.345344,-0.018630,0.568247,-26.162994,364.649902,48.392105,,,,,,
1465847141.71,1.997305,-0.021911,-1.511110,0.088082,-1.020144,-0.122383,0.910197,0.021910,0.413595,-0.363810,-0.023893,0.569589,-26.162994,364.649902,48.392105,,,,,,
1465847141.72,1.987295,-0.023542,-1.511479,0.104119,-0.988262,-0.135340,0.914258,0.023540,0.404449,-0.433697,-0.014354,0.550339,-26.162994,364.649902,48.392105,,,,,,
1465847141.73,1.978674,-0.025070,-1.512106,0.120275,-0.796160,-0.108853,0.917676,0.025067,0.396538,-0.473829,-0.035840,0.560219,-26.162994,364.649902,48.392105,,,,,,
1465847141.74,1.972819,-0.026787,-1.512573,0.112174,-0.517870,-0.144669,0.919941,0.026784,0.391140,-0.578877,-0.023000,0.573551,-25.776497,364.705292,48.181950,,,,,,
1465847141.75,1.969958,-0.028545,-1.513183,0.127457,-0.202548,-0.137051,0.921012,0.028542,0.388488,-0.681052,-0.021355,0.518617,-25.776497,364.705292,48.181950,,,,,,
1465847141.76,1.972093,-0.030121,-1.513774,0.117480,0.365462,-0.119334,0.920138,0.030116,0.390436,-0.750292,-0.012935,0.548865,-25.776497,364.705292,48.181950,,,,,,
1465847141.77,1.979830,-0.031570,-1.514669,0.140452,0.895220,-0.097087,0.917048,0.031565,0.397525,-0.724009,-0.039835,0.407590,-26.926250,364.794586,46.858997,,,,,,
1465847141.78,1.991336,-0.033061,-1.514958,0.064277,1.232997,-0.130151,0.912370,0.033055,0.408030,-0.750139,-0.009526,0.380575,-26.926250,364.794586,46.858997,,,,,,
,,,,,,,,,,,,,,,,29.719949,-95.399068,10.163411,-1.000000,-1.000000,1465847197.68
1465847141.80,2.021192,-0.035802,-1.516164,0.127548,1.696794,-0.068065,0.899698,0.035794,0.435043,-0.865167,0.005511,0.254227,-28.627319,364.837158,45.499199,,,,,,
1465847141.79,2.005084,-0.034496,-1.515306,0.109184,1.424029,-0.105757,0.906630,0.034489,0.420514,-0.823638,-0.005207,0.349933,-28.627319,364.837158,45.499199,,,,,,
1465847141.81,2.041167,-0.036581,-1.516772,0.082188,2.082170,-0.040722,0.890804,0.036573,0.452914,-0.806148,0.021380,0.183698,-28.627319,364.837158,45.499199,,,,,,
1465847141.82,2.062223,-0.037277,-1.517451,0.099179,2.083158,-0.017294,0.881048,0.037268,0.471556,-0.803640,0.060724,0.021120,-28.627319,364.837158,45.499199,,,,,,
1465847141.83,2.081897,-0.037317,-1.518377,0.074347,1.923704,0.055000,0.871600,0.037309,0.488797,-0.742358,0.044677,-0.075055,-32.709103,364.933563,41.826870,,,,,,
1465847141.84,2.099533,-0.036835,-1.519391,0.065461,1.705907,0.104257,0.862860,0.036827,0.504100,-0.674063,0.033882,-0.194255,-32.709103,364.933563,41.826870,,,,,,
1465847141.85,2.114327,-0.036130,-1.520576,0.062916,1.388406,0.114761,0.855330,0.036122,0.516823,-0.601103,-0.004185,-0.278572,-33.753376,365.038208,40.045582,,,,,,
1465847141.86,2.126012,-0.035419,-1.521129,-0.010801,1.155963,0.095921,0.849254,0.035411,0.526796,-0.813838,0.009480,-0.235506,-33.753376,365.038208,40.045582,,,,,,
1465847141.87,2.140516,-0.034169,-1.522428,0.074723,1.579325,0.185958,0.841561,0.034162,0.539081,-0.789406,-0.017698,-0.203159,-33.753376,365.038208,40.045582,,,,,,
1465847141.88,2.160850,-0.033421,-1.524105,0.094722,2.178286,0.140708,0.830447,0.033414,0.556095,-0.708865,-0.050382,-0.257312,-33.753376,365.038208,40.045582,,,,,,
1465847141.89,2.185156,-0.032696,-1.525479,0.074862,2.477716,0.142004,0.816706,0.032691,0.576128,-0.508631,-0.051459,-0.433412,-34.156807,365.305725,37.160656,,,,,,
1465847141.90,2.207692,-0.032307,-1.527136,0.114937,2.139036,0.123943,0.803526,0.032302,0.594392,-0.269743,-0.022765,-0.701814,-34.156807,365.305725,37.160656,,,,,,
1465847141.91,2.224807,-0.031550,-1.528307,0.017332,1.582677,0.135851,0.793256,0.031544,0.608071,-0.181531,-0.007130,-0.789468,-34.877651,365.463470,34.869164,,,,,,
1465847141.92,2.238530,-0.030393,-1.528802,-0.039349,1.342808,0.111752,0.784865,0.030388,0.618922,-0.273771,-0.021660,-0.633967,-34.877651,365.463470,34.869164,,,,,,
1465847141.93,2.253338,-0.029546,-1.529272,-0.003904,1.566869,0.096544,0.775633,0.029542,0.630492,-0.515532,-0.039078,-0.392348,-34.877651,365.463470,34.869164,,,,,,
1465847141.94,2.272723,-0.028984,-1.529962,0.022297,2.052153,0.074367,0.763279,0.028980,0.645419,-0.594151,-0.061130,-0.293017,-34.877651,365.463470,34.869164,,,,,,
1465847141.95,2.295909,-0.028837,-1.530333,0.019617,2.393113,0.028583,0.748113,0.028833,0.662944,-0.705190,-0.048028,-0.297481,-35.478283,365.622101,32.521519,,,,,,
1465847141.96,2.321681,-0.028239,-1.532099,0.129175,2.639881,0.236841,0.730794,0.028235,0.682014,-0.581746,-0.034079,-0.416923,-35.478283,365.622101,32.521519,,,,,,
1465847141.97,2.347068,-0.027133,-1.535052,0.094873,2.467865,0.245337,0.713268,0.027129,0.700366,0.139881,0.031571,-0.937625,-36.297050,365.727661,30.359039,,,,,,
1465847141.98,2.368096,-0.025835,-1.534550,-0.174660,1.982319,0.021386,0.698408,0.025832,0.715234,0.031710,-0.031660,-0.748162,-36.297050,365.727661,30.359039,,,,,,
1465847141.99,2.386963,-0.025039,-1.535224,0.072024,1.902238,0.139223,0.684804,0.025036,0.728297,-0.107961,-0.057003,-0.567409,-36.297050,365.727661,30.359039,,,,,,
1465847142.00,2.406822,-0.025097,-1.537175,0.104140,2.008457,0.118365,0.670206,0.025094,0.741751,0.058645,-0.034631,-0.672430,-36.297050,365.727661,30.359039,,,,,,
1465847142.01,2.426360,-0.024184,-1.537184,-0.102399,1.932269,0.061156,0.655601,0.024181,0.754720,0.002068,-0.057537,-0.702642,-36.602829,365.977722,26.765530,,,,,,
1465847142.02,2.445005,-0.023477,-1.538075,0.054936,1.847056,0.131037,0.641427,0.023475,0.766825,0.038383,-0.028190,-0.667017,-36.602829,365.977722,26.765530,,,,,,
1465847142.04,2.477084,-0.022299,-1.540210,-0.046647,1.458560,0.106761,0.616519,0.022297,0.787024,0.196072,-0.042805,-0.713019,-36.965500,366.025238,25.591591,,,,,,
1465847142.03,2.462032,-0.023256,-1.539575,0.054709,1.653829,0.124797,0.628281,0.023254,0.777639,0.147063,-0.018844,-0.706273,-36.965500,366.025238,25.591591,,,,,,
1465847142.05,2.491065,-0.021719,-1.541042,0.027801,1.382091,0.100928,0.605464,0.021717,0.795576,0.222722,-0.036320,-0.663313,-36.965500,366.025238,25.591591,,,,,,
1465847142.06,2.504382,-0.021331,-1.542091,0.022380,1.307761,0.103517,0.594820,0.021330,0.803576,0.269697,-0.031340,-0.666247,-36.965500,366.025238,25.591591,,,,,,
1465847142.07,2.516631,-0.020595,-1.542755,-0.030971,1.201634,0.094550,0.584942,0.020593,0.810814,0.314731,-0.029367,-0.694160,-36.772335,366.209991,23.106232,,,,,,
1465847142.08,2.527931,-0.019759,-1.543392,-0.027911,1.113471,0.106815,0.575753,0.019758,0.817385,0.335350,-0.025144,-0.675478,-36.772335,366.209991,23.106232,,,,,,
1465847142.10,2.547120,-0.017707,-1.544740,-0.072942,0.889409,0.124142,0.559984,0.017706,0.828314,0.450682,-0.034262,-0.642645,-36.585663,366.270782,22.429337,,,,,,
1465847142.09,2.538076,-0.018904,-1.544138,-0.033401,0.978627,0.106590,0.567440,0.018903,0.823198,0.404987,-0.024289,-0.679307,-36.585663,366.270782,22.429337,,,,,,
1465847142.11,2.555090,-0.016504,-1.545224,-0.068810,0.746137,0.098433,0.553376,0.016503,0.832768,0.545119,-0.020013,-0.594761,-36.585663,366.270782,22.429337,,,,,,
